Date created: 2021-10-22-21-50-16-954000000
Timestamp,acc_x,acc_y,acc_z,gyro_x,gyro_y,gyro_z,mag_x,mag_y,mag_z,light
31615325,0.9378295,-1.1453983,10.171001,-0.021601545,0.049051225,0.042641334,3.8678417,-1.7710352,-44.340355,
31615330,0.8875244,-1.1633643,10.109917,-0.0152099645,0.041061748,0.03731502,,,,
31615335,0.89710635,-1.1969011,10.07159,-0.01361207,0.03307227,0.02985817,3.253687,-1.651494,-45.59513,
31615340,0.8587787,-1.159771,10.029669,-0.012546807,0.022952268,0.022401327,,,,
31615345,0.79170525,-1.1609688,9.957805,-0.012546807,0.014962792,0.012813954,2.638279,-2.2388878,-44.82981,
31615350,0.7342138,-1.1166525,9.8404255,-0.0066878567,0.013897527,0.004291847,,,,
31615355,0.5880896,-1.0699406,9.779341,-0.0029594346,0.020289108,-0.0020997338,2.637125,-1.644618,-44.5272,
31615360,0.5150275,-1.0352061,9.8009,-0.0029594346,0.031474378,-0.00689342,,,,
31615365,0.42879027,-0.9956808,9.861985,-8.289082E-4,0.04265964,-0.008491315,2.1767807,-1.3776503,-45.934624,
31615370,0.35333273,-1.0028672,9.828448,7.6898735E-4,0.04479017,-0.0036976296,,,,
31615375,0.3497395,-1.0232288,9.780539,7.6898735E-4,0.04212701,0.0021613198,3.09791,-1.4832573,-44.053307,
31615380,0.36650783,-1.026822,9.677533,-0.004024699,0.04212701,0.011216059,,,,
31615385,0.42160386,-1.0459858,9.679929,-0.012546807,0.041061748,0.017075008,3.4068012,-1.4948015,-45.128853,
31615390,0.4527451,-1.0292175,9.691906,-0.022666808,0.04319227,0.017075008,,,,
31615395,0.47789758,-1.0364039,9.73263,-0.029591022,0.050649118,0.017075008,2.1778965,-2.6950674,-45.30027,
31615400,0.46352476,-1.0364039,9.814075,-0.030123653,0.06289964,0.017075008,,,,
31615405,0.48628178,-1.0699406,9.882347,-0.03118892,0.07461755,0.016542377,4.1753216,-0.7507162,-45.42788,
31615410,0.5186207,-1.049579,9.947025,-0.037580498,0.081541754,0.015477113,,,,
31615415,0.56772804,-1.0639518,9.978166,-0.039711025,0.07941123,0.016009746,3.4053898,-0.4629383,-45.14083,
31615420,0.5377846,-1.0555677,10.0380535,-0.039711025,0.078878604,0.016542377,,,,
31615425,0.5509597,-1.0627542,10.103928,-0.039711025,0.0772807,0.015477113,1.8674049,-0.6360092,-45.33184,
31615430,0.5809032,-1.0567654,10.159025,-0.037580498,0.07515018,0.016009746,,,,
31615435,0.5377846,-1.0423925,10.147047,-0.037580498,0.0772807,0.019205535,3.1014996,-2.1099539,-46.52221,
31615440,0.5329936,-1.0196354,10.217714,-0.033852078,0.07142176,0.023466589,,,,
31615445,0.54976195,-0.999274,10.276403,-0.027993126,0.06769333,0.026662381,3.098606,-1.4925222,-44.67225,
31615450,0.57491446,-0.9705282,10.276403,-0.020536283,0.059703857,0.030923435,,,,
31615455,0.61683536,-0.99208754,10.270414,-0.008818385,0.050649118,0.036249753,2.790329,-1.054965,-44.68499,
31615460,0.62402177,-1.0076581,10.293171,0.003432146,0.04265964,0.03784765,,,,
31615465,0.6515698,-1.059161,10.220109,0.007160568,0.029876482,0.036782388,4.02306,-2.6554708,-44.48101,
31615470,0.65156984,-1.0879066,10.131477,0.01621531,0.015495423,0.033053964,,,,
31615475,0.5928806,-1.0304152,10.028471,0.022074258,0.0011143655,0.035184488,5.1001205,-1.9182978,-45.54612,
31615480,0.5329936,-1.022031,9.872765,0.02260689,-0.006342479,0.039445546,,,,
31615485,0.4958637,-1.0340084,9.700291,0.015150045,-0.0010161615,0.04423923,4.48324,-2.0518818,-44.01226,
31615490,0.4683157,-0.9956808,9.598483,0.007160568,0.014962792,0.048500285,,,,
31615495,0.42040613,-1.0028672,9.604471,-0.004024699,0.03573543,0.056489762,2.9469223,-0.94459724,-47.313362,
31615500,0.33416888,-1.0184379,9.602076,-0.018405756,0.05384491,0.06447923,,,,
31615505,0.2850616,-1.0304152,9.628426,-0.021068914,0.06769333,0.07886029,3.2540894,-1.9463129,-45.591713,
31615510,0.2431407,-1.0387993,9.6487875,-0.02639523,0.08207439,0.09324135,,,,
31615515,0.29464346,-1.0567653,9.651184,-0.03438471,0.09379229,0.10762241,4.1789455,-3.4040794,-45.397057,
31615520,0.30302766,-1.0926976,9.672743,-0.040243655,0.10604282,0.11774241,,,,23.0
31615525,0.36650783,-1.1298275,9.721849,-0.041308925,0.120423876,0.1225361,4.022814,-1.3496351,-45.88903,
31615530,0.42160383,-1.1657597,9.82246,-0.038645763,0.13214178,0.124134,,,,
31615535,0.4455586,-1.1825281,9.888335,-0.033852078,0.14119653,0.124134,4.4830494,-1.036233,-45.107384,
31615540,0.434779,-1.1729462,10.045239,-0.022666808,0.13800073,0.1225361,,,,
31615545,0.42519706,-1.187319,10.094347,-0.015742596,0.11829335,0.12040557,2.9448528,-1.9301348,-44.206703,
31615550,0.40723094,-1.1897146,10.075183,-0.012546807,0.08527018,0.11294872,,,,
31615555,0.36770558,-1.1801326,9.998528,-0.009351016,0.041061748,0.109220296,2.9460697,-1.9463491,-45.289833,
31615560,0.3102141,-1.1525847,9.9194765,-0.011481543,-0.006875111,0.108155034,,,,
31615565,0.23595427,-1.0986862,9.730234,-0.02319944,-0.051083546,0.11348135,5.5619526,-1.770834,-46.000618,
31615570,0.22397688,-1.0399971,9.590097,-0.040243655,-0.08463935,0.120938204,,,,
31615575,0.31260958,-0.9645395,9.487093,-0.05675524,-0.097955145,0.13318872,3.0990086,-1.7873411,-44.66883,
31615580,0.34734398,-0.93818927,9.412833,-0.07433209,-0.09955304,0.14224347,,,,
31615585,0.9785526,-1.0352061,9.561354,-0.08604999,-0.08517198,0.13691714,3.2555008,-2.978176,-45.57972,
31615590,1.5726314,-1.0507767,9.735025,-0.08445209,-0.06919303,0.10389398,,,,
31615595,1.4851964,-0.9884943,9.858393,-0.079658404,-0.06546461,0.07140345,2.9472332,-1.6723766,-46.68586,
31615600,1.398959,-0.9753192,9.687115,-0.07859314,-0.070790924,0.053826604,,,,
31615605,1.3977613,-0.99448305,9.651182,-0.07646262,-0.059605654,0.039978176,2.6410255,-2.999096,-46.368584,
31615610,1.3857839,-0.93459606,9.702686,-0.07699525,-0.035637226,0.021868696,,,,
31615615,1.413332,-0.9298051,9.810482,-0.06794051,-0.012201428,0.004291847,3.4071484,-1.4994345,-45.438316,
31615620,1.3762021,-0.91423446,9.87516,-0.059418403,0.004310156,-0.0116871055,,,,
31615625,1.2300779,-0.8699181,9.895522,-0.052494187,0.015495423,-0.018611321,3.100071,-2.8145704,-44.347374,
31615630,1.1773773,-0.8711159,9.915884,-0.048233137,0.022952268,-0.020209214,,,,
31615635,1.1414452,-0.85554516,10.051228,-0.037047867,0.028811216,-0.024470268,3.71525,-1.9346762,-45.270836,
31615640,1.0863491,-0.8806978,10.103928,-0.022134177,0.034137536,-0.028198691,,,,
31615645,1.0264622,-0.87950003,10.138662,-0.005622594,0.029876482,-0.030861849,2.791647,-2.5197906,-44.048927,
31615650,1.0384395,-0.89986163,10.132674,0.0044974093,0.021354374,-0.029796584,,,,
31615655,1.0707786,-0.94537574,10.115906,0.010888991,0.011767001,-0.032992374,2.331047,-1.8152285,-45.770958,
31615660,1.1103039,-0.99687856,10.051228,0.019411098,0.0032448927,-0.03831869,,,,
31615665,1.1821682,-0.96693504,10.010505,0.025270049,-0.0058098473,-0.04950396,4.1746445,-1.7547846,-43.55909,
31615670,1.2013321,-1.0004717,10.058414,0.03272689,-0.016995113,-0.06228712,,,,
31615675,1.1630044,-0.96693504,10.05003,0.04444479,-0.028713012,-0.07560292,4.1763287,-1.4877615,-45.41932,
31615680,1.1222813,-0.92860734,9.957804,0.051901635,-0.046289857,-0.08945134,,,,
31615685,1.1522248,-0.9357938,9.867974,0.049238473,-0.06280144,-0.102234505,4.1763287,-1.4877615,-45.41932,
31615690,1.1474338,-0.90704805,9.677533,0.042314265,-0.07558461,-0.1155503,,,,
31615695,1.0995243,-0.8806978,9.529015,0.03166163,-0.086237244,-0.12460504,4.946205,-1.4853535,-46.01925,
31615700,1.0983264,-0.87351143,9.326595,0.017280573,-0.08410672,-0.13472505,,,,
31615705,1.0516148,-0.8279972,9.197241,-0.0034920669,-0.06652987,-0.140584,4.6369934,-1.6142683,-44.477806,
31615710,0.9605865,-0.79685605,9.198437,-0.025862599,-0.035637226,-0.1421819,,,,
31615715,0.8348239,-0.75373745,9.2858715,-0.047700502,0.0032448927,-0.13845347,3.0988712,-1.0618773,-45.451057,
31615720,0.80607814,-0.77888995,9.440381,-0.057820506,0.03893122,-0.1336598,,,,
31615725,0.7306206,-0.76212156,9.61046,-0.06367946,0.061834384,-0.12780084,2.9471703,-2.250432,-45.905357,
31615730,0.69468844,-0.7453532,9.799704,-0.068473145,0.067160696,-0.12353977,,,,
31615735,0.68390876,-0.7836809,9.925465,-0.06367946,0.061301757,-0.122474514,2.947178,-1.3821917,-46.998756,
31615740,0.6863042,-0.84835887,9.986549,-0.05568998,0.03893122,-0.1256703,,,,
31615745,0.69588614,-0.9154322,10.033262,-0.04610261,0.013364895,-0.12939873,3.2554455,-2.6879902,-45.892616,
31615750,0.6419879,-0.93938696,10.042844,-0.03438471,-0.011136165,-0.13472505,,,,
31615755,0.6036602,-0.966935,10.006912,-0.02319944,-0.035637226,-0.13951874,2.6407146,-2.2713156,-46.996086,
31615760,0.57132125,-0.98011017,9.957805,-0.014677334,-0.0553446,-0.14484505,,,,
31615765,0.5521574,-0.98490113,9.908697,-0.0050899624,-0.07132355,-0.14484505,3.1014996,-2.1099539,-46.52221,
31615770,0.52460945,-1.0208333,9.889533,-2.9627638E-4,-0.080378294,-0.14377978,,,,
31615775,0.5114343,-1.01724,9.784132,0.0066279364,-0.086237244,-0.14111663,3.2526264,-0.6242628,-45.916588,
31615780,0.48867723,-1.0579631,9.691906,0.008758464,-0.08676988,-0.13685557,,,,
31615785,0.5030501,-1.0962908,9.582912,,,,4.17795,-1.7987947,-46.49903,
31615790,0.58569413,-1.0747316,9.423613,0.0066279364,-0.08410672,-0.13632295,,,,
31615795,0.6252195,-1.1154547,9.28707,-0.0024268033,-0.0819762,-0.13685557,3.1024513,-2.5568142,-46.826515,
31615800,0.68031555,-1.099884,9.228381,-0.01734049,-0.078780405,-0.140584,,,,
31615805,0.6036602,-1.059161,9.249941,-0.035982605,-0.06759514,-0.14804085,2.7915478,-1.0711794,-45.76812,
31615810,0.48987502,-1.0364039,9.339771,-0.05728787,-0.053214073,-0.1554977,,,,
31615815,0.4048355,-1.0052626,9.3780985,-0.0727342,-0.037235122,-0.15816084,4.3307495,-0.91432,-46.660225,
31615820,0.27308416,-0.95974857,9.446369,-0.08391946,-0.020723537,-0.15070401,,,,
31615825,0.16289218,-0.93818927,9.50985,-0.092441574,-4.8352976E-4,-0.13845347,3.8707619,-2.5335598,-46.03385,
31615830,0.09462103,-0.8806978,9.552968,-0.09936578,0.036268063,-0.12407241,,,,
31615835,0.07066624,-0.8723136,9.665556,-0.10096368,0.0905965,-0.10116924,3.4033203,1.3013382,-45.470848,
31615840,0.10540068,-0.9082458,9.90151,-0.09670263,0.14332706,-0.07347239,,,,
31615845,0.15450801,-0.95735306,9.954211,-0.08977841,0.1843397,-0.04950396,0.6402054,-2.5825863,-46.11364,
31615850,0.25631583,-1.0160422,9.89672,-0.07912578,0.20564498,-0.031394478,,,,
31615855,0.42160386,-1.0687429,9.884743,-0.07539735,0.2077755,-0.02127448,2.9460697,-1.9463491,-45.289833,
31615860,0.50424784,-1.0879066,9.8404255,-0.07060367,0.18806812,-0.024470268,,,,
31615865,0.56293714,-1.1262343,9.714663,-0.07433209,0.1523818,-0.03831869,2.332264,-1.8314419,-46.854073,
31615870,0.58210087,-1.1154547,9.781736,-0.07859314,0.11136913,-0.056960803,,,,22.0
31615875,0.53538907,-1.0747316,9.814075,-0.08019104,0.06982386,-0.08039661,4.332506,-1.9508171,-46.95771,
31615880,0.4419654,-0.9705282,9.815273,-0.07699525,0.03253964,-0.09797345,,,,
31615885,0.3353666,-0.94777113,9.688313,-0.065277345,0.0011143655,-0.11075661,2.944395,-1.3451309,-44.523018,
31615890,0.19882435,-0.8663249,9.598482,-0.051961556,-0.007940374,-0.11288714,,,,
31615895,0.09222555,-0.833986,9.327793,-0.036515236,0.008038579,-0.10596293,3.8667793,-0.743804,-44.66181,
31615900,0.13414642,-0.833986,8.987636,-0.025862599,0.045855433,-0.09051661,,,,
31615905,0.16289218,-0.8375792,8.829535,-0.027460495,0.09858598,-0.07293976,3.4053268,-1.0409937,-44.360313,
31615910,0.17127636,-0.7345736,8.594777,-0.04556998,0.15504496,-0.059091326,,,,
31615915,0.13414642,-0.6603138,8.491772,-0.06794051,0.20298181,-0.048971325,5.100588,-1.6350603,-46.323204,
31615920,0.032338604,-0.6387545,8.772043,-0.09670263,0.25731024,-0.03778606,,,,
31615925,0.014372505,-0.61599743,8.909782,-0.12173632,0.29246393,-0.026600795,4.6390266,-1.3518782,-46.6475,
31615930,-0.009582281,-0.6519296,9.154121,-0.1350521,0.29512706,-0.01594816,,,,
31615935,0.015570253,-0.63276577,9.44038,-0.14250895,0.2786155,-0.0031649978,5.253584,-1.7662382,-45.389305,
31615940,0.028745368,-0.5908449,9.630821,-0.1382479,0.24612498,0.0074876375,,,,
31615945,0.05868885,-0.57287884,9.68951,-0.11534474,0.20085129,0.018672904,3.2526798,-0.91444874,-45.60369,
31615950,0.07905042,-0.55131954,9.606867,-0.08604999,0.1523818,0.03252133,,,,
31615955,0.10659842,-0.5848562,9.368517,-0.05302682,0.12575018,0.04690239,2.793213,-2.540637,-45.441536,
31615960,0.12815773,-0.58006525,9.066687,-0.021601545,0.13214178,0.060218185,,,,
31615965,0.15929896,-0.608811,8.825941,0.0044974093,0.16676284,0.07300134,3.4043827,0.27410698,-45.14939,
31615970,0.19523112,-0.62198615,8.552856,0.023139521,0.22215655,0.08471924,,,,
31615975,0.3138073,-0.69624597,8.267795,0.028998472,0.27755022,0.09537187,3.867941,-0.46983242,-46.057823,
31615980,0.517423,-0.7812854,7.9959073,0.018878467,0.3238892,0.10123083,,,,
31615985,0.60246253,-0.8531498,7.9096704,-0.0018941717,0.36170605,0.09537187,4.4815826,0.2858162,-45.43226,
31615990,0.655163,-0.92980504,7.916857,-0.032786813,0.38354397,0.081523456,,,,
31615995,0.5844964,-0.95735306,8.053399,-0.06474472,0.3856745,0.05915292,5.253273,-1.0384579,-46.016777,
31616000,0.45514056,-0.89986163,8.319297,-0.085517354,0.36543447,0.03731502,,,,
31616005,0.25631583,-0.8759069,8.526506,-0.09137631,0.33400923,0.02399922,5.7155304,-1.330904,-46.311424,
31616010,0.11977357,-0.83757925,8.754076,-0.081788935,0.2983229,0.014944481,,,,
31616015,0.017965727,-0.7836809,8.8498955,-0.053559452,0.2615713,0.016542377,5.405981,-0.5869465,-45.553917,
31616020,-0.058689587,-0.7477488,8.885827,-0.022134177,0.22535235,0.024531854,,,,20.0
31616025,-0.100610465,-0.74176,8.857082,0.017813204,0.1960576,0.03731502,5.2535305,-1.4760523,-45.702187,
31616030,-0.112587854,-0.7202007,8.787613,0.055097427,0.17208917,0.056489762,,,,
31616035,-0.0682715,-0.70103693,8.733715,0.092914276,0.15930602,0.0740666,7.1017227,-2.7793503,-45.950645,
31616040,-0.058689594,-0.6998392,8.66185,0.1270027,0.1609039,0.08791503,,,,
31616045,-0.001198113,-0.7764945,8.645082,0.16322167,0.16889338,0.10016556,4.0204334,-1.6073923,-43.409874,
31616050,0.057491124,-0.8327882,8.570822,0.19624485,0.17741548,0.10602451,,,,
31616055,0.11498259,-0.88189554,8.424698,0.22127853,0.17635022,0.106557146,5.4063835,-0.8817644,-45.5505,
31616060,0.23236105,-0.9860988,8.331274,0.23992065,0.17208917,0.10229609,,,,
31616065,0.22996555,-1.0316129,8.23306,0.25483432,0.16676284,0.093773976,6.175354,-1.5909224,-44.43981,
31616070,0.25272262,-1.0795226,8.217489,0.26282382,0.1609039,0.07832766,,,,
31616075,0.20720853,-1.0950931,8.242641,0.265487,0.15557759,0.06607713,5.406988,-1.3239918,-45.545357,
31616080,0.100609735,-1.0795225,8.247433,0.26815012,0.14545758,0.05862029,,,,
31616085,0.05150242,-1.0926976,8.268992,0.26708487,0.13160916,0.053293973,7.4068203,-2.0167894,-44.559013,
31616090,0.09581879,-1.169353,8.30732,0.26229116,0.1140323,0.049565546,,,,
31616095,0.14492609,-1.1837258,8.338461,0.2511059,0.08686807,0.045304492,5.5583534,-2.0123768,-42.43833,
31616100,0.22397687,-1.1849236,8.395952,0.24045327,0.056508068,0.038912915,,,,
31616105,0.25871128,-1.1609688,8.4929695,0.2356596,0.027745953,0.030923435,6.3310966,-2.4823084,-45.04467,
31616110,0.27188644,-1.132223,8.579206,0.23672485,0.0059080506,0.018672904,,,,
31616115,0.2718864,-1.1729462,8.606754,0.24151854,-0.004211952,0.011748692,5.4063835,-0.8817644,-45.5505,
31616120,0.2814684,-1.1777372,8.661851,0.25217116,-0.0015487933,0.0106834285,,,,
31616125,0.31380737,-1.1980988,8.804382,0.265487,0.013364895,0.009085532,5.2527695,-2.0448408,-44.302742,
31616130,0.32338926,-1.22924,8.888224,0.28040066,0.045855433,0.0053571104,,,,
31616135,0.30063218,-1.2124715,8.932539,0.30277118,0.099118605,5.6342455E-4,4.330593,-1.9253378,-45.25564,
31616140,0.27787516,-1.2076806,9.099026,0.33046806,0.16569759,-0.004762893,,,,
31616145,0.20481305,-1.1310253,9.331387,0.36082807,0.22854814,-0.007426052,4.020241,-0.59174347,-44.504982,
31616150,0.18085825,-1.1909122,9.517036,0.39598176,0.27328917,-0.0063607884,,,,
31616155,0.11138938,-1.1813303,9.73263,0.42740703,0.2919313,-0.005295525,5.253639,-2.0564222,-45.07641,
31616160,0.06108433,-1.1825281,9.832042,0.45403862,0.2871376,-0.0042302613,,,,
31616165,0.040722772,-1.1609688,10.004517,0.47960493,0.25358182,-0.0042302613,6.332651,-3.371395,-45.343864,
31616170,0.005988337,-1.1609688,10.149443,0.4955839,0.1992534,-0.0020997338,,,,
31616175,0.041920513,-1.1430027,10.199748,0.51049757,0.12788074,0.0016286881,5.4095535,-2.9501238,-45.836006,22.0
31616180,0.12216905,-1.1022795,10.227296,0.51316077,0.04212701,3.0792784E-5,,,,
31616185,0.27188644,-1.0316129,10.161421,0.5046386,-0.03936565,-0.007958684,5.716007,-2.9292412,-44.745262,
31616190,0.42280158,-1.0543699,9.999725,0.4923881,-0.11020567,-0.018611321,,,,
31616195,0.5162252,-1.1633643,9.817669,0.47161546,-0.15547936,-0.028198691,6.486002,-2.6389637,-45.812828,
31616200,0.632406,-1.1501892,9.633217,0.43699437,-0.17678462,-0.03778606,,,,
31616205,0.6120444,-1.1430027,9.52542,0.38639438,-0.16240358,-0.048971325,6.79352,-3.6453114,-44.400642,
31616210,0.5605416,-1.1082683,9.500267,0.32514173,-0.10807515,-0.06175449,,,,
31616215,0.44316316,-1.0387993,9.609262,0.25856277,-0.032974068,-0.06708081,6.4853992,-2.1967363,-45.81797,
31616220,0.3593214,-0.9825057,9.967386,0.1871901,0.04265964,-0.06388502,,,,
31616225,0.26709548,-1.0423926,10.483612,0.11741534,0.09965124,-0.05269975,7.56411,-4.6655025,-44.36965,23.0
31616230,0.14133285,-1.1190479,11.133984,0.05403216,0.13160916,-0.03725343,,,,
31616235,0.041920498,-1.1861213,11.807114,0.0039647776,0.14226179,-0.022872372,6.0241737,-2.7864275,-45.358315,
31616240,0.019163474,-1.32985,12.421555,-0.027460495,0.13480495,-0.007426052,,,,
31616245,-0.045514464,-1.3825505,12.894661,-0.041308925,0.11296704,0.005889742,6.0234604,-1.7638302,-45.98922,
31616250,-0.053898618,-1.3669798,13.322254,-0.039178394,0.093259655,0.019738168,,,,
31616255,-0.022757418,-1.36698,13.964243,-0.02000365,0.08207439,0.030390805,7.4074802,-2.7492018,-44.24099,
31616260,0.017965727,-1.3657821,14.539156,0.017280573,0.061834384,0.034651857,,,,
31616265,0.011977024,-1.417285,14.8194275,0.06628269,0.034670167,0.03252133,6.025173,-4.391713,-44.256355,
31616270,-0.0527009,-1.3681778,14.9511795,0.122741655,-0.0052772155,0.025064485,,,,
31616275,-0.06946924,-1.3226635,14.915247,0.1738743,-0.056409866,0.018140273,5.561796,-2.7818499,-44.596046,
31616280,-0.21319795,-1.2316353,14.748761,0.20956065,-0.10700989,0.019738168,,,,
31616285,-0.28865552,-1.0483813,14.594254,0.23086591,-0.16666463,0.030390805,6.485033,-3.928585,-43.321693,
31616290,-0.346147,-0.86991817,14.488852,0.23938802,-0.2348415,0.050098177,,,,
31616295,-0.28745776,-0.69744366,14.333145,0.23352908,-0.30887732,0.08205608,3.8708515,-4.8504114,-43.221275,
31616300,-0.11258786,-0.66151154,14.048084,0.21222378,-0.37652156,0.115079254,,,,
31616305,0.11019163,-0.608811,13.831293,0.17280903,-0.42658892,0.14650452,5.2537117,-3.3599415,-43.513664,
31616310,0.3401576,-0.553715,13.638457,0.12061113,-0.46014476,0.17366873,,,,
31616315,0.54976195,-0.48304838,13.53665,0.063086905,-0.47718897,0.194974,6.026123,-4.8385735,-44.560677,
31616320,0.74379575,-0.45070946,13.461191,-0.0013615399,-0.4761237,0.2098877,,,,
31616325,0.94980687,-0.4746642,13.359385,-0.06580998,-0.46067736,0.21947506,4.179203,-3.841673,-45.08245,
31616330,1.1582135,-0.51898056,13.32944,-0.1382479,-0.43670896,0.22906244,,,,
31616335,1.3857839,-0.58006525,13.383339,-0.2069574,-0.40262052,0.2285298,4.951359,-4.8827114,-46.444084,
31616340,1.5151398,-0.6052178,13.583361,-0.27619952,-0.36480364,0.21787716,,,,
31616345,1.6409024,-0.60761327,13.9211235,-0.344909,-0.33337837,0.20030032,5.562912,-4.099267,-43.961708,
31616350,1.6828233,-0.6171952,14.119948,-0.3997701,-0.31793207,0.17526664,,,,
31616355,1.7211509,-0.6794776,14.236129,-0.451968,-0.32219312,0.15076557,5.561384,-3.3552723,-43.506065,
31616360,1.8361338,-0.81841534,14.36309,-0.5073617,-0.34296575,0.12999293,,,,
31616365,1.9307553,-0.9250142,14.401417,-0.56808174,-0.36533627,0.105491884,5.4097996,-4.2559595,-44.427986,
31616370,2.0229812,-1.0627542,14.407406,-0.6330628,-0.3823805,0.079392925,,,,
31616375,2.0505292,-1.2963133,14.382253,-0.6916523,-0.3861089,0.057022393,4.949482,-4.1340847,-45.678978,
31616380,2.046936,-1.5717933,14.294817,-0.75716597,-0.36959735,0.03731502,,,,
31616385,2.0493314,-1.9203355,14.365484,-0.8274734,-0.3349763,0.017075008,4.6398144,-3.6779957,-44.453835,
31616390,2.0038176,-2.2664824,14.490049,-0.8823344,-0.28597414,-0.0015671025,,,,
31616395,1.9199756,-2.6329904,14.690073,-0.92387974,-0.21726465,-0.026068164,6.1770306,-2.1921406,-45.206627,
31616400,1.8409249,-2.8857136,14.94519,-0.94198924,-0.15015304,-0.059091326,,,,
31616405,1.6828233,-3.1695776,15.196716,-0.9355976,-0.09635725,-0.10063661,4.0241394,-1.9462214,-46.346382,
31616410,1.5163375,-3.3336678,15.367992,-0.9079008,-0.06439935,-0.14963873,,,,
31616415,1.3330834,-3.4199052,15.460218,-0.8626271,-0.06439935,-0.20449981,4.0241394,-1.9462214,-46.346382,
31616420,0.9989142,-3.430685,15.405123,-0.80670077,-0.091030926,-0.26255667,,,,
31616425,0.60725343,-3.342052,15.190727,-0.7454481,-0.14962041,-0.3174177,4.1760178,-0.75998116,-46.046806,20.0
31616430,0.29584125,-3.1516113,14.7727165,-0.6873913,-0.23324358,-0.36056092,,,,
31616435,-0.015570983,-2.860561,14.145101,-0.6383891,-0.33444363,-0.38985565,4.4831314,-1.4715109,-44.638054,
31616440,-0.38327694,-2.4197927,13.552219,-0.60483336,-0.44043738,-0.40530196,,,,
31616445,-0.6395931,-1.8772168,12.795249,-0.5861912,-0.5336479,-0.39624724,3.404171,-0.4467249,-44.0577,
31616450,-0.7282258,-1.3993189,11.970007,-0.58832175,-0.6098142,-0.36109355,,,,
31616455,-0.57012427,-1.0903021,10.8704815,-0.6176165,-0.6662732,-0.31475458,4.945261,-0.1702528,-46.808327,
31616460,-0.2790736,-1.0435903,9.664358,-0.6873913,-0.68811107,-0.26468718,,,,
31616465,0.023954429,-1.22924,8.501354,-0.7939176,-0.6630774,-0.22580509,3.0953007,1.301301,-45.16897,
31616470,0.33656436,-1.4927425,7.6677265,-0.9292061,-0.5853132,-0.20130402,,,,
31616475,0.5509597,-1.7322905,7.2018065,-1.0794083,-0.4564163,-0.18639034,3.0967102,0.2694378,-45.15699,16.0
31616480,0.67792004,-1.913149,7.2137837,-1.224284,-0.28757206,-0.18532507,,,,
31616485,0.71385217,-2.0616689,7.5623255,-1.3531809,-0.12032568,-0.19491245,4.3264465,0.7349739,-44.822258,
31616490,0.6395924,-2.2425275,8.2091055,-1.4565115,0.010701737,-0.20822823,,,,
31616495,0.5485642,-2.4449453,9.002008,-1.5214926,0.10870598,-0.22047876,5.249958,0.88712597,-45.420113,
31616500,0.47909534,-2.6425724,9.826053,-1.5491894,0.1625018,-0.2327293,,,,
31616505,0.40004453,-2.7934875,10.545895,-1.5332105,0.17475234,-0.251904,4.3242855,2.066288,-44.528206,
31616510,0.3018299,-2.85577,11.277714,-1.4719578,0.16037127,-0.27427456,,,,
31616515,0.23715201,-2.906075,11.972402,-1.3537135,0.12628284,-0.2987756,3.7105618,1.7459173,-45.623116,
31616520,0.11378485,-2.9096682,12.613192,-1.1939241,0.07248702,-0.32487458,,,,
31616525,-0.044316716,-2.8294196,13.172537,-0.991524,0.0016469973,-0.3419188,3.247507,3.4962416,-46.42872,13.0
31616530,-0.30781937,-2.7934875,13.481553,-0.74651337,-0.07984567,-0.35629985,,,,
31616535,-0.6084519,-2.6773067,13.325847,-0.47540382,-0.16346884,-0.35789773,5.245865,3.2572517,-44.673836,
31616540,-0.81925404,-2.507228,12.608401,-0.20269635,-0.25135309,-0.34671247,,,,
31616545,-0.961785,-2.3503242,12.041871,0.03272689,-0.34562892,-0.32487458,3.2481842,1.750495,-44.860847,
31616550,-1.0084968,-2.1419172,11.40108,0.23406169,-0.45002475,-0.29078615,,,,
31616555,-1.0192765,-1.8472733,10.487205,0.40716702,-0.5453658,-0.2460451,3.0940819,1.3175154,-44.08584,
31616560,-1.0372425,-1.5670023,9.354144,0.54352075,-0.61460793,-0.19331454,,,,
31616565,-0.94022566,-1.3849461,7.993512,0.6330029,-0.65402263,-0.13951874,2.63035,4.813585,-46.459328,
31616570,-0.7545761,-1.1537824,6.780202,0.6692218,-0.66840374,-0.094777666,,,,
31616575,-0.51383054,-0.88429105,5.766915,0.65910184,-0.6641427,-0.06228712,3.4011059,2.9228377,-45.489677,9.0
31616580,-0.25871205,-0.63995224,4.9057407,0.6164913,-0.6444353,-0.036188163,,,,
31616585,-0.074260205,-0.45669812,4.223029,0.54778177,-0.60182476,-0.014350263,3.4015636,2.3378334,-45.173363,
31616590,0.085039124,-0.32614455,3.8385546,0.48173544,-0.5315173,0.0032265834,,,,
31616595,0.20361531,-0.28781688,3.657696,0.42101544,-0.4431005,0.020803431,2.6315498,3.0608902,-45.355644,
31616600,0.27907288,-0.25188467,3.6145778,0.37254596,-0.3403026,0.0319887,,,,
31616605,0.32458696,-0.21715027,3.7271647,0.34378386,-0.23058045,0.046369758,3.2477818,2.0453138,-44.864265,
31616610,0.3185983,-0.19798644,3.7475266,0.32780486,-0.10647725,0.06447923,,,,
31616615,0.29823673,-0.27344403,3.7115943,0.31928277,0.035202798,0.088980295,3.7114315,1.7343359,-46.396782,
31616620,0.25990903,-0.33812192,3.7403402,0.31182593,0.19232918,0.11827504,,,,
31616625,0.19523112,-0.36926314,3.818193,0.30223855,0.35691237,0.15129821,3.2474346,2.0499458,-44.554802,10.0
31616630,0.08743459,-0.3740541,4.070916,0.29851013,0.52362615,0.18272348,,,,
31616635,-0.045514457,-0.29859653,4.3727465,0.31076065,0.6791546,0.21574664,1.558075,1.6970196,-46.759438,
31616640,-0.13175169,-0.356088,4.605108,0.3331312,0.8091168,0.25143299,,,,
31616645,-0.11857655,-0.44352296,4.714102,0.34697962,0.88102204,0.27753195,4.017887,1.7552195,-45.306038,
31616650,0.032338597,-0.5129919,4.59313,0.34058803,0.8959357,0.2887172,,,,
31616655,0.24194299,-0.5872517,4.4865313,0.32034802,0.8613147,0.28126037,4.3237457,3.0865707,-45.31385,
31616660,0.41441742,-0.69744366,4.4685655,0.30010805,0.7915399,0.25622666,,,,
31616665,0.5329936,-0.7752967,4.5871415,0.29637963,0.7036557,0.22267085,3.4022598,2.3285685,-45.792305,
31616670,0.6407901,-0.8124266,4.69374,0.30863014,0.6029883,0.18751717,,,,
31616675,0.6467788,-0.84237015,4.8817854,0.3432512,0.4884724,0.14916767,3.865368,0.28805923,-44.67379,
31616680,0.6515698,-0.8136244,4.9728136,0.386927,0.37022817,0.11667715,,,,
31616685,0.69828165,-0.8100312,4.944068,0.43699437,0.25358182,0.08525187,4.636261,0.42166138,-46.358574,
31616690,0.7569709,-0.76571476,4.5979214,0.48652914,0.14599022,0.057022393,,,,
31616695,0.7617618,-0.6603138,4.1823063,0.5222155,0.06662807,0.038912915,5.0963593,1.4605303,-46.359154,
31616700,0.73780704,-0.6112065,3.795436,0.5515102,0.021887004,0.027195012,,,,
31616705,0.64917433,-0.62438166,3.5367246,0.57601124,0.012299633,0.016009746,4.3255024,2.0500746,-45.611336,
31616710,0.6695359,-0.53455114,3.2971766,0.5962513,0.036268063,0.0016286881,,,,
31616715,0.632406,-0.4555004,2.9749846,0.6116976,0.09592281,-0.005295525,4.3283787,-0.30383873,-45.274467,
31616720,0.5030501,-0.4039976,2.7737646,0.6218176,0.17741548,-0.007426052,,,,
31616725,0.38806716,-0.42316145,2.8516176,0.6330029,0.26583233,-0.0095565785,4.326557,0.15460396,-44.19648,12.0
31616730,0.19044016,-0.46388453,3.006126,0.6420576,0.36277133,-0.0116871055,,,,
31616735,0.011977024,-0.51179415,3.276815,0.65910184,0.45757976,-0.014882896,5.0979614,-0.5869827,-45.252052,
31616740,-0.11498333,-0.6519296,3.6469164,0.68520075,0.541203,-0.0116871055,,,,
31616745,-0.24913013,-0.6950483,4.099662,0.7230177,0.59659666,-0.004762893,4.3282585,-0.5917072,-44.806847,
31616750,-0.29224873,-0.723794,4.6973333,0.7794766,0.6045862,0.0016286881,,,,
31616755,-0.32698318,-0.80164695,5.2638645,0.855643,0.55664927,0.008020269,5.560854,-1.4667501,-45.385124,
31616760,-0.2539211,-0.95016664,5.4950275,0.94299453,0.4581124,0.01441185,,,,
31616765,-0.22637308,-1.0891044,5.1836157,1.013302,0.32442185,0.017075008,5.0978413,-0.8748522,-44.78443,
31616770,-0.08264437,-1.1729462,4.5787573,1.0532494,0.18913339,0.012281323,,,,
31616775,-0.039525762,-1.2256467,4.1068482,1.0639019,0.07461755,0.0010960563,4.9449043,-1.0338621,-45.405464,14.0
31616780,-0.114983335,-1.1753416,3.8217864,1.0505861,-0.01859301,-0.008491315,,,,
31616785,-0.2120002,-1.0663474,3.7127922,1.0292809,-0.097955145,-0.00689342,4.484001,-1.4830923,-45.41172,
31616790,-0.27428266,-0.92621183,3.7523174,1.0042472,-0.15547936,0.005889742,,,,
31616795,-0.19762734,-0.9369915,3.8337638,0.98240936,-0.18104568,0.024531854,5.560854,-1.4667501,-45.385124,
31616800,-0.059887327,-1.0244265,4.051752,0.9674956,-0.15494673,0.034651857,,,,
31616805,0.08384137,-1.1501892,4.310464,0.9760177,-0.06546461,0.039445546,5.408663,-1.92521,-46.312187,
31616810,0.033536337,-1.0962908,4.64104,0.99519247,0.08047649,0.048500285,,,,
31616815,-0.047909938,-1.0232288,5.0219207,1.023422,0.25091866,0.07193608,4.9472675,-2.5125856,-45.697807,
31616820,-0.21559343,-1.0004717,5.41957,1.0511187,0.4144366,0.10495924,,,,
31616825,-0.15331098,-1.0316129,5.744158,1.0857399,0.5529209,0.13531925,5.10178,-4.2559958,-44.12612,18.0
31616830,-0.18325448,-0.95256215,6.0232306,1.1166326,0.662643,0.1528961,,,,
31616835,-0.32698318,-0.70942116,6.225649,1.1400683,0.73188514,0.15928768,6.179392,-3.670864,-45.49897,
31616840,-0.5473672,-0.25787342,6.5035243,1.1432642,0.7297546,0.16248347,,,,
31616845,-0.6934914,0.14696246,6.7502584,1.1097083,0.62589145,0.16727716,6.6406155,-3.081172,-45.958626,
31616850,-0.7509829,0.39130127,6.7766085,1.0271504,0.4245566,0.17952769,,,,
31616855,-0.72343487,0.32542562,6.7251062,0.8891988,0.14865337,0.19444138,6.639452,-3.3551445,-44.5626,
31616860,-0.428791,-0.20397514,6.8149366,0.7001145,-0.17039305,0.2082898,,,,
31616865,0.17606731,-1.099884,7.024541,0.47374597,-0.49103737,0.2082898,6.17898,-4.2442865,-44.40899,
31616870,0.7258296,-2.0964031,7.5228004,0.23938802,-0.72805846,0.17260347,,,,
31616875,1.1450384,-2.970753,8.218687,0.018878467,-0.81114906,0.0975024,5.100975,-3.666359,-44.132973,23.0
31616880,1.325897,-3.5360858,9.203228,-0.17446685,-0.6982311,0.0010960563,,,,
31616885,1.5558629,-3.7253287,10.629736,-0.31401637,-0.42818683,-0.11927872,6.3384476,-6.487831,-46.70051,
31616890,1.4432755,-3.5372837,12.561689,-0.35715955,-0.082508825,-0.2513714,,,,
31616895,0.7773324,-3.136041,14.905665,-0.27673215,0.2652997,-0.3408535,6.336012,-6.4554043,-44.53425,
31616900,0.18684699,-2.78151,17.64729,-0.09670263,0.50551665,-0.36109355,,,,
31616905,-0.45035034,-2.601849,20.307468,0.13552481,0.5433335,-0.32593986,3.7210464,-5.051113,-46.627495,
31616910,-1.1845646,-2.313194,22.445435,,,,,,,
31616915,-1.710372,-1.9263241,23.098202,0.376807,0.37715238,-0.23752297,5.255123,-4.3918047,-43.501686,
31616920,-2.298462,-1.5502341,22.534067,0.61009973,0.1140323,-0.10489767,,,,
31616925,-2.4853094,-1.3226635,21.306385,0.81196713,-0.113401465,0.06234871,5.719349,-4.999917,-45.185493,25.0
31616930,-1.8744622,-1.2316353,19.506182,0.94778824,-0.25827733,0.26368353,,,,
31616935,-0.86955905,-1.3502116,17.756285,0.98613775,-0.2966268,0.4660836,4.335573,-5.3203783,-45.525734,
31616940,0.17367181,-1.4975336,16.44476,0.90411246,-0.22259095,0.63066685,,,,
31616945,1.1677954,-1.6436577,15.352423,0.72141975,-0.06333408,0.7462479,3.8732243,-5.4608936,-44.607033,
31616950,2.0972412,-1.7406745,15.027835,0.4774744,0.15184917,0.8021742,,,,
31616955,2.8649921,-1.8293074,15.672218,0.19517958,0.38620713,0.80110896,5.7223244,-6.0526257,-46.56611,
31616960,3.3728333,-1.9898045,16.789711,-0.09137631,0.55718195,0.7419869,,,,
31616965,3.6183698,-1.8592509,17.87486,-0.35929006,0.6045862,0.6317321,6.3372307,-6.4716187,-45.617393,
31616970,3.631545,-1.6352735,18.789934,-0.60003966,0.52735454,0.48738885,,,,
31616975,3.5009913,-1.3801551,19.150454,-0.807766,0.36170605,0.3238709,5.719944,-6.3103848,-44.086952,28.0
31616980,3.1656246,-1.0926976,19.61398,-0.985665,0.16356707,0.15129821,,,,
31616985,2.7332406,-0.7094211,20.379333,-1.1443893,-0.025517223,-0.009023948,4.953455,-6.79208,-45.95762,
31616990,2.2325854,-0.36806545,21.06444,-1.2679598,-0.19755727,-0.140584,,,,
31616995,1.661264,-0.07102607,21.428555,-1.351583,-0.33976996,-0.23699035,6.3346024,-5.42354,-44.54624,
31617000,1.1665976,0.10025064,21.41418,-1.3904651,-0.43244788,-0.29451457,,,,
31617005,0.75936633,0.05713202,21.230927,-1.4016504,-0.4644058,-0.31102616,5.5649815,-3.1137285,-47.06835,
31617010,0.5078411,-0.3345287,21.003357,-1.3952588,-0.4361763,-0.29451457,,,,
31617015,0.30542314,-0.8902797,20.748238,-1.3776821,-0.35468367,-0.2604261,4.0248184,-3.691967,-44.778496,
31617020,-3.5762787E-7,-1.4639969,20.453594,-1.3526484,-0.23217833,-0.22900087,,,,
31617025,-0.39884755,-2.0017817,20.030792,-1.3174946,-0.09156356,-0.1959777,4.9486675,-4.4126883,-44.592415,25.0
31617030,-0.95579624,-2.44255,19.56487,-1.282341,0.036800694,-0.15603031,,,,
31617035,-1.4708242,-2.5814877,18.986362,-1.2668946,0.1273481,-0.102234505,4.6382656,-1.9206686,-45.24804,
31617040,-1.8780556,-2.7276118,18.34797,-1.2791451,0.16889338,-0.02127448,,,,
31617045,-1.8924284,-2.7982783,17.906002,-1.3249514,0.16356707,0.08471924,5.410074,-2.9570732,-46.300194,
31617050,-1.5355022,-2.8066626,17.479607,-1.3915304,0.12521756,0.20562665,,,,
31617055,-0.65037274,-2.7156343,17.176579,-1.4527831,0.066095434,0.32440352,5.100178,-2.2084827,-45.233223,
31617060,0.48268855,-2.71803,17.168194,-1.5076442,-0.012734059,0.42240778,,,,
31617065,1.758281,-2.836606,16.956196,-1.5348084,-0.10434672,0.4809973,6.1770763,-0.60075283,-47.237007,
31617070,3.0051274,-3.0438151,16.53579,-1.5198947,-0.19223095,0.49750885,,,,
31617075,4.20646,-3.3408544,15.959676,-1.4783494,-0.25348362,0.46874672,5.4039497,-0.8493357,-43.38424,20.0
31617080,5.254482,-3.6390915,15.296128,-1.4144336,-0.2683973,0.3973741,,,,
31617085,6.0557694,-3.9505033,14.559519,-1.337202,-0.23537412,0.28552142,2.9442024,-0.32948303,-45.61814,
31617090,6.300108,-4.210413,13.558208,-1.2466545,-0.15707725,0.13425398,,,,
31617095,6.0881085,-4.330187,12.459883,-1.1678251,-0.035104595,-0.03725343,5.5587845,0.2975254,-45.71514,
31617100,5.338323,-4.1708875,11.432221,-1.1140293,0.13533759,-0.21728298,,,,
31617105,4.2579627,-3.8019838,10.808199,-1.0911261,0.3404008,-0.3855946,5.4064484,-0.30371094,-46.331017,
31617110,2.979975,-3.3899617,10.768673,-1.0953871,0.5550514,-0.5299378,,,,
31617115,1.9271619,-3.0090806,10.98786,-1.1103008,0.74093986,-0.6407252,5.093731,2.508607,-45.288002,
31617120,0.9522023,-2.7611487,11.30047,-1.1118987,0.86344516,-0.71103257,,,,
31617125,-0.24314144,-2.3383465,11.569962,-1.0953871,0.90712106,-0.7445884,5.093731,2.508607,-45.288002,14.0
31617130,-1.214508,-1.8508667,11.749622,-1.062364,0.866641,-0.745121,,,,
31617135,-1.8517053,-1.3597934,11.949644,-1.0224167,0.74147254,-0.7222178,6.1706657,2.0896711,-44.792076,
31617140,-2.3068461,-0.93818927,11.965216,-0.96808815,0.5491924,-0.6801399,,,,
31617145,-2.656586,-0.5908449,11.919702,-0.89351976,0.31909552,-0.62368095,6.479208,2.082759,-45.558144,
31617150,-2.836247,-0.35009935,11.779566,-0.7944502,0.081541754,-0.54644936,,,,
31617155,-2.9356594,-0.08779444,11.51247,-0.6671512,-0.14695725,-0.45323884,5.7085533,2.5248938,-44.808617,
31617160,-2.8937383,0.1601376,11.080086,-0.51322067,-0.3472268,-0.34990826,,,,
31617165,-2.706891,0.3589623,10.51116,-0.3427785,-0.50169,-0.23059876,6.785471,3.1192918,-45.562523,
31617170,-2.3224168,0.4008832,9.773354,-0.16914055,-0.5949005,-0.10329977,,,,
31617175,-1.8361347,0.46436337,9.155319,0.0023668825,-0.62366265,0.01760764,3.7099037,2.4783306,-45.94114,11.0
31617180,-1.4097395,0.5230526,8.544472,0.16748273,-0.59330267,0.12626451,,,,
31617185,-0.90908444,0.5817418,7.9060774,0.31715226,-0.52299523,0.2200077,5.4014034,2.513276,-45.280403,
31617190,-0.4767006,0.6308491,7.2928348,0.45403862,-0.42019737,0.29457617,,,,
31617195,-0.089830816,0.6739677,6.679592,0.5797397,-0.30408365,0.35476354,4.6321144,3.0819745,-45.925194,
31617200,0.23116332,0.63683784,6.0304174,0.692125,-0.19223095,0.4042983,,,,
31617205,0.5365868,0.5422164,5.3752537,0.78373766,-0.09848778,0.44637623,5.246727,2.37743,-44.354103,
31617210,0.7761346,0.49790007,4.769198,0.8492514,-0.023386694,0.47140992,,,,
31617215,0.96417975,0.5038888,4.218238,0.88653564,0.029876482,0.47886676,5.095085,1.7669287,-45.58892,
31617220,1.0408351,0.5338322,3.7103968,0.8966556,0.05491017,0.47034463,,,,
31617225,1.2216936,0.5314368,3.1774027,0.88120925,0.045855433,0.44584358,4.636051,-0.29916954,-45.26687,
31617230,1.3199084,0.54940283,2.5785332,0.8359356,0.009636473,0.40696147,,,,
31617235,1.4241116,0.5769509,2.1030304,0.7608345,-0.03936565,0.35795936,4.174204,0.56670094,-46.062218,
31617240,1.5163376,0.7386457,1.7928159,0.6702871,-0.08517198,0.30150038,,,,
31617245,1.6037724,0.69073606,1.6622623,0.57920706,-0.122988835,0.24610665,3.8696804,-0.49299526,-47.605156,
31617250,1.4839985,0.4440018,1.6790307,0.49505123,-0.15015304,0.1864519,,,,
31617255,1.2863717,0.54461193,1.8515052,0.42154807,-0.17252357,0.12519926,5.0963593,1.4605303,-46.359154,
31617260,1.2468462,0.7769733,2.055121,0.36562175,-0.18956779,0.083121344,,,,
31617265,1.1725864,0.7769733,2.2036405,0.32407644,-0.20235096,0.067675024,5.4064484,-0.30371094,-46.331017,
31617270,1.0468237,0.6607926,2.3892903,0.28412908,-0.2114057,0.06341397,,,,
31617275,0.8324284,0.50628424,2.570149,0.25483432,-0.22418886,0.06288134,5.097559,-0.29216576,-45.25547,12.0
31617280,0.6228241,0.44160634,2.745019,0.23832275,-0.23111306,0.06607713,,,,
31617285,0.38806713,0.4416063,2.9162955,0.23406169,-0.2215257,0.07832766,5.096899,0.44024658,-45.57351,
31617290,0.25392035,0.47274753,2.9749846,0.24045327,-0.19595936,0.09963293,,,,
31617295,0.20481305,0.42004701,2.9749846,0.25696486,-0.15015304,0.12839504,4.63715,-0.60325146,-45.882393,
31617300,0.31979603,0.26194543,3.0360694,0.28040066,-0.091030926,0.1582224,,,,
31617305,0.48508403,-0.018325552,3.1163177,0.30703226,-0.0074077426,0.17952769,5.713516,0.14318657,-46.328545,
31617310,0.56413484,-0.27464175,3.4337187,0.34751227,0.10817335,0.18591927,,,,
31617315,0.61563766,-0.4962235,3.9487467,0.41089544,0.23440708,0.17686453,4.9451237,0.55521107,-47.590553,
31617320,0.66714036,-0.75253963,4.441017,0.48652914,0.3505208,0.15236346,,,,
31617325,0.650372,-0.9597486,4.9284973,0.5712176,0.43733978,0.11241609,6.327965,0.30919838,-45.696144,
31617330,0.5246094,-0.9980762,5.3860335,0.6654934,0.48208085,0.06288134,,,,
31617335,0.3138073,-0.8663249,5.56809,0.7693566,0.4762219,0.014944481,4.9419384,0.8870897,-45.118248,
31617340,0.15091477,-0.72618943,5.655525,0.8748177,0.43041557,-0.019143952,,,,
31617345,0.074259475,-0.5441331,5.5333557,0.9765504,0.34679237,-0.042579748,6.0200806,-0.41630173,-44.612038,
31617350,0.040722772,-0.44352302,5.310576,1.0793482,0.22908077,-0.059091326,,,,
31617355,-0.025152892,-0.31895813,4.9404745,1.1789504,0.093259655,-0.07240713,4.947075,-1.4969349,-46.792915,
31617360,-0.13774037,-0.13809949,4.482938,1.2694978,-0.053214073,-0.07933134,,,,
31617365,-0.27428263,-0.09018992,3.9391646,1.3366095,-0.18424147,-0.094245024,6.6377964,-1.0174465,-45.982582,
31617370,-0.3425538,-0.12492435,3.5331311,1.3845463,-0.31367102,-0.09744082,,,,
31617375,-0.2539211,-0.1752294,3.0456514,1.4106452,-0.45215526,-0.077200815,4.9459114,-1.7709074,-45.396904,15.0
31617380,-0.081446625,-0.1908,2.4431884,1.4165043,-0.58424795,-0.05056922,,,,
31617385,0.0754572,-0.17043845,1.5927935,1.3893399,-0.7115469,-0.036188163,5.7150097,-1.3239546,-45.847237,
31617390,0.2766774,-0.07701476,0.86456805,1.3158368,-0.8303238,-0.033525005,,,,
31617395,0.4994569,0.012815662,0.43937063,1.195462,-0.93525225,-0.047373433,4.4845963,-2.793559,-44.31318,
31617400,0.38207847,0.17690596,0.55315584,1.0644345,-1.0162123,-0.07293976,,,,
31617405,0.5389823,0.17091724,0.7256303,0.9445924,-1.0566925,-0.08412502,4.640236,-2.236333,-46.63723,
31617410,0.912677,-0.00515043,0.6801162,0.8401966,-1.0449746,-0.09797345,,,,
31617415,1.2085185,-0.28302595,0.7184439,0.7533777,-0.97040594,-0.13259453,4.4897327,-5.1775837,-45.987846,
31617420,1.4277048,-0.54772633,0.8573816,0.67614603,-0.827128,-0.1842598,,,,
31617425,1.5115466,-0.7848787,1.1280706,0.6148934,-0.6199342,-0.23858824,3.2569103,-4.0100403,-45.56774,21.0
31617430,1.5870042,-0.97412145,1.484997,0.5728155,-0.35628155,-0.2865251,,,,
31617435,1.5941906,-1.164562,2.1820812,0.560565,-0.035104595,-0.3317988,5.103409,-3.6987877,-46.299232,
31617440,1.57862,-1.2615788,3.818193,0.58826184,0.31909552,-0.379203,,,,
31617445,1.1318634,-1.0699406,7.919252,0.69745135,0.6093799,-0.42980304,3.4108295,-4.4429827,-45.094612,
31617450,0.027547643,-0.46628004,10.947138,0.93074405,0.6397399,-0.45590198,,,,
31617455,-0.12456525,-0.47945517,8.790009,1.1912009,0.43201345,-0.43193355,3.41288,-5.193926,-46.014442,
31617460,-0.23116404,-0.273444,7.261693,1.3557842,0.25251657,-0.41382405,,,,
31617465,-0.5413785,0.35656682,7.1191626,1.4628431,0.15504496,-0.4058346,4.3332043,-4.709896,-44.13999,
31617470,-0.86476815,1.026103,7.144315,1.5672389,0.04159438,-0.37440932,,,,
31617475,-1.1366549,1.3734474,6.9718404,1.6306221,-0.15068567,-0.31315666,3.416504,-7.847288,-45.98362,26.0
31617480,-1.1701916,1.375843,6.4460325,1.596001,-0.4526879,-0.23539245,,,,
31617485,-0.9593895,1.200973,5.2387114,1.4255589,-0.8223343,-0.17094402,3.2593822,-6.0691338,-45.234306,
31617490,-0.5797062,0.94585454,3.7187808,1.1102409,-1.1728061,-0.14537768,,,,
31617495,-0.088633075,0.77936876,2.358149,0.6750808,-1.4060988,-0.15336716,4.187771,-7.863411,-47.821434,
31617500,0.49227047,0.43561763,1.4969743,0.1536343,-1.4279367,-0.17680296,,,,
31617505,1.2013321,-0.45070946,1.2155056,-0.4034985,-1.1930461,-0.19810823,3.874754,-6.2048893,-45.06266,
31617510,2.0948458,-1.5622115,2.8025103,-0.94625026,-0.7275259,-0.23113139,,,,
31617515,2.805105,-2.400629,6.878417,-1.3776821,-0.15494673,-0.30463454,3.2585678,-6.3477383,-44.147743,
31617520,2.915297,-2.939612,12.081396,-1.6040504,0.36330396,-0.419683,,,,
31617525,2.529625,-3.259408,16.68311,-1.6429327,0.71004725,-0.55869985,3.874443,-5.477108,-45.690163,31.0
31617530,1.8552978,-3.4929671,21.792665,-1.5364063,0.8762284,-0.68120515,,,,
31617535,1.0348463,-3.5241084,24.569025,-1.2423936,0.8783589,-0.7632305,3.8726292,-4.150427,-45.705574,
31617540,0.0083838105,-3.1480184,25.78473,-0.77580816,0.77928936,-0.78453577,,,,
31617545,-1.2396605,-2.533578,26.995646,-0.21654476,0.58860725,-0.7419252,4.025936,-5.009383,-44.144157,
31617550,-2.1703038,-1.8652396,26.927374,0.34378386,0.27914813,-0.63806206,,,,
31617555,-2.6781454,-1.2723585,26.018291,0.81303245,-0.07558461,-0.476142,4.9483204,-4.4080553,-44.28295,
31617560,-2.918891,-0.73577136,24.16898,1.1597757,-0.37652156,-0.27107877,,,,
31617565,-2.744021,-0.37046087,21.704033,1.3765569,-0.5640079,-0.041514482,2.6426277,-5.046609,-45.261482,
31617570,-1.985852,-0.20397514,19.052238,1.4383421,-0.60182476,0.19976768,,,,
31617575,-0.71744615,-0.35968125,16.50824,1.3461968,-0.5006247,0.4154836,4.1799526,-4.1411247,-45.388496,
31617580,0.930643,-0.7202007,14.637371,1.1208935,-0.30408365,0.57207733,,,,
31617585,2.6098735,-1.1957033,13.723496,0.8045103,-0.0553446,0.65676576,4.185749,-7.2575607,-46.74514,
31617590,4.1118383,-1.6652169,13.725892,0.45403862,0.19392708,0.66155946,,,,
31617595,5.3035893,-1.913149,14.317575,0.08172902,0.3941966,0.5864584,3.1051712,-5.9217434,-45.08509,
31617600,5.993487,-1.9179399,15.456625,-0.28365636,0.510843,0.43891937,,,,
31617605,6.2929215,-1.8089457,16.897505,-0.62134486,0.5337462,0.24557403,4.0305862,-6.663311,-46.291588,
31617610,6.2426167,-1.6712058,18.398273,-0.908966,0.47089556,0.028260278,,,,
31617615,5.7994533,-1.5166974,19.715786,-1.1214861,0.35211867,-0.19544508,3.258915,-6.352371,-44.457207,
31617620,5.087996,-1.274754,20.833277,-1.2626336,0.21363445,-0.4042367,,,,
31617625,4.2376013,-1.0663474,21.722,-1.3350714,0.08313965,-0.5784073,3.2591248,-5.6315384,-45.548912,
31617630,3.3991838,-0.8555453,22.510113,-1.3553114,-0.021256167,-0.7094347,,,,
31617635,2.4721334,-0.6974437,23.57011,-1.3249514,-0.081443556,-0.7983842,3.719637,-4.01925,-46.639473,
31617640,1.3678179,-0.36566994,24.477997,-1.2322735,-0.113401465,-0.84365785,,,,
31617645,0.21439494,0.1876856,24.634901,-1.0889956,-0.12245621,-0.82608104,2.3324566,-2.8470907,-45.75898,
31617650,-0.73181903,0.79374164,24.795399,-0.91695553,-0.10434672,-0.74086,,,,
31617655,-1.3498526,1.1626453,24.743896,-0.73745865,-0.092096195,-0.59704936,2.9462643,-2.961998,-44.194725,
31617660,-1.4205191,1.1195269,24.233658,-0.5659512,-0.105411984,-0.42554197,,,,
31617665,-1.1654007,0.69432926,23.216778,-0.41468376,-0.1240541,-0.25723034,3.8718777,-3.850975,-45.39953,
31617670,-0.6180338,0.08947098,21.698044,-0.2959069,-0.12991305,-0.1155503,,,,
31617675,-0.18325448,-0.36447218,20.49312,-0.22986056,-0.11872778,-0.02180711,3.7173576,-2.9758043,-45.8778,
31617680,0.27907288,-0.8339859,19.25226,-0.2138816,-0.093161464,0.016009746,,,,
31617685,0.7581686,-1.3286523,17.72155,-0.2458395,-0.07771514,0.0037592151,2.7943668,-3.1349049,-45.74415,
31617690,1.0851514,-1.5322678,16.320196,-0.3294627,-0.09262883,-0.044710275,,,,
31617695,1.1713886,-1.3705732,15.202705,-0.44877222,-0.14642462,-0.09957135,2.7964344,-4.8991814,-45.41413,
31617700,1.238462,-0.99927396,14.342728,-0.589387,-0.23058045,-0.14484505,,,,
31617705,1.3630269,-0.70463014,13.673191,-0.7273387,-0.33018258,-0.17786823,2.025589,-3.4413967,-45.759727,
31617710,1.426507,-0.51299185,13.168943,-0.8546376,-0.42978472,-0.1975756,,,,
31617715,1.4947782,-0.46029133,12.547317,-0.9696861,-0.4963637,-0.1975756,3.2556553,-1.9671593,-46.984306,
31617720,1.6648571,-0.5070032,12.017916,-1.0676904,-0.50382054,-0.1826619,,,,
31617725,1.9403372,-0.7058279,11.599905,-1.149183,-0.43564367,-0.16774821,3.1028538,-2.8516312,-46.823097,27.0
31617730,2.0577154,-0.971726,11.241781,-1.2088376,-0.2902352,-0.1554977,,,,
31617735,2.152337,-1.2951156,10.844131,-1.246122,-0.086237244,-0.1475082,3.098524,-1.0572443,-45.14158,
31617740,2.225399,-1.587364,10.669262,-1.2605029,0.1625018,-0.1475082,,,,
31617745,2.12958,-1.8400869,10.834549,-1.250383,0.424024,-0.1640198,2.6403675,-2.2666826,-46.686623,
31617750,1.836134,-2.0173523,11.21064,-1.1976525,0.668502,-0.19704297,,,,
31617755,1.321106,-2.024539,11.77717,-1.1156272,0.85918415,-0.22793561,2.329691,-1.0735502,-45.470055,
31617760,0.75217986,-1.9323128,12.298187,-1.0027093,0.95505786,-0.2513714,,,,
31617765,0.23355877,-1.8496689,12.421555,-0.8791387,0.9401442,-0.26255667,2.9443588,0.68153477,-47.022728,
31617770,-0.20720926,-1.5670023,12.324537,-0.75450283,0.8352157,-0.26095876,,,,
31617775,-0.5473672,-1.3514094,12.1975765,-0.6293344,0.6589146,-0.24657772,3.4046764,0.55965996,-45.77175,23.0
31617780,-0.8180563,-1.1717484,11.852628,-0.5004375,0.4293503,-0.22846824,,,,
31617785,-1.0192765,-0.9729237,11.201057,-0.3747364,0.17688286,-0.19704297,4.331005,-1.3519154,-46.34562,
31617790,-1.1582142,-0.6974437,10.359047,-0.25595954,-0.065997235,-0.14537768,,,,
31617795,-1.0456266,-0.5632969,9.39846,-0.1563574,-0.27052784,-0.08625556,3.0962524,0.85444164,-45.473305,
31617800,-0.846802,-0.5285625,8.50375,-0.06900577,-0.4175342,-0.027133426,,,,
31617805,-0.7126552,-0.50820094,7.777919,0.0060953046,-0.50169,0.026662381,4.3299446,-0.3246851,-46.667076,
31617810,-0.6839095,-0.2327209,7.102394,0.06841322,-0.5331152,0.08791503,,,,
31617815,-0.6827117,0.09545966,6.5370607,0.11635008,-0.51766896,0.15662453,4.323818,1.7830515,-43.75112,
31617820,-0.58210164,0.34818268,6.050779,0.15097114,-0.4542858,0.24078034,,,,
31617825,-0.36650857,0.45837468,5.678282,0.18239641,-0.3488247,0.32600144,3.249998,0.42381287,-44.845436,20.0
31617830,-0.18564995,0.44280404,5.4315476,0.21648484,-0.21992779,0.4027004,,,,
31617835,-0.019164197,0.4044764,5.20278,0.25323644,-0.082508825,0.4730078,2.1746101,-0.91457653,-44.547157,
31617840,0.14492609,0.35417134,5.0446777,0.28839013,0.052779645,0.53213,,,,
31617845,0.34973952,0.3589623,5.0195255,0.32887015,0.1758176,0.5816647,5.4055786,-0.29212952,-45.55735,
31617850,0.51023656,0.41046512,5.0782146,0.37787226,0.26956075,0.61681837,,,,
31617855,0.6934906,0.3793239,5.1967907,0.43273333,0.33294395,0.63226473,5.4055786,-0.29212952,-45.55735,
31617860,0.80128723,0.36854422,5.2890167,0.4945186,0.36809763,0.63492787,,,,
31617865,0.962982,0.3673465,5.205175,0.55896705,0.37289134,0.6264058,6.0217037,-0.727334,-45.69175,
31617870,1.055208,0.34818268,4.984791,0.6186218,0.3638366,0.6093615,,,,
31617875,1.2971513,0.26314318,4.5128818,0.6697545,0.3419987,0.58379525,3.8679981,-0.76001835,-45.74494,
31617880,1.5067556,0.2727251,4.00504,0.70171237,0.32122603,0.53958684,,,,
31617885,1.6480888,0.2308042,3.3906002,0.70703864,0.3041818,0.47354043,4.635931,-0.58703804,-44.799248,
31617890,1.7498968,0.24757257,2.6839342,0.67561346,0.27968076,0.39577618,,,,
31617895,1.771456,0.2859002,1.9077989,0.5994471,0.23653762,0.30629405,4.1773796,-3.383233,-44.004463,
31617900,1.7331283,0.24757257,1.3556411,0.4801376,0.16995865,0.21042034,,,,
31617905,1.6576707,0.10384385,1.0705792,0.32407644,0.07834596,0.10282872,4.484459,-2.0680952,-45.095406,
31617910,1.4804053,0.70870215,1.0190763,0.16801535,-0.0217888,0.014944481,,,,
31617915,1.3031399,0.94944775,0.92804825,0.030596366,-0.10860778,-0.041514482,4.9453526,-2.4871063,-43.995735,
31617920,1.1043152,0.9410636,1.0418334,-0.08391946,-0.1746541,-0.08412502,,,,
31617925,0.6371969,0.94944775,1.429901,-0.16541213,-0.22418886,-0.10170187,4.1759815,-1.4831285,-45.109856,
31617930,0.54018,0.5386232,1.6850194,-0.21228372,-0.25880992,-0.103832394,,,,
31617935,0.572519,0.24397935,1.9317539,-0.24104583,-0.26040784,-0.11927872,4.3288536,-1.902175,-43.70832,
31617940,0.4216039,0.41166285,2.3473692,-0.24157846,-0.22578676,-0.11981135,,,,
31617945,0.42759252,0.47993398,2.6072788,-0.2170774,-0.1629362,-0.0937124,3.7151947,-1.6444902,-45.583733,
31617950,0.5485642,0.15893985,2.821674,-0.18991317,-0.08357409,-0.06814607,,,,
31617955,0.87315154,-0.40519536,2.7653804,-0.1702058,0.00857121,-0.07453765,3.712513,-0.30622864,-44.825478,
31617960,1.1079085,-0.9106413,2.464748,-0.17979318,0.096988074,-0.11821345,,,,
31617965,1.2708011,-1.1849235,2.2048383,-0.2271974,0.19073127,-0.1874556,4.1763287,-1.4877615,-45.41932,
31617970,1.1618066,-1.2460082,2.068296,-0.28152585,0.30844286,-0.26841563,,,,
31617975,0.8479991,-1.063952,2.1305785,-0.32147324,0.44213346,-0.3302009,5.1001205,-1.9182978,-45.54612,
31617980,0.50065464,-0.8806978,2.4300132,-0.34437642,0.56570405,-0.36801773,,,,
31617985,0.23834974,-0.7836809,3.0899677,-0.33052796,0.6658388,-0.3808009,5.2522297,-1.02456,-45.088387,
31617990,-0.03593254,-0.7752967,4.039775,-0.26661214,0.72655886,-0.37334406,,,,
31617995,-0.32937866,-0.7621216,5.241107,-0.14623737,0.739342,-0.34937564,4.481024,-0.43038273,-44.031105,
31618000,-0.7054688,-0.71780527,6.3585978,0.015150045,0.6972641,-0.3067651,,,,
31618005,-1.0971296,-0.64713866,7.0999985,0.21701747,0.60352093,-0.2481756,5.5590954,-0.43025398,-45.08764,
31618010,-1.4061463,-0.5620992,7.29523,0.43859228,0.4895377,-0.17360716,,,,
31618015,-1.6337167,-0.5201783,7.185038,0.6644281,0.38727236,-0.08519029,5.4063835,-0.8817644,-45.5505,
31618020,-1.710372,-0.49981672,6.899976,0.8849377,0.306845,0.004291847,,,,
31618025,-1.6780331,-0.5201783,6.198101,1.0868051,0.24612498,0.09217609,5.4097633,-2.2292929,-46.927696,
31618030,-1.4995699,-0.5597037,5.030305,1.2327462,0.19179654,0.1662119,,,,
31618035,-1.1522255,-0.63276577,3.7367468,,,,5.4073277,-2.196865,-44.76142,
31618040,-0.69229364,-0.6207884,2.5785332,1.3019884,0.13320705,0.2184098,,,,
31618045,-0.23355952,-0.5668902,1.5999799,1.292401,0.06556281,0.23598665,5.4088573,-2.9408588,-45.217064,
31618050,0.116180345,-0.47226873,0.80108786,1.2194304,-0.026582487,0.22799718,,,,
31618055,0.36051914,-0.4746642,0.45853445,1.0942619,-0.1528162,0.19923507,5.562319,-2.7887983,-45.06025,
31618060,0.50424784,-0.31536487,0.57471514,0.93926615,-0.30301836,0.15236346,,,,
31618065,0.6348014,-0.14768139,0.57351744,0.7954555,-0.46334052,0.10016556,5.25494,-2.5079165,-45.69021,
31618070,0.79050756,-0.1452859,0.67292976,0.67454815,-0.6076837,0.054359235,,,,
31618075,0.8468013,-0.22553444,1.0178788,0.5802723,-0.7051553,0.017075008,4.63962,-2.6623468,-45.548958,
31618080,0.88991994,-0.34171516,1.5999799,0.5200849,-0.7397764,-0.017013421,,,,24.0
31618085,0.74259794,-0.40998632,2.4527702,0.5067692,-0.68171954,-0.047373433,4.6407757,-3.2566156,-45.85157,
31618090,0.42639482,-0.36926314,3.6564984,0.55257547,-0.5208647,-0.07560292,,,,
31618095,0.3030277,-0.3872292,5.4471183,0.6452534,-0.28810468,-0.08412502,4.9478607,-3.8230515,-44.599266,
31618100,-0.081446625,-0.24350053,8.325286,0.77308506,-0.05587723,-0.07240713,,,,
31618105,-0.64917505,0.3122505,9.454754,0.9291462,0.027213322,-0.05323238,4.4892483,-4.447488,-46.46061,
31618110,-0.5653333,0.77457786,7.7803144,1.1038493,-0.056942496,-0.01648079,,,,
31618115,-0.3856724,1.0177188,6.684383,1.2476599,-0.086237244,0.025597116,5.2590313,-4.878042,-46.436485,
31618120,-0.46592093,1.3770406,5.929807,1.3818831,0.04745333,0.060750812,,,,
31618125,-0.47550285,1.5087919,4.827887,1.5150411,0.24719025,0.10762241,4.3382015,-6.368456,-46.596886,
31618130,-0.14852004,1.5075943,3.7475266,1.5944031,0.40697977,0.17739716,,,,30.0
31618135,0.33297116,1.4273458,3.1031427,1.5528579,0.4852766,0.23225823,5.1025944,-3.9773922,-45.21267,
31618140,0.68031555,1.3207469,2.7378323,1.3866769,0.4698303,0.24291086,,,,
31618145,0.7713437,1.1087471,2.546194,1.1331441,0.3819461,0.20722453,6.0284595,-6.172205,-45.009468,
31618150,0.6012647,0.893154,2.698307,0.82475036,0.27222395,0.1363845,,,,
31618155,0.41082418,0.5254481,3.425335,0.4923881,0.18220916,0.058087658,5.412409,-7.040518,-43.312325,
31618160,0.2982367,0.043956883,4.7212887,0.16268905,0.11669545,-0.010621842,,,,
31618165,0.24433844,-0.38483375,6.563411,-0.14037843,0.05757333,-0.07293976,4.1813087,-4.882803,-45.689415,
31618170,0.17846277,-0.6495341,8.454641,-0.40083537,-0.014331955,-0.13046399,,,,
31618175,0.12935546,-0.75014424,9.951817,-0.6005723,-0.10487936,-0.17733559,5.104286,-5.591942,-44.729652,
31618180,0.14612384,-0.7872741,11.472944,-0.74811125,-0.1831762,-0.2076956,,,,35.0
31618185,0.16169444,-0.78368086,13.475565,-0.8429197,-0.23430885,-0.2210114,4.3332043,-4.709896,-44.13999,
31618190,0.04551372,-0.77888995,15.599155,-0.8871281,-0.27585417,-0.21888088,,,,
31618195,-0.18564996,-0.82320625,17.3766,-0.85517025,-0.2950289,-0.20982613,4.9496746,-5.1497335,-44.583855,
31618200,-0.5042486,-0.7321781,18.5432,-0.7433176,-0.2817131,-0.19118401,,,,
31618205,-0.74020326,-0.5345512,19.336102,-0.5728754,-0.22365622,-0.1475082,3.410307,-4.436034,-44.63041,
31618210,-0.88393193,-0.333331,19.919403,-0.38538903,-0.13364147,-0.07773344,,,,
31618215,-0.99412394,-0.22433671,19.837955,-0.20642477,-0.044691965,0.011748692,3.7196732,-6.0459156,-44.13978,
31618220,-0.9462144,-0.2914101,19.069008,-0.072201565,0.012299633,0.114013985,,,,
31618225,-0.74499416,-0.51299185,18.26772,-0.033319447,0.041061748,0.2184098,3.7178612,-4.7192345,-44.15519,
31618230,-0.41202268,-0.7633194,17.731133,-0.09989841,0.0570407,0.3073593,,,,
31618235,0.09701651,-1.0495791,17.443674,-0.2458395,0.07142176,0.37713408,4.179083,-4.1295433,-44.61483,
31618240,0.5521574,-1.3118839,17.168194,-0.44877222,0.10444492,0.42134252,,,,
31618245,0.9833436,-1.5789797,17.026861,-0.69325024,0.1726218,0.43678886,4.48888,-6.1793365,-43.964333,
31618250,1.3989592,-1.8053526,17.062794,-0.9574355,0.266365,0.42453828,,,,
31618255,1.9858514,-2.0868213,17.514343,-1.2344041,0.36649975,0.39151514,2.7951546,-5.4610233,-43.550484,
31618260,2.3020544,-2.350324,18.495289,-1.5017852,0.4597103,0.33026248,,,,
31618265,2.4385967,-2.5671148,19.83556,-1.73348,0.5348114,0.2519656,4.336113,-6.34066,-44.74009,
31618270,2.3559527,-2.8449903,21.405796,-1.9140421,0.5864767,0.16674452,,,,
31618275,2.142755,-3.1396341,22.959263,-2.018438,0.6136409,0.077262394,3.7161388,-2.959591,-44.794655,
31618280,1.8816481,-3.4354758,24.472008,-2.0450697,0.622163,-0.011154475,,,,31.0
31618285,1.5031624,-3.5696225,25.976368,-2.0109813,0.612043,-0.094777666,5.5605793,-2.7656355,-43.512917,
31618290,0.8432081,-3.377984,27.43761,-1.907118,0.5955314,-0.16934611,,,,
31618295,-0.0071868002,-2.9959054,28.579056,-1.7366759,0.561443,-0.22047876,5.0977516,-1.3078136,-44.160362,
31618300,-0.7952993,-2.5275893,29.346807,-1.515101,0.48687452,-0.22580509,,,,
31618305,-1.4456716,-2.1694655,29.59953,-1.258905,0.36703238,-0.17893349,4.480961,-1.0084381,-43.250587,
31618310,-1.8864398,-1.8616462,29.259373,-0.991524,0.21683022,-0.08146187,,,,
31618315,-1.8564962,-1.6688101,28.334717,-0.7422523,0.09272702,0.058087658,6.174347,-0.85387707,-44.44837,
31618320,-1.4863949,-1.6209006,27.048346,-0.5158838,0.022419637,0.21201822,,,,
31618325,-0.8599772,-1.7694204,25.53201,-0.32679957,0.01762595,0.34783933,4.9424686,-1.0014343,-43.23919,
31618330,-0.12097204,-1.9993863,24.071964,-0.18139108,0.08100913,0.45223516,,,,25.0
31618335,0.4934682,-2.308403,22.74487,-0.06367946,0.1859376,0.5225426,6.019678,-0.12148285,-44.61547,
31618340,1.0276599,-2.5467534,21.386631,0.03219426,0.30151868,0.5534352,,,,
31618345,1.418123,-2.6988661,19.89904,0.08918586,0.3910008,0.54225,6.02141,-1.012887,-45.06939,
31618350,1.651682,-2.682098,18.405458,0.097707964,0.42615452,0.49591094,,,,
31618355,1.7762469,-2.5683126,16.8999,0.042314265,0.38993555,0.41708145,5.5590954,-0.43025398,-45.08764,
31618360,1.8660773,-2.4952505,15.460218,-0.06900577,0.28607234,0.3105551,,,,
31618365,1.8085859,-2.4221883,14.104378,-0.21441424,0.1342723,0.18751717,6.174082,-1.284523,-43.66958,
31618370,1.588202,-2.1574879,13.010841,-0.38751957,-0.042028807,0.060750812,,,,
31618375,1.1306655,-1.6424599,12.04187,-0.579267,-0.23377623,-0.04044922,5.0970917,-0.5754013,-44.478386,
31618380,0.70546806,-1.031613,11.307656,-0.7800692,-0.4228605,-0.0937124,,,,23.0
31618385,0.5737167,-0.53934216,10.706391,-0.9920566,-0.58265,-0.09850608,4.0232697,-1.9346399,-45.572716,
31618390,0.69947934,-0.25547794,10.221308,-1.2003156,-0.68385005,-0.06708081,,,,
31618395,0.972564,-0.18361357,9.731432,-1.387802,-0.6891764,-0.019676583,4.3282585,-0.5917072,-44.806847,
31618400,1.2923603,-0.28901464,9.418821,-1.5406673,-0.5821174,0.04104344,,,,
31618405,1.5283148,-0.5489241,9.374506,-1.6567811,-0.3861089,0.110285565,5.244236,2.7000442,-42.500725,
31618410,1.8205633,-0.9777147,9.526619,-1.7350779,-0.13630462,0.1715382,,,,
31618415,2.1822805,-1.4807651,10.035658,-1.7766232,0.12628284,0.21414874,5.093813,2.073329,-44.818672,
31618420,2.47932,-1.9359062,10.917194,-1.7766232,0.36649975,0.22480139,,,,
31618425,2.6194553,-2.3527193,11.67656,-1.7265558,0.55718195,0.19710454,4.017212,0.75115204,-43.437263,
31618430,2.6829357,-2.5719056,12.010729,-1.640802,0.6961989,0.1363845,,,,18.0
31618435,2.6733537,-2.8222332,12.136492,-1.5268189,0.7670389,0.05595713,4.4774914,2.655943,-44.685997,
31618440,2.6230488,-3.0090804,12.229916,-1.3883346,0.7622452,-0.045775536,,,,
31618445,2.4733312,-3.1001086,12.21674,-1.2354692,0.6892746,-0.16188927,4.323223,3.0935197,-44.849648,
31618450,2.2026422,-3.0953178,11.959227,-1.0719513,0.5598451,-0.28812298,,,,
31618455,1.8505068,-3.0090804,11.444199,-0.908966,0.387805,-0.41169354,6.0132885,4.305421,-44.357353,
31618460,1.5355012,-2.873736,10.8704815,-0.75503546,0.19872077,-0.5262093,,,,
31618465,1.0420328,-2.638979,10.223703,-0.6154859,0.00857121,-0.63007253,5.397505,3.8677535,-43.43902,
31618470,0.5821009,-2.3670924,9.578121,-0.482328,-0.17199095,-0.7120978,,,,
31618475,0.0814459,-2.042505,8.948111,-0.3528985,-0.32219312,-0.76589364,6.1655865,4.1835093,-42.804512,
31618480,-0.50065535,-1.6340758,8.33367,-0.23465425,-0.4345784,-0.7882642,,,,12.0
31618485,-1.0983273,-1.2448106,7.6270037,-0.12120369,-0.5086142,-0.7738831,5.090994,4.137056,-44.842644,
31618490,-1.6528807,-0.9070481,6.97184,-0.012014176,-0.54376787,-0.7222178,,,,
31618495,-2.0888577,-0.6663025,6.1166544,0.07427216,-0.54163736,-0.63220304,4.4753857,3.697072,-44.079033,
31618500,-2.431411,-0.47226876,5.352497,0.13605745,-0.5027552,-0.5182199,,,,
31618505,-2.6781454,-0.29021236,4.7260795,0.17600484,-0.4175342,-0.38879037,5.092266,3.8306565,-45.612877,
31618510,-2.896134,-0.12731983,4.364362,0.19464694,-0.30461627,-0.25403455,,,,
31618515,-3.0722017,0.09785515,4.099662,0.19944063,-0.18157831,-0.11661556,4.628132,4.87173,-44.553123,
31618520,-3.2063484,0.32901883,3.9307806,0.1903859,-0.06759514,0.02985817,,,,
31618525,-3.1847892,0.5697644,3.7571084,0.16322167,0.025082795,0.17846242,4.166439,3.9988017,-43.3164,
31618530,-2.9105067,0.7434366,3.612182,0.13179639,0.09752071,0.32120773,,,,11.0
31618535,-2.4793205,0.7087022,3.583436,0.08971849,0.15717548,0.45915937,5.3983746,3.856172,-44.212685,
31618540,-2.0026202,0.5649735,3.709199,0.057760585,0.21203655,0.5752731,,,,
31618545,-1.4420784,0.36854422,3.8828712,0.039651103,0.260506,0.6674184,5.2460766,3.9780831,-45.76554,
31618550,-0.90908444,0.16852176,3.9535377,0.04071637,0.29033342,0.7297363,,,,
31618555,-0.32338995,0.011617936,3.943956,0.049771108,0.30151868,0.76329213,6.3260155,2.3613443,-46.493782,
31618560,0.18804471,-0.12492435,3.943956,0.059891112,0.30098605,0.7691511,,,,
31618565,0.627615,-0.29141015,3.9475489,0.083326906,0.2898008,0.74784577,5.707155,4.4249983,-45.91401,
31618570,0.9701684,-0.44472072,3.9164078,0.11368691,0.27328917,0.7057679,,,,
31618575,1.1905525,-0.57168114,3.7080011,0.1435143,0.24505973,0.6493089,6.1695213,3.5521803,-45.582863,
31618580,1.3426654,-0.7094211,3.4025776,0.16535221,0.20990603,0.58379525,,,,
31618585,1.4839985,-0.7417601,3.0827813,0.17280903,0.17208917,0.5113573,6.1695213,3.5521803,-45.582863,
31618590,1.5390947,-0.8124266,2.7785554,0.16748273,0.14226179,0.43678886,,,,
31618595,1.5534675,-0.92022324,2.578533,0.15469956,0.12628284,0.3606225,5.399994,3.5451398,-45.292397,
31618600,1.4576483,-0.9561554,2.5533805,0.13445956,0.11776071,0.28658667,,,,
31618605,1.2947557,-0.939387,2.6647701,0.115284815,0.1209565,0.21361612,6.322775,2.983409,-44.33436,
31618610,0.9965187,-0.87950003,2.9019227,0.10037113,0.12361966,0.14863504,,,,
31618615,0.62042856,-0.8339859,3.373832,0.09451217,0.1225544,0.09643714,7.55196,3.600987,-43.69187,
31618620,0.25990903,-0.73337585,3.9643173,0.10409954,0.11669545,0.067675024,,,,
31618625,-0.0059890673,-0.66270924,4.5548024,0.1403185,0.10870598,0.05968555,6.3201447,4.031486,-43.263206,
31618630,-0.1688816,-0.6567206,5.1117516,0.21222378,0.09272702,0.06341397,,,,10.0
31618635,-0.27428263,-0.6351613,5.4914346,0.3112933,0.060236488,0.0740666,5.7085533,2.5248938,-44.808617,
31618640,-0.28865552,-0.60881096,5.6076155,0.42580912,0.0032448927,0.093773976,,,,
31618645,-0.18325448,-0.6016246,5.5094004,0.5488471,-0.06919303,0.120938204,6.476984,2.836018,-44.483574,
31618650,-0.039525755,-0.6052178,5.182418,0.67081976,-0.14802252,0.14384136,,,,
31618655,0.07905042,-0.6195907,4.817107,0.7879987,-0.22791728,0.16248347,6.1706657,2.0896711,-44.792076,
31618660,0.23595425,-0.663907,4.3847237,0.89026403,-0.29556152,0.17526664,,,,
31618665,0.33177343,-0.70343244,3.9631195,0.97708297,-0.35415104,0.18006031,6.787842,2.5088081,-46.94828,
31618670,0.34255305,-0.6267771,3.5427132,1.0489882,-0.40528366,0.17686453,,,,
31618675,0.45633832,-0.62318385,2.9318662,1.0990556,-0.43990472,0.16674452,5.709076,2.5179453,-45.272804,
31618680,0.47071114,-0.5405399,2.4204316,1.1256872,-0.45694894,0.15236346,,,,11.0
31618685,0.37728748,-0.5285625,1.920974,1.1187631,-0.45002475,0.13585189,4.1717873,2.3356094,-46.082756,
31618690,0.5593438,-0.356088,1.5712342,1.0894682,-0.4276542,0.12040557,,,,
31618695,0.70307255,-0.2878169,1.2107147,1.0441946,-0.38770682,0.11348135,5.709755,0.77219963,-43.704933,
31618700,0.7138522,-0.26985082,0.9675736,0.99572515,-0.32432362,0.109220296,,,,
31618705,0.5617393,-0.3033875,0.869359,0.9355377,-0.24762465,0.105491884,5.0984116,0.70958614,-47.279,
31618710,0.42519706,-0.32734227,0.9891329,0.870024,-0.1693278,0.100698195,,,,
31618715,0.22637235,-0.36087897,1.1807711,0.809304,-0.092096195,0.0991003,5.5587845,0.2975254,-45.71514,
31618720,0.071863994,-0.32374904,1.6083641,0.7645629,-0.015397219,0.100698195,,,,
31618725,0.011977032,-0.3668677,2.0431435,0.73473555,0.048518594,0.10282872,6.3289165,-0.13766003,-46.000465,
31618730,0.031140864,-0.36447218,2.6264424,0.72514814,0.08686807,0.11135083,,,,15.0
31618735,0.023954429,-0.43274334,3.22651,0.7288766,0.098053336,0.11987294,5.4051113,-0.57536507,-44.78025,
31618740,-0.07665568,-0.4686755,3.966713,0.7672261,0.09219439,0.12732978,,,,
31618745,-0.21200022,-0.49023485,4.615887,0.8407293,0.064497545,0.14490661,4.944639,-1.4645071,-44.626656,
31618750,-0.3521357,-0.51538736,5.2051754,0.9397988,0.010701737,0.16994031,,,,
31618755,-0.3976498,-0.47705972,5.535751,1.0580431,-0.07132355,0.20243084,4.9427433,0.29745293,-45.111397,
31618760,-0.38447466,-0.39920664,5.604022,1.1810809,-0.16666463,0.23598665,,,,
31618765,-0.37369502,-0.28661913,5.5477285,1.3041189,-0.25454888,0.26741192,6.4855156,-1.9088678,-46.28559,
31618770,-0.30542386,-0.18241583,5.359683,1.4111779,-0.3232584,0.2940435,,,,
31618775,-0.17367256,-0.104562774,5.1381016,1.5027905,-0.37918472,0.31534877,4.638403,-2.6461325,-44.465813,
31618780,0.010779284,0.009222448,4.970418,1.5651085,-0.4260563,0.32280564,,,,18.0
31618785,0.182056,0.24038613,4.685356,1.6007948,-0.4644058,0.3073593,3.870121,-2.8144789,-45.102043,
31618790,0.37369427,0.55778706,4.1607466,1.5949359,-0.50435317,0.27593404,,,,
31618795,0.5078411,0.9195043,3.478035,1.5315527,-0.54909426,0.22693191,6.0240173,-3.7974443,-43.953728,
31618800,0.632406,1.2165436,2.9198885,1.4031885,-0.6002269,0.17366873,,,,
31618805,0.7126545,1.3267356,2.5941036,1.211441,-0.6604142,0.123601355,5.717537,-3.673235,-45.200905,
31618810,0.78811204,1.3339221,2.380906,0.96589774,-0.7211343,0.08045819,,,,
31618815,0.91746795,1.1159335,2.2575388,0.67454815,-0.76853853,0.048500285,3.7154446,-2.950325,-44.175728,
31618820,1.0288577,0.7242728,2.4946914,0.35177332,-0.7834522,0.025597116,,,,
31618825,1.1725863,0.14816019,3.3510747,0.023139521,-0.7317869,0.008020269,2.9469585,-2.971264,-44.813652,
31618830,1.238462,-0.4459185,5.248294,-0.26607952,-0.60608584,-0.015415527,,,,25.0
31618835,1.0887446,-1.0950931,8.328879,-0.488187,-0.44895947,-0.03831869,6.180334,-4.985965,-44.709892,
31618840,0.8791402,-1.3202682,11.277714,-0.62347543,-0.30248573,-0.06495028,,,,
31618845,1.0144848,-1.3765619,13.459994,-0.66608596,-0.13683724,-0.08625556,3.4085484,-3.399538,-44.332924,
31618850,1.2181005,-1.4651946,15.584784,-0.5888543,0.09166176,-0.104365036,,,,
31618855,1.2336711,-1.6113187,17.73233,-0.3795301,0.33134604,-0.107028194,2.794073,-3.4204578,-45.121788,
31618860,1.0025074,-1.8329005,19.804419,-0.08498472,0.49060294,-0.08572292,,,,
31618865,0.74379563,-2.0712507,21.495626,0.24791011,0.52202827,-0.048971325,3.8704681,-2.8191118,-45.411507,
31618870,0.47310662,-2.1407197,22.796371,0.57920706,0.43467662,-0.0042302613,,,,
31618875,0.24433844,-1.9957931,22.843082,0.8844051,0.28127867,0.045837127,2.9478836,-3.2730312,-45.27442,
31618880,0.033536322,-1.6676126,21.829796,1.1187631,0.13214178,0.10868767,,,,
31618885,0.017965712,-1.5670023,20.615288,1.250323,-0.0058098473,0.19390874,1.868,-1.9464769,-44.2333,
31618890,0.40842873,-1.8496689,19.228306,1.2705631,-0.13310882,0.2833909,,,,
31618895,1.2181005,-2.3335557,17.51075,1.1587105,-0.22791728,0.34464356,3.719078,-4.735449,-45.238304,
31618900,2.111614,-2.704855,15.527292,0.91742826,-0.25667942,0.35636145,,,,
31618905,2.9536247,-2.9252388,14.057666,0.5797397,-0.2114057,0.3169467,2.641758,-5.0350275,-44.487816,
31618910,3.650709,-3.0665722,13.509101,0.19517958,-0.11553199,0.23918244,,,,
31618915,4.178912,-3.2019167,13.839678,-0.19097845,0.004842788,0.13798241,5.413086,-6.0364494,-45.181114,
31618920,4.408878,-3.1815548,14.800264,-0.54145014,0.12468493,0.022933958,,,,
31618925,4.3525844,-2.947996,16.120173,-0.83706075,0.22695024,-0.09797345,4.1787357,-4.1249104,-44.305367,
31618930,4.002844,-2.6797023,17.511946,-1.0799408,0.29672498,-0.20822823,,,,29.0
31618935,3.526144,-2.5287871,18.877369,-1.2711557,0.33773765,-0.3041019,4.022438,-3.9497252,-42.29934,
31618940,3.1668222,-2.5563352,20.205662,-1.4037809,0.36010817,-0.39038828,,,,
31618945,2.7068903,-2.662934,21.088394,-1.484741,0.39845765,-0.46602198,2.793808,-3.8511028,-44.34298,
31618950,2.0265746,-2.667725,22.247807,-1.509242,0.4447966,-0.52407885,,,,
31618955,1.2923603,-2.5970583,23.262291,-1.4783494,0.46716714,-0.55710196,3.4088955,-3.404171,-44.642387,
31618960,0.5365868,-2.4712958,23.990517,-1.4154989,0.4597103,-0.56402624,,,,
31618965,-0.22876857,-2.2317476,24.33427,-1.3441262,0.4314808,-0.5432536,4.483589,-2.0565138,-44.32174,
31618970,-0.9486098,-2.0233412,24.448055,-1.2743515,0.38673976,-0.48732728,,,,
31618975,-1.4768128,-1.9011717,24.317501,-1.205642,0.33241132,-0.3941167,4.02503,-2.9711351,-45.8702,
31618980,-1.7678635,-1.8209231,24.099512,-1.1545093,0.28021342,-0.27427456,,,,26.0
31618985,-1.6373099,-1.8748213,23.700665,-1.1182903,0.23014602,-0.15389979,6.3296223,-2.0284986,-44.276146,
31618990,-1.0013103,-1.9981887,23.170067,-1.0937892,0.17954601,-0.055362906,,,,
31618995,-0.18085898,-2.2377367,22.57479,-1.0815387,0.13373968,-0.0031649978,4.3289185,-1.3241196,-44.488823,
31619000,0.58210087,-2.4724932,22.021435,-1.0660925,0.10124913,0.006422374,,,,
31619005,1.2049253,-2.6653295,21.699242,-1.0426567,0.08633544,-0.02127448,6.020191,-0.9966736,-43.98626,
31619010,1.5750268,-2.7731261,21.471672,-1.0091008,0.06929123,-0.07613555,,,,
31619015,1.7954109,-2.8401992,21.247696,-0.95530504,0.030409113,-0.14591032,5.7134438,-1.3031082,-44.454628,
31619020,1.89123,-2.9372163,20.830883,-0.894585,-0.038833015,-0.22260928,,,,
31619025,1.8325406,-3.0066853,20.230814,-0.83706075,-0.122988835,-0.29664508,5.559637,-1.4505358,-44.301994,
31619030,1.5343037,-2.883318,19.339695,-0.79338497,-0.2183299,-0.35097355,,,,21.0
31619035,1.0791626,-2.5671148,18.238974,-0.7827323,-0.30940995,-0.36482197,4.0204506,0.12908745,-45.596672,
31619040,0.69109523,-1.9910021,17.025665,-0.80670077,-0.3861089,-0.328603,,,,
31619045,0.70187485,-1.458008,15.90458,-0.85676813,-0.41913208,-0.2630893,6.3294296,-1.0128508,-45.37127,
31619050,0.94501597,-1.1669574,14.984716,-0.91162926,-0.39356577,-0.19011876,,,,
31619055,1.2528348,-1.0950931,14.128332,-0.9627619,-0.3099426,-0.11288714,3.8654327,0.8661146,-45.454308,
31619060,1.6744392,-1.1777372,13.3402195,-1.0138944,-0.18051304,-0.04364501,,,,
31619065,2.1331735,-1.3082907,12.619181,-1.0740819,-0.016995113,0.012813954,4.1741676,-0.15644646,-45.12525,
31619070,2.6398168,-1.4783697,12.022707,-1.133204,0.16942601,0.05063081,,,,
31619075,3.0039296,-1.6843809,11.572357,-1.1859345,0.37289134,0.07033818,5.555874,1.9282913,-45.11503,
31619080,3.3069577,-2.1215558,11.163927,-1.2333387,0.5827483,0.06660976,,,,16.0
31619085,3.4734435,-2.4868665,10.963905,-1.270623,0.80165994,0.04104344,4.6327076,1.7715063,-44.826653,
31619090,3.48063,-2.8988886,11.1279955,-1.2855366,1.012582,-0.014350263,,,,
31619095,3.3273191,-3.1983232,11.37952,-1.2812756,1.1968726,-0.0921145,4.325035,1.7668371,-44.83425,
31619100,3.1009464,-3.4234984,11.554391,-1.2631662,1.316182,-0.19331454,,,,
31619105,2.7571955,-3.4833853,11.869396,-1.2269472,1.3545315,-0.3104935,6.0181866,1.3456583,-45.09678,
31619110,2.411049,-3.377984,12.246683,-1.1683577,1.3092579,-0.43725985,,,,
31619115,1.8876367,-3.209103,12.4503,-1.088463,1.194742,-0.5629609,5.553053,3.9920173,-45.139,
31619120,1.3630269,-2.9611712,12.76291,-0.9851324,1.0274956,-0.67694414,,,,
31619125,0.7665528,-2.6964707,12.839565,-0.8423871,0.8176389,-0.7760136,6.3235245,2.683958,-44.640404,
31619130,0.18445149,-2.3922448,12.650322,-0.66661865,0.58807456,-0.8511147,,,,12.0
31619135,-0.48149157,-2.0389118,12.182007,-0.48073012,0.35957554,-0.898519,5.705927,3.5729718,-43.737465,
31619140,-1.2013328,-1.6244938,11.476538,-0.29430902,0.13800073,-0.9006494,,,,
31619145,-1.9331515,-1.1465958,10.59021,-0.12439947,-0.068127766,-0.86656106,8.014833,3.7345533,-45.07479,
31619150,-2.6038857,-0.65432507,9.539793,0.009291095,-0.2481573,-0.79252523,,,,
31619155,-3.1189134,-0.18241583,8.580404,0.11049113,-0.39782682,-0.68227047,6.163809,6.233339,-43.75689,
31619160,-3.3752298,0.18169689,7.4952526,,,,,,,
31619165,-3.4494894,0.37333518,6.2340326,0.18133114,-0.50169,-0.5533736,5.3965626,5.1828537,-44.228096,
31619170,-3.3608565,0.51706386,4.970418,0.20956065,-0.55495316,-0.41701987,,,,
31619175,-3.1979642,0.5997079,4.0505543,0.19517958,-0.5533553,-0.2817314,6.4746323,5.1829815,-45.28463,
31619180,-3.0314784,0.68115413,3.2911878,0.14404692,-0.5075489,-0.14910612,,,,9.0
31619185,-2.740428,0.8057191,2.918691,0.07001111,-0.42871946,-0.017546056,6.477661,3.8400865,-46.35235,
31619190,-2.462552,0.7673914,2.9294705,-0.009883649,-0.32432362,0.108155034,,,,
31619195,-2.1463492,0.7410411,3.1642275,-0.079658404,-0.19755727,0.2232035,6.783787,2.8522687,-43.70231,
31619200,-1.9463267,0.7386457,3.7163854,-0.12599738,-0.06280144,0.32120773,,,,
31619205,-1.7774453,0.6787587,4.3116617,-0.14091106,0.059703857,0.40696147,6.0135365,2.9995866,-42.94935,
31619210,-1.5894004,0.59491694,4.7823725,-0.11694263,0.15557759,0.48525834,,,,
31619215,-1.352248,0.4931091,5.172836,-0.062614195,0.22375445,0.5539679,7.0897923,4.326396,-44.021294,
31619220,-1.0635929,0.38770804,5.353695,0.014617412,0.26689762,0.6098942,,,,
31619225,-0.78332186,0.2763183,5.371661,0.115284815,0.27914813,0.6503742,6.6288223,3.29911,-43.247047,
31619230,-0.49107346,0.227211,5.103367,0.22340906,0.25944078,0.67700577,,,,8.0
31619235,-0.16528839,0.19247656,4.6973333,0.3224786,0.2093734,0.689789,6.783247,3.872551,-44.487953,
31619240,0.1030052,0.1421715,4.296091,0.4050365,0.13480495,0.6849953,,,,
31619245,0.42399934,0.13977602,4.0230064,0.467887,0.049051225,0.6674184,5.5538044,3.6925673,-45.445045,
31619250,0.6851065,0.075098105,3.6960237,0.52168286,-0.037767753,0.6450479,,,,
31619255,0.95699334,0.011617921,3.2336965,0.5685544,-0.11766252,0.6109595,7.3994884,3.725215,-45.08999,
31619260,1.1546202,-0.019523308,2.982171,0.60583866,-0.18211095,0.5619573,,,,
31619265,1.2169027,-0.026709706,2.7965217,0.6351334,-0.22685201,0.5065636,6.476984,2.836018,-44.483574,
31619270,1.2336711,-0.024314255,2.7258549,0.65856916,-0.2518857,0.4442457,,,,
31619275,1.1630045,-0.008743644,2.6252449,0.66815656,-0.26786467,0.38299304,6.7834396,2.8569012,-43.392845,
31619280,0.97136617,0.009222448,2.5198438,0.67081976,-0.28384364,0.32653406,,,,
31619285,0.8923154,-0.047071293,2.3701262,0.6606997,-0.29822466,0.281793,7.2472267,1.8204603,-44.14312,
31619290,0.8779425,-0.1141447,2.1293807,0.6463187,-0.31154045,0.24450876,,,,
31619295,0.8216488,-0.13690174,2.1293807,0.6175566,-0.3152689,0.20615928,6.3263435,0.6202316,-44.616432,
31619300,0.7078635,-0.13809948,2.2228043,0.58879447,-0.30674678,0.16887504,,,,
31619305,0.51023656,-0.16684523,2.4982843,0.57441336,-0.28916994,0.13585189,6.3263435,0.6202316,-44.616432,
31619310,0.22277912,-0.27823496,2.7366347,0.57867444,-0.26466888,0.110285565,,,,
31619315,0.21559271,0.040363677,3.0480466,0.5946534,-0.24176571,0.09963293,6.017729,1.9306622,-45.41311,
31619320,0.17367184,0.06431845,3.1486568,0.6244807,-0.22844991,0.104426615,,,,
31619325,0.15570574,-0.02551198,3.2408829,0.67188495,-0.21513411,0.124666624,7.553837,2.8523602,-44.456978,
31619330,0.087434605,-0.14408816,3.3630524,0.73367023,-0.17891516,0.1497003,,,,
31619335,0.059886605,-0.26505983,3.4109616,0.8055756,-0.14003304,0.16940768,6.4806747,0.76070976,-45.23327,
31619340,0.05749111,-0.33931968,3.2708263,0.87268716,-0.10700989,0.184854,,,,
31619345,0.10060972,-0.36207673,3.1905777,0.9397988,-0.07931303,0.19177821,8.019356,0.9245157,-45.6612,
31619350,0.15810122,-0.3668677,3.0636172,0.9978556,-0.057475127,0.1880498,,,,
31619355,0.22277912,-0.32135355,2.904318,1.0399336,-0.053746704,0.18112558,6.6338234,1.6405497,-45.703957,
31619360,0.26709548,-0.29141012,2.698307,1.0772177,-0.06546461,0.17100559,,,,
31619365,0.29584122,-0.3225513,2.4719343,1.1107736,-0.0819762,0.1582224,7.712799,-0.39756966,-45.034447,
31619370,0.31740057,-0.37644956,2.3114371,1.1416662,-0.10647725,0.14543925,,,,
31619375,0.36770558,-0.37165865,2.1665106,1.1629715,-0.12884776,0.12892766,5.559847,-0.72970486,-45.393684,
31619380,0.36411235,-0.34650615,2.0048158,1.1784178,-0.15175094,0.11348135,,,,10.0
31619385,0.37249658,-0.33213323,1.7628725,1.1864073,-0.17944779,0.09643714,7.407984,-1.7428188,-45.955025,
31619390,0.40363777,-0.35009935,1.5820138,1.177885,-0.21300359,0.07832766,,,,
31619395,0.3461463,-0.32374904,1.3712118,1.1603084,-0.2518857,0.05595713,6.0237713,-2.4916105,-45.361748,
31619400,0.30781862,-0.29021236,1.3316864,1.134742,-0.29449627,0.03145607,,,,
31619405,0.25032714,-0.28063044,1.2753925,1.0979904,-0.34562892,0.008552901,6.483082,-1.8764391,-44.119316,
31619410,0.1581012,-0.32734227,1.3221045,1.0591083,-0.40634894,-0.009023948,,,,
31619415,0.19044016,-0.38243827,1.4406806,1.017563,-0.46227527,-0.026600795,7.2524166,-0.8537493,-45.504906,
31619420,0.1664854,-0.43513885,1.7844318,0.9808114,-0.49689633,-0.051634483,,,,
31619425,0.010779299,-0.4638846,2.2958665,0.9653651,-0.5027552,-0.0718745,7.254423,-3.1960812,-44.39437,
31619430,-0.18564996,-0.5177828,2.9773803,0.9786809,-0.4782542,-0.08412502,,,,15.0
31619435,-0.3066216,-0.56569237,3.7834587,1.0250199,-0.4425679,-0.086788185,6.177515,-2.9222374,-44.733864,
31619440,-0.38447466,-0.6531274,4.756023,1.0974578,-0.40634894,-0.07773344,,,,
31619445,-0.4922712,-0.6100088,5.5369487,1.2002558,-0.37652156,-0.06867871,6.488283,-3.6824083,-46.574516,
31619450,-0.65037274,-0.45070946,6.054372,1.3270221,-0.35148785,-0.06335238,,,,
31619455,-0.8396156,-0.23272088,6.257988,1.4553863,-0.34296575,-0.05003659,6.1792374,-4.681881,-44.0944,
31619460,-0.9282483,-0.023116514,6.2819424,1.5704348,-0.3621405,-0.020741845,,,,
31619465,-0.9857398,0.18888333,6.139412,1.6519275,-0.42499104,0.021868696,6.0277996,-5.4397907,-45.327507,
31619470,-0.9905307,0.34458944,5.7872763,1.690277,-0.5251258,0.0740666,,,,
31619475,-0.98933303,0.5697644,5.0590506,1.6668411,-0.63538057,0.13585189,5.7188263,-4.9929686,-44.72129,
31619480,-0.80128795,0.7182841,4.0733113,1.5560536,-0.72006905,0.1965719,,,,19.0
31619485,-0.34734476,0.755414,3.1630297,1.3403379,-0.7557553,0.2434435,4.9512405,-5.17058,-45.976448,
31619490,0.18684696,0.76858914,2.6827364,1.023422,-0.7179385,0.25782457,,,,
31619495,0.80248487,0.55299604,2.9486344,0.6431229,-0.5869111,0.23598665,6.3354187,-5.1449366,-45.63279,
31619500,1.330688,-0.03868714,4.001447,0.24258381,-0.38664156,0.18858244,,,,
31619505,1.6852188,-0.9286074,5.8926773,-0.13451949,-0.16187094,0.115079254,4.488285,-4.868868,-45.062874,
31619510,1.7031848,-1.7119287,8.416314,-0.4349238,0.055442803,0.02985817,,,,
31619515,1.4744167,-2.253307,11.492108,-0.6272038,0.25304917,-0.06068923,4.4857483,-3.3878288,-44.61579,
31619520,1.0815582,-2.4185953,14.976332,-0.69325024,0.3840766,-0.13579032,,,,
31619525,0.6731291,-2.3623013,17.934748,-0.6378565,0.39153343,-0.18106401,4.9506817,-5.886778,-44.575294,
31619530,0.47071114,-2.2940302,20.027199,-0.4839259,0.29565972,-0.19810823,,,,23.0
31619535,0.21199948,-2.377872,21.669298,-0.25276372,0.15344705,-0.20023875,5.4104595,-4.988372,-44.109962,
31619540,0.04431598,-2.395838,22.867039,0.03805321,0.014962792,-0.20077139,,,,
31619545,-0.18445222,-2.3850584,23.382065,0.36881754,-0.10008567,-0.2060977,5.103079,-4.707489,-44.73992,
31619550,-0.3760905,-2.2077932,23.107784,0.7128976,-0.17838252,-0.20449981,,,,
31619555,-0.44316387,-1.9802225,22.27775,1.0372703,-0.21726465,-0.18532507,5.4131775,-5.603487,-45.805183,
31619560,-0.3701018,-1.7035446,21.120735,1.2886726,-0.23803727,-0.14644295,,,,
31619565,-0.2299663,-1.6604261,19.641525,1.4282222,-0.26307097,-0.09744082,5.2562466,-4.8409815,-43.960747,
31619570,-0.016768709,-1.674799,17.517933,1.4186348,-0.30142048,-0.042047113,,,,
31619575,0.29823673,-1.6137142,15.006275,1.2311482,-0.32751945,0.009618165,4.4916,-6.7944508,-45.659554,
31619580,0.6228241,-1.5262793,12.645531,0.8625672,-0.2939636,0.041576073,,,,
31619585,0.99651873,-1.527477,11.034572,0.34538174,-0.17092568,0.057555024,4.6445026,-7.358591,-44.10157,
31619590,1.2923603,-1.6640192,10.379408,-0.25542688,0.041061748,0.06501187,,,,
31619595,1.4983714,-1.9838157,11.019001,-0.8738123,0.32815027,0.07513186,3.874754,-6.2048893,-45.06266,
31619600,1.596586,-2.4353635,12.997666,-1.445859,0.638142,0.08045819,,,,
31619605,1.7199532,-2.764742,15.869844,-1.92576,0.89060944,0.073533975,3.7200756,-6.3407345,-44.136345,
31619610,1.6948006,-3.029442,19.259447,-2.2852867,1.0322894,0.049032915,,,,
31619615,1.5534675,-3.3168998,22.352009,-2.5036654,1.0626494,0.0032265834,5.411154,-4.9976377,-44.72889,
31619620,1.3773998,-3.669035,25.00261,-2.5675817,1.028561,-0.048438694,,,,
31619625,1.2504394,-3.7301197,27.46995,-2.475436,0.9625147,-0.11075661,4.948786,-4.124819,-45.060036,
31619630,1.0132871,-3.5229106,29.19709,-2.2314909,0.87249994,-0.17999876,,,,
31619635,0.5617393,-3.0881314,29.881,-1.8762254,0.7585167,-0.2460451,6.640459,-4.09219,-44.55404,
31619640,0.1604967,-2.5563352,29.767214,-1.4682294,0.62589145,-0.27906823,,,,
31619645,-0.19882509,-2.0772393,29.009045,-1.0687555,0.48687452,-0.27747035,4.0224,-1.9230585,-44.79905,
31619650,-0.41441816,-1.6915674,27.550198,-0.72307754,0.33773765,-0.24711035,,,,
31619655,-0.4383729,-1.4663923,25.591896,-0.4567617,0.19339444,-0.20556508,5.100662,-2.9385796,-44.76046,
31619660,-0.401243,-1.3334432,23.492258,-0.27833006,0.09485755,-0.16455244,,,,
31619665,-0.38207918,-1.3082907,21.428553,-0.1632816,0.04798596,-0.11714819,5.561905,-3.3622217,-43.97027,
31619670,-0.35453117,-1.3382342,19.186386,-0.11960579,0.060236488,-0.06601555,,,,
31619675,-0.29224876,-1.4616014,16.595675,-0.1632816,0.1209565,-0.01594816,7.4063168,-3.0231733,-42.844963,
31619680,-0.05030542,-1.5765843,14.093598,-0.32147324,0.22535235,0.012813954,,,,18.0
31619685,0.11977357,-1.6352735,12.404786,-0.5723428,0.34945554,0.008020269,6.7943897,-3.6568928,-45.17431,
31619690,0.17846277,-1.6412623,11.508877,-0.8652902,0.47355872,-0.023937637,,,,
31619695,0.06347981,-1.7131267,11.181894,-1.1571724,0.5854114,-0.066548176,6.637705,-1.450408,-45.35853,
31619700,-0.29224873,-1.5238838,11.524447,-1.4320104,0.64826196,-0.10596293,,,,
31619705,-0.60006773,-1.1298275,12.208357,-1.6786189,0.6216304,-0.11981135,6.175701,-1.5955553,-44.749275,
31619710,-0.6743276,-0.7705058,13.059949,-1.8847475,0.5092451,-0.10063661,,,,
31619715,-0.51383054,-0.691455,13.797756,-2.032819,0.34892288,-0.056960803,7.4056683,-1.4225206,-44.2564,
31619720,-0.11857656,-0.81122893,14.169056,-2.1175077,0.18700285,-0.005295525,,,,
31619725,0.38686943,-1.0687429,14.290028,-2.1425412,0.064497545,0.04423923,4.6342297,0.15927315,-44.18888,
31619730,1.0168803,-1.3753641,14.242117,-2.1148446,0.011767001,0.08471924,,,,15.0
31619735,1.6780323,-1.6604261,14.154682,-2.0434718,0.024550162,0.10389398,7.865896,0.77245617,-45.818016,
31619740,2.2206082,-1.8879966,13.979813,-1.9465327,0.06982386,0.098567665,,,,
31619745,2.6074781,-2.1874313,13.900763,-1.8293537,0.13001126,0.06980555,8.01833,-0.07491875,-43.482933,
31619750,2.8446302,-2.4317703,13.802547,-1.6983263,0.18913339,0.027727643,,,,
31619755,3.0183024,-2.6473632,13.577373,-1.5534505,0.23067866,-0.026068164,8.939714,2.1316938,-44.723686,
31619760,3.062619,-2.962369,12.979701,-1.3995199,0.26103866,-0.08838608,,,,
31619765,3.0793872,-3.2773743,12.176018,-1.254644,0.29139867,-0.1554977,6.7868805,2.087428,-45.550545,
31619770,3.1680198,-3.635498,11.278911,-1.1294756,0.32601973,-0.22846824,,,,
31619775,3.090167,-3.9505033,10.566256,-1.036265,0.3707608,-0.31102616,8.4785,2.410243,-45.357445,
31619780,2.773964,-4.0846505,9.993736,-0.97341454,0.41763237,-0.40689987,,,,8.0
31619785,2.351162,-4.012786,9.604471,-0.9366629,0.45864505,-0.51076305,7.2474365,2.5412912,-45.23481,
31619790,1.7403147,-3.8355207,9.3649235,-0.9110966,0.494864,-0.61036515,,,,
31619795,1.0707786,-3.622323,9.293059,-0.8908566,0.5135062,-0.6982494,8.321955,3.8912644,-44.759422,
31619800,0.38567168,-3.3624136,9.358934,-0.86422503,0.5023209,-0.77068734,,,,
31619805,-0.21679118,-3.0510015,9.505058,-0.8317345,0.44373137,-0.8207547,7.400898,2.6933513,-45.077995,
31619810,-0.9210619,-2.7288096,9.723047,-0.78166705,0.34839025,-0.85324526,,,,
31619815,-1.6600668,-2.298821,9.844019,-0.71455544,0.22322182,-0.8644305,7.5515575,3.8958054,-43.695305,
31619820,-2.303253,-1.7179174,9.964991,-0.6288017,0.06503017,-0.8447231,,,,
31619825,-2.8422356,-1.1310253,10.028471,-0.53186274,-0.12831514,-0.79305786,7.552025,4.179042,-44.472374,
31619830,-3.176405,-0.6818731,10.006912,-0.42427114,-0.33817205,-0.71263045,,,,7.0
31619835,-3.3141448,-0.40639308,9.826054,-0.2991027,-0.54589844,-0.6124957,7.7039185,4.3519483,-42.922966,
31619840,-3.1596365,-0.16684522,9.443974,-0.16274896,-0.7355153,-0.49904516,,,,
31619845,-2.7272525,0.16732404,8.871454,-0.02319944,-0.8830543,-0.39518198,7.3973637,5.7796764,-45.732887,
31619850,-3.0674105,0.1206122,8.06897,0.11208902,-0.9693406,-0.298243,,,,
31619855,-2.8697836,0.05473654,7.345535,0.22820275,-1.021006,-0.16455244,7.091707,4.3009167,-45.723366,
31619860,-2.4793205,0.15534663,6.6496487,0.32354382,-1.0257998,-0.025002899,,,,
31619865,-1.9774679,0.25356126,5.78009,0.41249332,-0.9805259,0.10016556,8.782494,5.3584604,-45.693565,
31619870,-1.4552536,0.337403,4.885379,0.4790723,-0.8985007,0.19923507,,,,
31619875,-0.9989149,0.29548213,4.112837,0.51901966,-0.77759326,0.2796625,7.0872574,5.807435,-43.57421,
31619880,-0.57491523,0.13139185,3.5379221,0.5509776,-0.6050206,0.34304565,,,,
31619885,-0.2239776,0.017606623,3.139075,0.5738808,-0.39463103,0.38459092,5.5519905,5.0192485,-45.460457,
31619890,0.117378086,-0.05545546,2.827663,0.5802723,-0.19169831,0.40003726,,,,
31619895,0.4359767,-0.03389615,2.615663,0.56163025,-0.03403933,0.39417827,5.552046,4.729063,-45.14756,
31619900,0.6395924,0.06671393,2.4300132,0.5158239,0.06769333,0.36701408,,,,
31619905,0.8108691,0.120612204,2.3198214,0.45297337,0.113499664,0.32813194,7.705942,3.7460985,-43.999245,
31619910,0.7964963,0.16971952,2.2814937,0.37947017,0.11190177,0.28126037,,,,
31619915,0.72103864,0.19487202,2.4048607,0.31502172,0.08313965,0.22959508,7.0931168,3.269053,-45.711388,
31619920,0.61084664,0.21283813,2.6072788,0.27187854,0.03893122,0.18059294,,,,
31619925,0.4659202,0.27272508,2.8552108,0.24844275,-0.016995113,0.13691714,6.4772053,4.42509,-46.66868,
31619930,0.3772875,0.2942844,3.0911655,0.25163853,-0.089965664,0.10229609,,,,
31619935,0.20121983,0.34938037,3.4121594,0.2713459,-0.17891516,0.07779503,5.706806,4.429631,-45.60453,
31619940,0.043118246,0.31105274,3.6960237,0.30277118,-0.28118047,0.067675024,,,,
31619945,-0.17606804,0.31344822,3.9882722,0.35816488,-0.38291314,0.0756645,6.322233,4.0036902,-45.120003,
31619950,-0.39645207,0.3194369,4.196678,0.43326595,-0.46919948,0.09324135,,,,
31619955,-0.6419886,0.2667364,4.250577,0.528607,-0.51926684,0.12999293,6.783924,4.876619,-46.356743,
31619960,-0.8156608,0.18169689,4.15356,0.63886184,-0.5235279,0.1763319,,,,
31619965,-0.8779433,0.073900364,4.020611,0.74538815,-0.4883742,0.22799718,5.5547466,2.3774672,-44.655968,
31619970,-0.85398847,0.0032337457,3.9188032,0.8385987,-0.43031734,0.28232563,,,,
31619975,-0.7282258,-0.039884865,3.8888597,0.92967874,-0.35787946,0.3366541,6.630911,3.2713141,-45.103844,
31619980,-0.5737175,-0.12851757,3.7571084,1.0085083,-0.27798468,0.38778672,,,,
31619985,-0.38806787,-0.19918418,3.4684534,1.0718914,-0.19595936,0.4309299,5.2475414,2.6560345,-45.440666,
31619990,-0.117378816,-0.28422365,3.1642275,1.1230241,-0.11020567,0.45969203,,,,
31619995,0.13055322,-0.38722926,2.9630075,1.1629715,-0.029245645,0.47194254,6.0167217,2.6677074,-45.42167,
31620000,0.2946435,-0.39681116,2.8084989,1.2034515,0.043724906,0.47140992,,,,
31620005,0.47310662,-0.4339411,2.7593915,1.2370073,0.09592281,0.46395308,5.5579796,0.8871622,-45.721992,
31620010,0.57132125,-0.66031384,2.6300359,1.2604431,0.11669545,0.44158253,,,,
31620015,0.69109523,-0.4962235,2.4419909,1.2689651,0.09965124,0.40802673,7.4054737,-0.4068718,-45.35151,
31620020,0.7952985,-0.3944157,2.0790756,1.256182,0.05437754,0.37979725,,,,
31620025,0.88991994,-0.43992978,1.7748499,1.2300831,-0.0010161615,0.34677407,7.4054737,-0.4068718,-45.35151,
31620030,0.92465436,-0.5525173,1.5927935,1.195462,-0.05481197,0.3052288,,,,
31620035,0.8024849,-0.6986414,1.567641,1.1571125,-0.10594462,0.25782457,6.327753,-0.41163254,-44.60444,
31620040,0.6647449,-0.76930803,1.7137651,1.1283504,-0.14109829,0.21095295,,,,
31620045,0.41801062,-0.8315905,2.0587142,1.1070452,-0.17252357,0.16994031,7.099022,-0.42775536,-46.442253,
31620050,0.20121984,-0.8854887,2.6264427,1.0915989,-0.21300359,0.14064556,,,,
31620055,-0.043118976,-1.0136468,3.245674,1.0942619,-0.26413625,0.12573189,7.2539825,-0.87459564,-46.897514,
31620060,-0.2515256,-1.077127,3.9176054,1.1176977,-0.31952998,0.12040557,,,,
31620065,-0.3856724,-1.1573756,4.4374237,1.1624389,-0.36853206,0.12040557,5.5619164,-2.4939814,-45.063667,
31620070,-0.4743051,-1.2220535,4.6374464,1.2274199,-0.40688157,0.12519926,,,,
31620075,-0.46592093,-1.2160647,4.6578083,1.3046515,-0.4260563,0.13212346,4.4856224,-1.7941256,-46.491432,
31620080,-0.35093796,-1.1909122,4.514079,1.3930684,-0.41167527,0.13585189,,,,
31620085,-0.30542386,-1.2088783,4.3260345,1.4894747,-0.36480364,0.14011294,6.025116,-4.101528,-44.569237,8.0
31620090,-0.24553691,-1.2004942,4.0505543,1.5842832,-0.2966268,0.14650452,,,,
31620095,-0.29584196,-1.1442003,3.7439332,1.6503296,-0.22525412,0.16567926,5.408142,-1.9182606,-45.847984,
31620100,-0.3641131,-1.0148447,3.5594816,1.6892116,-0.16986041,0.19284348,,,,
31620105,-0.5018531,-0.84955657,3.455278,1.6961359,-0.14056568,0.23066033,5.256212,-2.8143148,-46.460457,
31620110,-0.6623502,-0.71301425,3.4540806,1.6652433,-0.13151093,0.27220562,,,,
31620115,-0.7461919,-0.51898056,3.4684534,1.6039906,-0.13257618,0.3185446,5.5631237,-3.3784351,-45.0534,
31620120,-0.7174462,-0.41118404,3.6493118,1.5171716,-0.12778251,0.35636145,,,,
31620125,-0.69229364,-0.27703723,3.9211988,1.4042536,-0.11766252,0.37500355,5.107189,-5.341133,-47.67301,
31620130,-0.58569485,-0.013534591,4.2122493,1.2593778,-0.12724988,0.37979725,,,,
31620135,-0.52580786,0.2978776,4.4242487,1.0772177,-0.17145832,0.37660143,4.4906025,-5.189165,-46.761513,13.0
31620140,-0.4156159,0.59491694,4.617085,0.8487187,-0.26253837,0.3776667,,,,
31620145,-0.235955,0.7075044,4.7560225,0.57494605,-0.39835948,0.39897197,5.260378,-6.487961,-45.64399,
31620150,0.15570574,0.44280407,4.8075256,0.26016065,-0.55921423,0.43412566,,,,
31620155,0.7126545,-0.19199775,4.8710055,-0.081788935,-0.6849153,0.47087726,4.3351173,-4.7353754,-45.84205,
31620160,1.5355014,-1.0471835,5.0925875,-0.43811956,-0.6976985,0.49697623,,,,
31620165,2.26732,-1.9921999,5.8807,-0.767286,-0.5533553,0.500172,2.6443844,-6.083103,-45.558968,
31620170,2.7188678,-2.78151,7.5910716,-1.0336019,-0.2614731,0.47726884,,,,
31620175,2.8494213,-3.2630014,10.033262,-1.2072397,0.12681548,0.43039724,3.7203674,-6.0551796,-44.758705,
31620180,3.0410595,-3.6965828,12.915023,-1.2626336,0.53694195,0.35369828,,,,
31620185,3.1620312,-4.1337576,16.308218,-1.1832714,0.8874136,0.24930245,5.564268,-4.8409443,-44.26261,16.0
31620190,2.9823704,-4.4787064,20.002045,-0.94997865,1.0946072,0.13372137,,,,
31620195,2.3918848,-4.4763107,23.579693,-0.56541854,1.0972705,0.033586595,4.18009,-4.8665886,-44.60627,
31620200,1.6540775,-4.186458,26.165611,-0.072201565,0.8746305,-0.028198691,,,,
31620205,1.1174903,-3.8798373,27.632843,0.483866,0.4730261,-0.052167118,4.0269604,-4.0099487,-46.32241,
31620210,0.69588614,-3.8091702,27.578945,1.0452598,-0.014331955,-0.051101852,,,,
31620215,0.49346817,-3.8714528,26.005116,1.5358137,-0.5054184,-0.03885132,4.9521656,-5.4723473,-46.437233,
31620220,0.5629371,-3.7876112,23.33775,1.8703065,-0.918208,-0.014882896,,,,
31620225,0.8491968,-3.7109556,20.168533,2.0125191,-1.1898503,0.013346586,4.4911423,-6.209448,-45.975853,
31620230,1.3522472,-3.5324926,16.366907,1.9198412,-1.3001052,0.033586595,,,,
31620235,2.0481339,-3.154007,12.669486,1.5906748,-1.236722,0.03731502,3.8751564,-6.4997063,-45.059242,
31620240,2.777557,-2.8629565,9.591295,1.0820115,-0.9677428,0.016009746,,,,
31620245,3.2818053,-2.5575328,7.5802917,0.47268072,-0.5134079,-0.018611321,4.951084,-6.1815968,-44.571877,
31620250,3.5381212,-2.359906,6.992202,-0.16807528,0.02668069,-0.066548176,,,,
31620255,3.4542797,-2.1922224,7.947998,-0.77953655,0.5342788,-0.11981135,5.106163,-6.3405685,-45.49476,
31620260,3.0722008,-2.052087,10.423725,-1.3169619,0.9113821,-0.17147663,,,,
31620265,2.6182575,-2.23055,13.3929205,-1.7606442,1.0908788,-0.22420718,4.3369293,-6.0620556,-45.826637,
31620270,2.323614,-2.6557474,16.112988,-2.1084528,1.0876831,-0.28066614,,,,
31620275,2.024179,-3.0989108,18.121595,-2.3609204,0.9960705,-0.3392556,5.716255,-4.235076,-43.337257,
31620280,1.7774446,-3.5408769,20.393705,-2.5010026,0.89273995,-0.3925188,,,,
31620285,1.4612415,-3.9253511,22.852665,,,,3.7206326,-5.6245346,-45.537514,18.0
31620290,1.0037051,-4.081057,25.002605,-2.503133,0.789942,-0.44205356,,,,
31620295,0.46472245,-4.016379,26.393183,-2.3795626,0.66637146,-0.48679462,6.330574,-2.47536,-44.580482,
31620300,-0.02155967,-3.766052,27.389702,-2.1755645,0.5246914,-0.5096978,,,,
31620305,-0.41441816,-3.3923573,27.678356,-1.9193684,0.377685,-0.4947841,5.717537,-3.673235,-45.200905,
31620310,-0.67432755,-3.0689676,27.642426,-1.6274862,0.22055866,-0.44365147,,,,
31620315,-0.77014667,-2.7395892,27.1789,-1.3340062,0.06556281,-0.36908302,6.486717,-3.661562,-45.181908,
31620320,-0.6551637,-2.565917,26.132076,-1.0549071,-0.07771514,-0.2785356,,,,
31620325,-0.34974024,-2.460516,24.618134,-0.80243975,-0.19595936,-0.17893349,3.7151413,-1.3543043,-45.89663,
31620330,0.13055319,-2.424584,22.876621,-0.59524596,-0.26573417,-0.084657654,,,,
31620335,0.5940783,-2.426979,21.196192,-0.44610906,-0.2715931,-0.007426052,5.1007175,-3.2287655,-44.447563,13.0
31620340,1.142643,-2.3910472,19.636734,-0.36035535,-0.23111306,0.04690239,,,,
31620345,1.5822132,-2.3706856,18.032963,-0.32200587,-0.1693278,0.06927292,4.3295307,-0.8981066,-45.577095,
31620350,1.9331506,-2.2748666,16.4244,-0.3278648,-0.10487936,0.057555024,,,,
31620355,2.0613089,-2.1586857,14.972739,-0.38379115,-0.058007758,0.010150796,3.2532845,-1.3566761,-45.59855,
31620360,2.082868,-2.1215558,13.753441,-0.4935133,-0.04043091,-0.06175449,,,,
31620365,2.161919,-2.1550927,12.638345,-0.6293344,-0.058007758,-0.13685557,5.255396,-3.0929184,-45.373894,
31620370,2.2745066,-2.254505,11.487317,-0.7944502,-0.107542515,-0.20982613,,,,
31620375,2.4266193,-2.3982337,10.295567,-0.98992604,-0.17252357,-0.2764051,5.7134438,-1.3031082,-44.454628,
31620380,2.5943027,-2.5719056,9.320607,-1.2216209,-0.22951517,-0.32966825,,,,
31620385,2.5128565,-2.7383914,8.728924,-1.4905999,-0.24229833,-0.37600723,4.1730404,0.29272842,-44.66619,10.0
31620390,2.254145,-3.0414195,8.5588455,-1.7744927,-0.18530673,-0.41701987,,,,
31620395,1.9678853,-3.4929671,8.853489,-2.0434718,-0.05214881,-0.44205356,5.7092133,1.7924814,-44.490578,
31620400,1.7343261,-4.017577,9.788923,-2.2698402,0.15504496,-0.45164093,,,,
31620405,1.518733,-4.381689,11.336403,-2.426434,0.40165344,-0.45856515,5.0942345,3.5149913,-47.002068,
31620410,1.1642022,-4.5457797,13.17613,-2.4999373,0.6354788,-0.47241357,,,,
31620415,0.7138523,-4.647588,14.946388,-2.478632,0.8085841,-0.49052304,4.017769,1.467351,-44.838417,
31620420,0.38686943,-4.6296215,16.51902,-2.3689096,0.89380527,-0.51555675,,,,
31620425,-0.058689594,-4.340966,18.028172,-2.1824887,0.8916747,-0.5485799,4.170231,3.2246957,-45.783577,
31620430,-0.53658754,-3.8810349,19.308556,-1.9119116,0.8043231,-0.5826683,,,,
31620435,-0.84799975,-3.4666169,19.77208,-1.5587767,0.62855464,-0.60184306,4.9360867,4.2937117,-44.074486,7.0
31620440,-1.0276606,-3.1887417,19.26783,-1.1353345,0.3723587,-0.6050388,,,,
31620445,-1.0839545,-2.9503913,18.137165,-0.684728,0.067160696,-0.5938536,5.244108,4.293748,-44.37635,
31620450,-1.1378527,-2.6880865,16.405235,-0.24264371,-0.24922256,-0.5645588,,,,
31620455,-1.2001351,-2.355115,14.388242,0.1419164,-0.55921423,-0.5230136,6.3225803,3.9990578,-45.429466,
31620460,-1.3055362,-1.9945955,12.173622,0.44658175,-0.8399111,-0.46921778,,,,
31620465,-1.4253101,-1.6113187,9.990143,0.66602606,-1.052964,-0.40370408,5.5533466,4.2775707,-45.76136,
31620470,-1.5043609,-1.2927201,7.947998,0.79971665,-1.1658819,-0.32753772,,,,
31620475,-1.5702366,-0.94896895,6.0879087,0.86150193,-1.1813282,-0.23752297,6.629244,4.7407727,-45.430428,
31620480,-1.4875926,-0.636359,4.460181,0.84818614,-1.1312608,-0.140584,,,,
31620485,-1.2432537,-0.35728574,3.092363,0.77042186,-1.0156797,-0.045242906,4.1706886,2.6396923,-45.467262,6.0
31620490,-0.846802,-0.11654018,2.306646,0.6335355,-0.8628143,0.046369758,,,,
31620495,-0.49945763,-0.04108259,1.8467143,0.44658175,-0.7078185,0.12306873,4.323847,4.387773,-47.031334,
31620500,-0.21200022,-0.14289044,1.2849746,0.24311642,-0.5602795,0.17313612,,,,
31620505,0.12576225,-0.08779442,0.95679396,0.033259526,-0.38291314,0.18911505,4.169224,3.961741,-45.792137,
31620510,0.3317734,-0.02670972,1.052613,-0.15582475,-0.19223095,0.18006031,,,,
31620515,0.44675636,0.06671392,1.7089741,-0.30496162,0.0032448927,0.1630161,3.7063332,4.8415084,-45.659065,
31620520,0.4503496,0.15175343,2.8600016,-0.4066943,0.16995865,0.14011294,,,,
31620525,0.36890337,0.20804717,4.304475,-0.4471743,0.27115867,0.11987294,4.3261166,2.4760876,-46.699608,
31620530,0.20720853,0.3002731,5.8998637,-0.4237385,0.28447446,0.10708977,,,,
31620535,0.12097129,0.337403,6.941897,-0.33372375,0.2093734,0.10282872,3.8634186,2.3402052,-45.471428,
31620540,-0.0023958385,0.41765153,7.207795,-0.19310898,0.08686807,0.10495924,,,,
31620545,-0.12097203,0.51706386,6.968247,-0.025862599,-0.031908803,0.11561189,4.938404,3.973414,-45.77314,
31620550,-0.16648613,0.590126,6.5813775,0.14777535,-0.119260415,0.13691714,,,,
31620555,-0.08743532,0.5997079,6.096293,0.3214133,-0.19223095,0.1662119,4.4782505,3.2247324,-46.085426,
31620560,0.04192049,0.6583971,5.485446,0.4790723,-0.25934255,0.20083296,,,,
31620565,0.16408992,0.70151573,4.7967463,0.60104495,-0.3099426,0.23119296,2.9411354,3.04008,-47.050117,
31620570,0.2790729,0.67277,4.2469835,0.68892926,-0.344031,0.2535635,,,,
31620575,0.4084287,0.6140808,3.6612892,0.7523124,-0.35255313,0.2695425,6.018343,2.3566751,-46.50138,
31620580,0.5090388,0.47394526,3.190578,0.7773461,-0.35148785,0.27646667,,,,
31620585,0.6647449,0.34578717,2.8156853,0.7762808,-0.3355089,0.2801951,5.556843,3.2179117,-47.606163,
31620590,0.8384171,0.22601324,2.5030756,0.7581714,-0.30674678,0.2732709,,,,
31620595,0.9474115,0.124205425,2.3006573,0.7352682,-0.25827733,0.261553,2.943407,1.1283951,-46.71839,
31620600,0.9593888,0.012815669,2.137765,0.7075713,-0.186372,0.2450414,,,,
31620605,0.88393116,-0.05545546,2.0838666,0.68360287,-0.10168357,0.23119296,2.01799,1.8699627,-45.511894,
31620610,0.8575809,-0.1572633,2.1413581,0.65271026,-0.014331955,0.22160558,,,,
31620615,0.88872224,-0.2387096,2.3557534,0.62341547,0.06769333,0.20456137,3.2517757,1.1237984,-47.329735,
31620620,0.9510046,-0.35968125,2.6300356,0.61063236,0.1523818,0.18006031,,,,
31620625,1.0755695,-0.53095794,2.858804,0.61595863,0.23866814,0.14703715,4.0190506,2.029191,-46.702065,
31620630,1.279185,-0.86033624,3.0863745,0.62288284,0.31483448,0.10602451,,,,
31620635,1.2516372,-1.0519745,3.5642724,0.6351334,0.3792829,0.049565546,3.4044838,1.5753098,-46.86686,
31620640,1.1330609,-1.1657597,4.0565434,0.6580366,0.42668712,-0.010089209,,,,
31620645,0.9689707,-1.1969008,4.602712,0.7065061,0.4511882,-0.065482914,4.63323,1.7645578,-45.29084,
31620650,0.65755844,-1.1681552,5.0554576,0.7736176,0.45544925,-0.122474514,,,,
31620655,0.34854177,-1.0184379,5.3045874,0.8620345,0.4314808,-0.16881348,4.174204,0.56670094,-46.062218,
31620660,0.028745368,-0.87950003,5.426757,0.95631033,0.37502185,-0.20290191,,,,
31620665,-0.2994352,-0.7525397,5.4686775,1.0511187,0.27488708,-0.22900087,5.2529335,-0.16558361,-46.800728,
31620670,-0.5521581,-0.613602,5.406395,1.150721,0.15664285,-0.24711035,,,,
31620675,-0.69708467,-0.48185062,5.333333,1.2545841,0.03253964,-0.25776297,6.483301,-0.28736877,-46.30442,
31620680,-0.8096721,-0.44112754,5.261469,1.3696325,-0.092096195,-0.26095876,,,,
31620685,-0.9198641,-0.415975,4.989582,1.4873443,-0.21939518,-0.2598935,5.2550945,-1.4968987,-47.09478,7.0
31620690,-1.0839543,-0.32734227,4.475752,1.5922726,-0.34935734,-0.25083876,,,,
31620695,-1.1210842,-0.23152314,3.959526,1.6764284,-0.4777216,-0.23059876,2.9468212,-2.2458,-45.59588,
31620700,-1.2300785,0.020002104,3.1534476,1.7296916,-0.5847805,-0.1991735,,,,
31620705,-1.1414459,0.21882683,2.202443,1.7419423,-0.67532796,-0.16455244,2.9456673,-1.6515303,-45.293266,
31620710,-1.0025082,0.5230526,1.3592343,1.7035928,-0.74190694,-0.12833346,,,,
31620715,-0.7629603,0.73385465,0.7220371,1.6258285,-0.78505003,-0.08945134,4.949234,-2.828249,-47.086967,
31620720,-0.54257625,0.8512331,0.39505425,1.5198348,-0.80262697,-0.047373433,,,,
31620725,-0.5689266,1.040476,0.39026332,1.4117105,-0.79463744,0.006422374,2.6428375,-4.325778,-46.353172,
31620730,0.023954429,0.69073606,0.341156,1.3115758,-0.75042903,0.06980555,,,,
31620735,0.46352473,0.3409962,0.19143859,1.2167673,-0.6652079,0.10975293,2.7954273,-4.162136,-45.42269,10.0
31620740,0.89710635,0.09426193,0.22737077,1.1230241,-0.5304521,0.11987294,,,,
31620745,1.2228914,-0.0374894,0.18544987,1.0244873,-0.3573468,0.11720978,2.7954273,-4.162136,-45.42269,
31620750,1.5031624,-0.13211079,0.30402607,0.9136998,-0.16506672,0.10229609,,,,
31620755,1.7546877,-0.22673216,0.48967567,0.80184716,0.056508068,0.077262394,3.104803,-4.903777,-46.02546,
31620760,1.8469135,-0.20756835,0.81186754,0.6953208,0.29512706,0.039445546,,,,
31620765,1.803795,-0.063839644,1.9221718,0.5935881,0.520963,-0.00689342,4.330593,-1.9253378,-45.25564,
31620770,1.3282925,0.19127882,4.296091,0.5296723,0.6722304,-0.05056922,,,,
31620775,0.84799904,0.58054405,6.8281116,0.5552386,0.70152515,-0.07400502,4.0294685,-5.345894,-46.92594,
31620780,0.75337756,0.73505247,7.83541,0.6713524,0.617902,-0.07507029,,,,
31620785,0.85039455,0.85841954,7.8270264,0.80717343,0.50338614,-0.077200815,4.0306683,-7.098589,-45.822258,14.0
31620790,0.72702736,1.1255155,8.215094,0.9254177,0.38940293,-0.08305976,,,,
31620795,0.55335516,1.4297413,8.665443,1.0223567,0.23440708,-0.07293976,4.490658,-5.479351,-46.44863,
31620800,0.5928806,1.6656959,8.245037,1.0777503,-0.009005638,-0.042047113,,,,
31620805,0.9390272,1.6920462,7.0185523,1.0516515,-0.29130048,-0.010621842,2.0333157,-7.5966454,-47.56858,
31620810,1.4181229,1.448905,5.9693327,0.91476506,-0.5432353,0.0010960563,,,,
31620815,1.873264,0.9434591,5.037492,0.68093973,-0.7253953,-0.017546056,2.797781,-6.5091,-44.621635,
31620820,2.2697153,0.19127882,4.027797,0.3634912,-0.81647533,-0.05269975,,,,
31620825,2.635026,-0.78128546,2.8911428,-0.051961556,-0.7925069,-0.09744082,4.492012,-6.2210293,-46.74952,
31620830,3.127297,-1.8568554,2.2599344,-0.5584943,-0.6023574,-0.15070401,,,,
31620835,3.5345283,-2.91925,3.1821938,-1.0985829,-0.20714463,-0.22953351,2.1815224,-5.3484306,-45.269463,17.0
31620840,3.632743,-3.7888088,6.000474,-1.5678315,0.36010817,-0.33765775,,,,
31620845,3.563274,-4.5553617,9.649986,-1.870899,0.9891463,-0.4718809,3.8756046,-5.2031364,-47.086174,
31620850,2.9129014,-5.5003777,14.127134,-2.002459,1.5627906,-0.62474626,,,,
31620855,1.7546877,-5.736333,20.622475,-1.982219,1.9398938,-0.7669589,4.9487305,-3.8346329,-45.372932,
31620860,0.44076768,-5.1434517,26.727352,-1.788341,1.9478834,-0.8596368,,,,
31620865,-0.4767006,-4.174481,29.342014,-1.4027157,1.6437505,-0.86869156,5.1024017,-2.9617424,-46.307793,
31620870,-1.3079317,-3.2067075,29.979214,-0.8493113,1.2474726,-0.7914599,,,,
31620875,-1.9786656,-2.9264367,30.436749,-0.20003319,0.8181715,-0.6385946,6.026682,-4.1223745,-45.96183,
31620880,-2.155931,-2.932425,29.967237,0.45936492,0.31696498,-0.4479125,,,,
31620885,-1.8696713,-2.9024818,27.392097,1.0468577,-0.16613199,-0.2582956,4.1792393,-3.1185255,-46.019417,16.0
31620890,-1.4816039,-2.5922675,23.588078,1.4777569,-0.4809174,-0.08146187,,,,
31620895,-1.0947341,-2.290437,19.715786,1.6993316,-0.59703106,0.0873824,4.4889812,-4.878134,-45.681816,
31620900,-0.4551413,-2.1550925,16.13215,1.7078537,-0.55282265,0.2535635,,,,
31620905,0.44555867,-1.9299173,13.28153,1.5209,-0.37918472,0.40749407,4.0248737,-3.982153,-44.4656,
31620910,1.3618293,-1.7011491,11.395091,1.1981252,-0.10274883,0.53213,,,,
31620915,2.2804952,-1.4592059,10.2823925,0.79918396,0.21789551,0.62321,4.947916,-4.1132374,-44.28637,
31620920,3.3129466,-1.352607,9.860787,0.34964278,0.5182998,0.6732774,,,,
31620925,4.284313,-1.4041098,10.252448,-0.12866053,0.73721147,0.6722121,4.9498863,-4.4289026,-45.675545,
31620930,5.17064,-1.5310702,11.416651,-0.6154859,0.8495968,0.60563314,,,,
31620935,5.7743006,-1.6304826,13.339022,-1.0671577,0.8490642,0.47194254,4.3347683,-4.7307434,-45.532585,18.0
31620940,6.027024,-1.7897819,15.424286,-1.4437283,0.7563862,0.29138038,,,,
31620945,6.0701423,-2.0772395,17.394567,-1.7206968,0.60139036,0.09164345,4.332947,-4.2723017,-44.454582,
31620950,5.871318,-2.494053,19.331312,-1.9007263,0.44000292,-0.111821875,,,,
31620955,5.5479283,-2.8785272,21.29321,-1.9790232,0.30631235,-0.31102616,6.0259857,-4.1131096,-45.342903,
31620960,4.901149,-2.9503913,23.18324,-1.9555874,0.20564498,-0.5033062,,,,
31620965,3.9405618,-2.8054647,24.851692,-1.836278,0.11296704,-0.6689547,4.0224,-1.9230585,-44.79905,
31620970,2.8122916,-2.556335,26.18837,-1.6392041,0.010169106,-0.77974206,,,,
31620975,1.7223487,-2.2796574,26.71178,-1.3883346,-0.120858304,-0.82608104,4.1784344,-2.5288906,-46.026253,
31620980,0.7761347,-1.7490587,26.132076,-1.1326714,-0.2550815,-0.8010473,,,,
31620985,-0.0682715,-1.347816,25.863781,-0.89032394,-0.34829208,-0.7073042,3.8685913,-2.070485,-44.6464,15.0
31620990,-0.5018531,-1.2963133,25.070879,-0.6511723,-0.41327313,-0.5517757,,,,
31620995,-0.47310737,-1.5418499,23.727016,-0.4365217,-0.42818683,-0.37281144,3.8667793,-0.743804,-44.66181,
31621000,-0.08743532,-2.079635,22.016644,-0.25968796,-0.36799946,-0.19065139,,,,
31621005,0.3904626,-2.6401768,20.309864,-0.1350521,-0.23697202,-0.0351229,3.2511158,-0.8936014,-44.211098,
31621010,1.0240667,-3.189939,18.586319,-0.07326683,-0.078780405,0.084186606,,,,
31621015,1.6995916,-3.6354983,16.9011,-0.07326683,0.06875859,0.15023294,6.022764,-1.7545652,-45.370308,
31621020,2.2912748,-3.986436,15.444648,-0.13238896,0.19232918,0.15982032,,,,
31621025,2.635026,-4.1038136,14.3043995,-0.23625214,0.28926814,0.11188346,3.8697186,-2.519662,-45.10546,
31621030,2.635026,-4.046323,13.5114975,-0.36248586,0.34998816,0.015477113,,,,
31621035,2.3763142,-3.7337127,12.918615,-0.5057638,0.357445,-0.09903871,4.3327007,-2.966466,-45.862602,13.0
31621040,2.0313654,-3.278572,12.553305,-0.65809655,0.2919313,-0.21035877,,,,
31621045,1.5343037,-2.7719283,12.318548,-0.8184187,0.15983863,-0.30250403,3.8650208,0.29269218,-44.364326,
31621050,1.1438407,-2.4030247,12.142481,-0.9675556,-0.023919325,-0.36056092,,,,
31621055,0.73900473,-2.078437,11.929283,-1.1076378,-0.21886253,-0.36908302,4.4859695,-1.7987576,-46.80088,
31621060,0.40603325,-1.8113412,11.68734,-1.2397304,-0.38184786,-0.34138617,,,,
31621065,0.2647,-1.6400645,11.584334,-1.3494525,-0.4697321,-0.29131874,5.4064484,-0.30371094,-46.331017,
31621070,0.20720851,-1.5586183,11.532831,-1.4160315,-0.45801422,-0.22527245,,,,
31621075,0.3377621,-1.5945504,11.535227,-1.4362715,-0.34349838,-0.14857347,6.4824867,-0.5659714,-45.217857,
31621080,0.5569484,-1.697556,11.878979,-1.4117705,-0.15974042,-0.07773344,,,,
31621085,0.90069956,-1.8436803,12.804831,-1.3244189,0.030941743,-0.022872372,4.482279,0.27655125,-46.051186,11.0
31621090,1.3127218,-2.0065727,13.62648,-1.1779451,0.1710239,0.0010960563,,,,
31621095,1.1402473,-2.0556803,14.134321,-0.99099135,0.26689762,5.6342455E-4,5.710972,0.75598526,-44.788063,
31621100,1.0623944,-2.0437026,14.347519,-0.78592813,0.28926814,-0.030861849,,,,
31621105,1.0827558,-2.1131716,13.770208,-0.5861912,0.23760287,-0.092647135,5.4011383,2.0826302,-44.50161,
31621110,1.1534225,-2.014957,13.013237,-0.41308588,0.13373968,-0.1725419,,,,
31621115,1.1737841,-1.8185277,12.064628,-0.26607952,-0.013266692,-0.26415455,5.5600014,0.281312,-46.798256,
31621120,1.1246768,-1.6448555,11.22621,-0.14037843,-0.19755727,-0.35310405,,,,
31621125,1.1665977,-1.5837708,10.240471,-0.033852078,-0.39356577,-0.45430407,4.3285885,0.4169922,-46.366173,
31621130,0.935434,-1.4639969,9.055906,0.043379527,-0.58797634,-0.56402624,,,,
31621135,0.522214,-1.2364264,7.9515915,0.08545744,-0.7733322,-0.654041,3.2483044,2.0383644,-45.32847,8.0
31621140,0.09821426,-0.8663249,6.905965,0.09397954,-0.9405786,-0.70623887,,,,
31621145,-0.45394355,-0.50580543,5.946575,0.07587007,-1.0769324,-0.71316314,5.2500496,1.3200874,-46.04418,
31621150,-0.9498075,-0.15846106,5.025514,0.033792157,-1.1717409,-0.6806726,,,,
31621155,-1.5019654,0.21643133,4.163142,-0.03225418,-1.1994377,-0.6055715,3.7119904,2.4505348,-47.797935,
31621160,-1.9918406,0.47634077,3.36425,-0.11321421,-1.1456419,-0.49052304,,,,
31621165,-2.3703265,0.7134931,2.6959114,-0.21281634,-1.0204735,-0.3504409,2.9433517,1.418581,-47.03129,
31621170,-2.5703487,0.9171088,2.2216067,-0.31881005,-0.8351175,-0.19118401,,,,
31621175,-2.6326313,1.0979674,2.0335617,-0.41787958,-0.5964984,-0.02233974,3.2502728,1.7227001,-46.717644,
31621180,-2.5356145,1.1638432,2.2108269,-0.50310063,-0.32592154,0.14117819,,,,
31621185,-2.201445,1.1171312,2.7138777,-0.55529857,-0.05587723,0.28765196,2.7880764,2.5932016,-47.203514,
31621190,-1.7175585,0.86440825,3.5810409,-0.5712775,0.18647023,0.40163514,,,,
31621195,-1.2300786,0.56257796,4.7488365,-0.53452593,0.367565,0.47939938,3.2480469,2.4759588,-45.643074,
31621200,-0.8456043,0.34938037,5.842372,-0.45409855,0.47089556,0.5310647,,,,
31621205,-0.6108474,0.29548213,6.7514563,-0.33851746,0.4932661,0.56941414,2.0199585,1.5542984,-46.901054,
31621210,-0.45394352,0.30745953,7.15749,-0.1968374,0.46077558,0.59711105,,,,
31621215,-0.20960474,0.3038663,6.974236,-0.060483664,0.3973924,0.61681837,3.249054,1.7389135,-45.634514,
31621220,0.08384138,0.37213743,6.6041346,0.0646848,0.3238892,0.6205468,,,,
31621225,0.3868694,0.32782108,6.068745,0.17973325,0.24505973,0.6051005,4.633789,2.4807568,-46.69201,
31621230,0.52580714,0.28949344,5.3584857,0.2692154,0.16942601,0.5805994,,,,
31621235,0.7390048,0.24757257,4.581153,0.31875014,0.08580281,0.5497068,2.9412441,2.4597082,-46.42434,7.0
31621240,1.0312531,0.1816969,3.946351,0.336327,-0.014331955,0.5113573,,,,
31621245,1.2360666,0.21044263,3.3355043,0.32673964,-0.12778251,0.45702884,2.3268166,1.2803631,-45.806908,
31621250,1.3965636,0.21283811,2.9510298,0.2910533,-0.2486899,0.3973741,,,,
31621255,1.5163375,0.15534663,2.7318435,0.25217116,-0.37172788,0.33345827,3.4048862,1.2804909,-46.86344,
31621260,1.6109589,0.07030714,2.5521827,0.22287641,-0.47399315,0.2668793,,,,
31621265,1.706778,-0.0842012,2.5282278,0.19571221,-0.5517574,0.20030032,2.6369514,1.1075115,-47.809135,
31621270,1.7271397,-0.17882262,2.6204538,0.18612483,-0.60555315,0.12786241,,,,
31621275,1.6959984,-0.2758395,2.77616,0.19304904,-0.62845635,0.060218185,4.0202675,2.0129776,-47.78521,
31621280,1.4983714,-0.29021236,3.0181034,0.22021328,-0.62206477,0.0037592151,,,,
31621285,1.2995467,-0.31656262,3.1750073,0.25004065,-0.5949005,-0.036720794,3.711029,2.0291548,-46.4002,
31621290,1.095931,-0.35968125,3.2756171,0.28519434,-0.54376787,-0.06388502,,,,
31621295,0.84799904,-0.37525186,3.4229393,0.32407644,-0.47186264,-0.08305976,3.7113686,1.1562815,-45.616264,
31621300,0.61563754,-0.38722926,3.511572,0.37414384,-0.37865207,-0.08732082,,,,
31621305,0.43597677,-0.30817842,3.6421256,0.43273333,-0.27265835,-0.08625556,1.4062347,1.2339277,-47.995964,
31621310,0.25871134,-0.19559097,3.7259674,0.49824706,-0.16772988,-0.0702766,,,,
31621315,0.21319723,-0.08659671,3.8253796,0.57441336,-0.065997235,-0.047906063,2.789734,0.2555027,-45.78353,
31621320,0.21199949,-0.03868711,3.942758,0.66229767,0.038398586,-0.01594816,,,,
31621325,0.21439497,-0.044675842,4.171526,0.7672261,0.14226179,0.021868696,3.4018574,2.6233864,-45.795723,
31621330,0.23236105,-0.12731981,4.4182606,0.88280714,0.23600498,0.06234871,,,,
31621335,0.25032714,-0.23152316,4.515277,1.0042472,0.31270394,0.0991003,2.0227776,-0.509429,-46.877083,
31621340,0.25392035,-0.29500332,4.5536046,1.12622,0.37555447,0.12892766,,,,
31621345,0.2491294,-0.39561343,4.226622,1.2279526,0.41923028,0.15928768,3.4062958,0.24862766,-46.851448,
31621350,0.3449486,-0.5237715,3.5139675,1.2817484,0.43467662,0.18378875,,,,
31621355,0.51382977,-0.57168114,2.8468266,1.2854768,0.42562187,0.194974,3.0953827,0.86602306,-44.69964,
31621360,0.6719314,-0.6459409,2.2850869,1.2476599,0.3941966,0.1880498,,,,
31621365,0.79410076,-0.6375568,1.9593017,1.1842767,0.34679237,0.16887504,3.2524338,0.39138508,-47.01171,
31621370,0.8623719,-0.62198615,1.7760476,1.1070452,0.28660497,0.13478662,,,,
31621375,0.90309507,-0.59683365,1.8191662,1.0362052,0.22322182,0.09217609,2.0250587,-1.5528736,-47.63877,
31621380,0.9078859,-0.5357489,1.9928384,0.9866704,0.17208917,0.049565546,,,,
31621385,0.85758096,-0.5393421,2.2790983,0.95631033,0.13107653,0.011748692,4.9466076,-1.7801723,-46.015816,8.0
31621390,0.9246543,-0.60042685,2.6779454,0.9488535,0.08686807,-0.019676583,,,,
31621395,0.8839312,-0.6842686,3.1881824,0.95577776,0.04265964,-0.04950396,3.4078999,-1.7988863,-45.74436,
31621400,0.8312307,-0.7752967,3.7607017,0.9802788,0.004310156,-0.07080924,,,,
31621405,0.70187485,-0.7321781,4.345198,1.0207589,-0.035637226,-0.08785345,5.560953,-0.16554737,-47.102592,
31621410,0.45514056,-0.6998392,4.8398647,,,,,,,
31621415,0.16049668,-0.61839294,5.2782373,1.0814788,-0.06759514,-0.09584293,2.7924995,-1.5180378,-46.07244,
31621420,-0.20601152,-0.63755673,5.757333,1.150721,-0.09688988,-0.094777666,,,,
31621425,-0.47190964,-0.631568,6.01844,1.2242241,-0.13257618,-0.07560292,3.7211475,-3.7499104,-48.344963,
31621430,-0.5856949,-0.553715,6.19331,1.3046515,-0.16613199,-0.042047113,,,,
31621435,-0.5773107,-0.4315456,6.1561804,1.3802853,-0.19755727,-0.0015671025,4.949829,-4.1387167,-45.988426,12.0
31621440,-0.5761129,-0.29620108,6.024429,1.4410052,-0.22525412,0.04477186,,,,
31621445,-0.55694914,-0.2399073,5.875909,1.4825505,-0.24496149,0.09537187,2.7969933,-4.1829824,-46.815285,
31621450,-0.3976498,-0.28661916,5.5680904,1.4942684,-0.25241834,0.15396136,,,,
31621455,-0.22876856,-0.3776473,5.177627,1.4484621,-0.26200575,0.21361612,2.3348904,-2.8795185,-47.925224,
31621460,0.040722772,-0.4914326,5.0350957,1.3339462,-0.27798468,0.26581407,,,,
31621465,0.32099375,-0.71421206,5.01713,1.1603084,-0.28277835,0.2983046,2.7998142,-6.24671,-46.791313,
31621470,0.5880896,-0.9777147,5.053062,0.93766826,-0.26733202,0.31162035,,,,
31621475,0.9725639,-1.4472284,5.576474,0.68573344,-0.21619938,0.31268564,2.7998142,-6.24671,-46.791313,
31621480,1.5774221,-2.1263466,6.6053324,0.43273333,-0.1240541,0.30629405,,,,
31621485,2.1080208,-2.846188,8.18036,0.20636484,-0.004211952,0.28392354,2.3369522,-5.5120354,-46.501823,16.0
31621490,2.3763142,-3.1875439,9.787725,0.03805321,0.13959864,0.23492138,,,,
31621495,2.3918848,-3.0989113,11.58194,-0.06314682,0.2887355,0.1662119,2.796894,-5.484186,-45.097816,
31621500,2.1607213,-2.7982783,13.511497,-0.09776789,0.42881766,0.093773976,,,,
31621505,1.8900322,-2.4689002,15.552444,-0.06580998,0.54865986,0.026129747,2.9510498,-5.3413887,-45.55993,
31621510,1.5953883,-2.1694655,17.550274,0.03805321,0.6083146,-0.023937637,,,,
31621515,1.3594337,-1.8520644,18.983967,0.19091852,0.5667693,-0.059091326,2.7987518,-5.2194786,-47.11277,
31621520,1.1019197,-1.6436577,19.652306,0.376807,0.4208282,-0.084657654,,,,
31621525,0.7437957,-1.555025,19.600803,0.59252286,0.23121129,-0.08998398,1.409687,-4.166933,-44.373756,
31621530,0.44795412,-1.5011268,18.93486,0.8183587,0.043724906,-0.07293976,,,,
31621535,0.36291462,-1.5753865,17.862885,1.0154325,-0.12618461,-0.02766606,4.1843395,-6.2256985,-46.75712,19.0
31621540,0.56772804,-1.6364713,16.709461,1.1395358,-0.27106047,0.04317397,,,,
31621545,0.7773324,-1.6915673,15.312897,1.1901357,-0.36746684,0.12786241,2.030222,-6.8318043,-45.720345,
31621550,1.0983264,-1.6676124,13.779791,1.1533841,-0.38930473,0.21095295,,,,
31621555,1.5486765,-1.5801775,12.286209,1.0356724,-0.32911733,0.2833909,3.4169712,-7.5640526,-46.76072,
31621560,2.1092186,-1.3729687,11.426233,0.84179455,-0.19329622,0.3387846,,,,
31621565,2.5224385,-1.2232512,11.298075,0.58080494,-0.0026140567,0.358492,2.184286,-7.121971,-45.558388,
31621570,2.7440205,-1.0447881,11.79873,0.29265118,0.20990603,0.35369828,,,,
31621575,2.7619863,-0.8950707,12.984491,0.009823727,0.4064471,0.32919723,2.8000069,-7.2623577,-45.69622,
31621580,2.5919075,-0.74056226,14.644558,-0.2506332,0.54546404,0.29564142,,,,
31621585,2.511659,-0.581263,16.505844,-0.46901223,0.5864767,0.25675932,2.3367405,-6.2328663,-45.410133,23.0
31621590,2.4158397,-0.51898056,17.915585,-0.63732386,0.5113756,0.21574664,,,,
31621595,2.3020544,-0.3620767,18.63303,-0.75769866,0.3505208,0.17739716,3.2601318,-6.3685837,-45.54035,
31621600,2.0756817,-0.116540164,18.836647,-0.8359955,0.16836075,0.14064556,,,,
31621605,1.8984164,0.14456698,18.773165,-0.8908566,0.0234849,0.11827504,1.5677433,-5.3786144,-46.677254,
31621610,1.8792526,0.2367929,18.779154,-0.9441197,-0.071856186,0.11667715,,,,
31621615,1.9918399,0.17930141,18.746817,-1.010166,-0.1123362,0.13159083,4.4930744,-7.2482586,-46.428093,
31621620,2.1152072,0.04395689,18.883358,-1.072484,-0.09635725,0.15609188,,,,
31621625,2.176292,-0.035093904,19.107334,-1.1230841,-0.03084354,0.17366873,2.336338,-5.9380474,-45.41355,
31621630,2.2409697,0.04036367,19.472645,-1.1646293,0.061301757,0.19550663,,,,
31621635,2.2421675,0.13977602,19.896645,-1.1944567,0.14545758,0.2200077,3.8724747,-5.1614428,-44.300987,
31621640,2.161919,0.28590024,20.438023,-1.2226862,0.20671023,0.24610665,,,,
31621645,2.1211958,0.35417134,21.016531,-1.2423936,0.24346182,0.281793,4.027849,-5.0348625,-45.84623,
31621650,2.161919,0.364951,21.729187,-1.2317408,0.25411445,0.32759935,,,,
31621655,2.2709131,0.2367929,22.274158,-1.1864672,0.24878813,0.37500355,2.1803055,-5.3322163,-44.186333,
31621660,2.5368114,0.051143333,22.670609,-1.0985829,0.23920077,0.42080986,,,,
31621665,2.9967432,-0.2554779,22.702946,-0.97341454,0.22695024,0.45756146,3.8746986,-5.9147015,-45.375557,
31621670,3.5536919,-0.65073186,22.434654,-0.8269408,0.21523234,0.47407305,,,,
31621675,4.1369915,-1.0627542,21.633368,-0.6735428,0.20564498,0.45383307,3.7200394,-4.314068,-46.636055,
31621680,4.6232734,-1.4268669,20.35418,-0.5467765,0.18007864,0.39151514,,,,
31621685,4.993375,-1.7885842,18.87138,-0.4770017,0.13533759,0.29244563,3.4086132,-2.8214827,-45.11344,17.0
31621690,5.285623,-2.2461207,17.357437,-0.46208802,0.064497545,0.15236346,,,,
31621695,5.4377356,-2.722821,15.709349,-0.49138275,-0.013799324,-0.0095565785,1.7173595,-4.162264,-44.366158,
31621700,5.341917,-3.116877,14.080423,-0.5739407,-0.07931303,-0.19118401,,,,
31621705,4.9718156,-3.3612158,12.534142,-0.7086965,-0.11020567,-0.37281144,2.1784382,-3.7153492,-44.514626,
31621710,4.4292393,-3.3444476,11.229803,-0.90630287,-0.09848778,-0.5405904,,,,
31621715,3.678257,-3.1060975,10.489601,-1.1502482,-0.041496173,-0.68599886,3.716816,-1.9555225,-46.663445,
31621720,2.7344384,-2.7359962,10.509962,-1.4085746,0.055442803,-0.79785156,,,,
31621725,1.4804053,-2.413804,11.322029,-1.6413348,0.17049128,-0.86869156,5.252926,-1.0338259,-45.70733,
31621730,0.20361528,-2.0700529,12.299385,-1.8234948,0.2716913,-0.8766811,,,,
31621735,-0.8767455,-1.8844033,13.418074,-1.9406737,0.3356071,-0.8234179,3.8675938,-0.46520042,-45.748375,15.0
31621740,-1.6816263,-1.7861887,14.537959,-1.9859474,0.37129343,-0.7142284,,,,
31621745,-2.0900555,-1.7179174,15.542863,-1.9545223,0.4043166,-0.5581673,2.9431953,0.40756226,-45.6267,
31621750,-2.196654,-1.6987537,16.30702,-1.8543874,0.42828503,-0.379203,,,,
31621755,-1.9798634,-1.8005615,16.808872,-1.7095116,0.43893766,-0.1959777,2.7914925,-0.7809925,-46.081,
31621760,-1.480406,-1.9933975,16.848398,-1.525221,0.4362745,-0.02180711,,,,
31621765,-0.90549123,-2.2245615,16.673529,-1.3201578,0.44053555,0.124666624,1.8640633,1.4346666,-44.89161,
31621770,-0.26589847,-2.4988437,16.368105,-1.0980504,0.47249347,0.23545402,,,,
31621775,0.3904626,-2.6653295,16.07466,-0.86209446,0.5230935,0.30416355,2.6370888,0.3820467,-47.02691,
31621780,0.8791402,-2.7695327,15.647066,-0.61495334,0.5779546,0.33026248,,,,
31621785,1.0971289,-2.7491713,15.25301,-0.36088797,0.63175035,0.32014248,3.4014893,0.8915386,-43.29943,10.0
31621790,1.2169027,-2.6437702,14.408604,-0.11108369,0.6637083,0.2903151,,,,
31621795,1.4552528,-2.5024369,13.093485,0.09717534,0.6402725,0.25303087,4.1737194,1.2967968,-46.53498,
31621800,1.7570832,-2.2748666,11.77717,0.23672485,0.5550514,0.1880498,,,,
31621805,1.831343,-2.0760417,10.507566,0.31821752,0.41230607,0.091110826,3.7121658,-0.3015957,-44.516,
31621810,1.7283374,-1.9011716,9.205625,0.35283858,0.22908077,-0.013817633,,,,
31621815,1.5822132,-1.6161096,8.164788,0.35070804,0.028278584,-0.111821875,3.4046764,0.55965996,-45.77175,
31621820,1.4109365,-1.4831606,7.2329473,0.31821752,-0.17092568,-0.1991735,,,,
31621825,1.1929479,-1.3681777,6.483163,0.2665522,-0.36533627,-0.28066614,4.63344,2.4853888,-46.382545,
31621830,0.8168578,-0.8938729,6.012451,0.21488695,-0.53205,-0.3525714,,,,
