Date created: 2021-10-22-21-50-17-93000000
Timestamp,acc_x,acc_y,acc_z,gyro_x,gyro_y,gyro_z,mag_x,mag_y,mag_z,light
31615320,0.9378295,-1.1453983,10.171001,-0.021601545,0.049051225,0.042641334,3.8678417,-1.7710352,-44.340355,
31615330,0.8923154,-1.1801326,10.090753,-0.014411017,0.03706701,0.033586595,3.253687,-1.651494,-45.59513,
31615340,0.8252419,-1.1603699,9.993736,-0.012546807,0.01895753,0.01760764,2.638279,-2.2388878,-44.82981,
31615350,0.66115177,-1.0932965,9.809883,-0.0048236456,0.017093318,0.0010960565,2.637125,-1.644618,-44.5272,
31615360,0.4719089,-1.0154434,9.831443,-0.0018941713,0.03706701,-0.007692368,2.1767807,-1.3776503,-45.934624,
31615370,0.3515361,-1.0130479,9.804493,7.6898735E-4,0.04345859,-7.6815486E-4,3.09791,-1.4832573,-44.053307,
31615380,0.39405584,-1.0364039,9.678731,-0.0082857525,0.04159438,0.014145534,3.4068012,-1.4948015,-45.128853,
31615390,0.46532136,-1.0328107,9.712268,-0.026128914,0.046920694,0.017075008,2.1778965,-2.6950674,-45.30027,
31615400,0.4749033,-1.0531722,9.848211,-0.030656286,0.06875859,0.016808692,4.1753216,-0.7507162,-45.42788,
31615410,0.5431744,-1.0567654,9.962595,-0.03864576,0.08047649,0.01574343,3.4053898,-0.4629383,-45.14083,
31615420,0.54437214,-1.059161,10.0709915,-0.039711025,0.078079656,0.016009744,1.8674049,-0.6360092,-45.33184,
31615430,0.55215746,-1.0471835,10.15104,-0.037580498,0.07621544,0.01760764,3.1014996,-2.1099539,-46.52221,
31615440,0.5413778,-1.0094547,10.247059,-0.030922603,0.06955755,0.025064485,3.098606,-1.4925222,-44.67225,
31615450,0.5958749,-0.98130786,10.273409,-0.014677335,0.05517649,0.033586595,2.790329,-1.054965,-44.68499,
31615460,0.63779575,-1.0334095,10.2566395,0.005296357,0.036268063,0.03731502,4.02306,-2.6554708,-44.48101,
31615470,0.6222252,-1.059161,10.079974,0.019144785,0.008304894,0.034119226,5.1001205,-1.9182978,-45.54612,
31615480,0.5144287,-1.0280197,9.786528,0.018878467,-0.0036793202,0.041842386,4.48324,-2.0518818,-44.01226,
31615490,0.4443609,-0.999274,9.601477,0.0015679346,0.02534911,0.052495025,2.9469223,-0.94459724,-47.313362,
31615500,0.30961525,-1.0244265,9.615251,-0.019737335,0.06076912,0.07166976,3.2540894,-1.9463129,-45.591713,
31615510,0.26889208,-1.0477824,9.649986,-0.030389968,0.08793334,0.100431874,4.1789455,-3.4040794,-45.397057,
31615520,0.33476776,-1.1112626,9.697296,-0.04077629,0.11323334,0.120139256,4.022814,-1.3496351,-45.88903,23.0
31615530,0.43358123,-1.1741439,9.855397,-0.036248922,0.13666916,0.124134,4.4830494,-1.036233,-45.107384,
31615540,0.42998803,-1.1801326,10.069793,-0.019204702,0.12814704,0.12147084,2.9448528,-1.9301348,-44.206703,
31615550,0.38746825,-1.1849236,10.036856,-0.010948911,0.06316596,0.111084506,2.9460697,-1.9463491,-45.289833,
31615560,0.2730842,-1.1256355,9.824855,-0.017340492,-0.028979328,0.11081819,5.5619526,-1.770834,-46.000618,
31615570,0.26829323,-1.0022683,9.538595,-0.04849945,-0.09129725,0.12706347,3.0990086,-1.7873411,-44.66883,
31615580,0.6629483,-0.98669773,9.487093,-0.08019104,-0.09236251,0.13958031,3.2555008,-2.978176,-45.57972,
31615590,1.5289137,-1.0196354,9.796709,-0.08205525,-0.06732882,0.08764872,2.9472332,-1.6723766,-46.68586,
31615600,1.3983603,-0.98490113,9.669148,-0.07752788,-0.06519829,0.04690239,2.6410255,-2.999096,-46.368584,
31615610,1.399558,-0.93220055,9.756584,-0.07246788,-0.023919327,0.013080272,3.4071484,-1.4994345,-45.438316,
31615620,1.3031399,-0.8920763,9.885342,-0.055956297,0.00990279,-0.015149213,3.100071,-2.8145704,-44.347374,
31615630,1.1594113,-0.8633305,9.983556,-0.0426405,0.025881741,-0.02233974,3.71525,-1.9346762,-45.270836,
31615640,1.0564057,-0.88009894,10.121296,-0.013878386,0.03200701,-0.02953027,2.791647,-2.5197906,-44.048927,
31615650,1.054609,-0.9226187,10.12429,0.0076932004,0.016560687,-0.031394478,2.331047,-1.8152285,-45.770958,
31615660,1.1462361,-0.9819068,10.030866,0.022340573,-0.0012824773,-0.043911323,4.1746445,-1.7547846,-43.55909,
31615670,1.1821682,-0.9837034,10.054222,0.03858584,-0.022854064,-0.06894502,4.1763287,-1.4877615,-45.41932,
31615680,1.137253,-0.93220055,9.9128895,0.050570056,-0.05454565,-0.09584293,4.1763287,-1.4877615,-45.41932,
31615690,1.1234789,-0.893873,9.603273,0.036987945,-0.08091093,-0.12007767,4.946205,-1.4853535,-46.01925,
31615700,1.0749705,-0.8507544,9.261918,0.006894253,-0.07531829,-0.13765453,4.6369934,-1.6142683,-44.477806,
31615710,0.8977052,-0.77529675,9.242154,-0.03678155,-0.016196167,-0.14031768,3.0988712,-1.0618773,-45.451057,
31615720,0.7683494,-0.7705057,9.525421,-0.06074998,0.0503828,-0.13073032,2.9471703,-2.250432,-45.905357,
31615730,0.6892986,-0.76451707,9.862585,-0.0660763,0.064231224,-0.12300714,2.947178,-1.3821917,-46.998756,
31615740,0.6910951,-0.88189554,10.009905,-0.050896294,0.026148058,-0.12753451,3.2554455,-2.6879902,-45.892616,
31615750,0.6228241,-0.953161,10.024878,-0.028792076,-0.023386694,-0.13712189,2.6407146,-2.2713156,-46.996086,
31615760,0.5617393,-0.9825057,9.933251,-0.009883648,-0.06333408,-0.14484505,3.1014996,-2.1099539,-46.52221,
31615770,0.5180219,-1.0190365,9.836833,0.00316583,-0.08330777,-0.14244822,3.2526264,-0.6242628,-45.916588,
31615780,0.49586368,-1.077127,9.637409,0.008758464,-0.08676988,-0.13685557,4.17795,-1.7987947,-46.49903,
31615790,0.6054568,-1.0950931,9.355342,0.0021005664,-0.08304146,-0.13658926,3.1024513,-2.5568142,-46.826515,
31615800,0.6419879,-1.0795225,9.239161,-0.026661549,-0.07318777,-0.14431243,2.7915478,-1.0711794,-45.76812,
31615810,0.44735527,-1.0208333,9.358934,-0.06501104,-0.0452246,-0.15682927,4.3307495,-0.91432,-46.660225,
31615820,0.21798818,-0.9489689,9.478109,-0.08818051,-0.010603533,-0.14457874,3.8707619,-2.5335598,-46.03385,
31615830,0.082643636,-0.87650573,9.609262,-0.10016473,0.063432276,-0.11262083,3.4033203,1.3013382,-45.470848,
31615840,0.12995434,-0.93279946,9.92786,-0.093240514,0.16383338,-0.061488174,0.6402054,-2.5825863,-46.11364,
31615850,0.33895984,-1.0423925,9.890731,-0.07726157,0.20671025,-0.02633448,2.9460697,-1.9463491,-45.289833,
31615860,0.53359246,-1.1070704,9.777544,-0.07246788,0.17022496,-0.031394478,2.332264,-1.8314419,-46.854073,
31615870,0.55874497,-1.0950931,9.797906,-0.07939209,0.0905965,-0.06867871,4.332506,-1.9508171,-46.95771,22.0
31615880,0.38866597,-0.9591497,9.751793,-0.071136296,0.016827002,-0.104365036,2.944395,-1.3451309,-44.523018,
31615890,0.14552495,-0.8501555,9.463138,-0.044238396,4.910212E-5,-0.10942504,3.8667793,-0.743804,-44.66181,
31615900,0.1485193,-0.8357826,8.908585,-0.026661547,0.072220705,-0.08172819,3.4053268,-1.0409937,-44.360313,
31615910,0.15271139,-0.6974437,8.543274,-0.056755245,0.17901339,-0.054031327,5.100588,-1.6350603,-46.323204,
31615920,0.023355555,-0.62737596,8.840913,-0.10921948,0.27488708,-0.032193426,4.6390266,-1.3518782,-46.6475,
31615930,0.002993986,-0.6423477,9.297251,-0.13878053,0.28687128,-0.0095565785,5.253584,-1.7662382,-45.389305,
31615940,0.04371711,-0.5818619,9.660166,-0.12679632,0.22348814,0.013080271,3.2526798,-0.91444874,-45.60369,
31615950,0.09282442,-0.5680879,9.487692,-0.06953841,0.13906598,0.03971186,2.793213,-2.540637,-45.441536,
31615960,0.14372835,-0.59443814,8.946313,-0.008552068,0.14945231,0.06660976,3.4043827,0.27410698,-45.14939,
31615970,0.25451922,-0.6591161,8.410325,0.026068997,0.24985339,0.09004556,3.867941,-0.46983242,-46.057823,
31615980,0.5599427,-0.8172176,7.952789,0.008492148,0.34279764,0.09830135,4.4815826,0.2858162,-45.43226,
31615990,0.60805196,-0.94817036,8.007885,-0.048765764,0.38460922,0.07033819,5.253273,-1.0384579,-46.016777,
31616000,0.3557282,-0.88788426,8.422901,-0.08844683,0.34972185,0.03065712,5.7155304,-1.330904,-46.311424,
31616010,0.06886965,-0.8106301,8.801986,-0.06767419,0.2799471,0.015743429,5.405981,-0.5869465,-45.553917,
31616020,-0.07965003,-0.74475443,8.871454,-0.0021604868,0.21070498,0.030923437,5.2535305,-1.4760523,-45.702187,20.0
31616030,-0.09042968,-0.71061885,8.760664,0.07400585,0.1656976,0.06527818,7.1017227,-2.7793503,-45.950645,
31616040,-0.029943854,-0.7381668,8.653466,0.14511219,0.16489863,0.0940403,4.0204334,-1.6073923,-43.409874,
31616050,0.08623686,-0.8573419,8.49776,0.20876169,0.17688285,0.10629083,5.4063835,-0.8817644,-45.5505,
31616060,0.2311633,-1.0088558,8.2821665,0.24737749,0.16942601,0.09803504,6.175354,-1.5909224,-44.43981,
31616070,0.22996557,-1.0873079,8.230065,0.2641554,0.15824074,0.0722024,5.406988,-1.3239918,-45.545357,
31616080,0.07605608,-1.08611,8.258213,0.2676175,0.13853337,0.05595713,7.4068203,-2.0167894,-44.559013,
31616090,0.12037244,-1.1765394,8.32289,0.25669855,0.10045019,0.04743502,5.5583534,-2.0123768,-42.43833,
31616100,0.24134408,-1.1729462,8.44446,0.23805644,0.04212701,0.034918174,6.3310966,-2.4823084,-45.04467,
31616110,0.27188644,-1.1525846,8.59298,0.2391217,8.480493E-4,0.015210798,5.4063835,-0.8817644,-45.5505,
31616120,0.29763788,-1.187918,8.733116,0.25882906,0.005908051,0.00988448,5.2527695,-2.0448408,-44.302742,
31616130,0.3120107,-1.2208557,8.910381,0.29158592,0.07248702,0.0029602675,4.330593,-1.9253378,-45.25564,
31616140,0.2413441,-1.169353,9.215206,0.34564805,0.19712287,-0.0060944725,4.020241,-0.59174347,-44.504982,
31616150,0.14612381,-1.1861212,9.624833,0.4116944,0.28261024,-0.0058281566,5.253639,-2.0564222,-45.07641,
31616160,0.05090355,-1.1717485,9.918279,0.4668218,0.2703597,-0.0042302613,6.332651,-3.371395,-45.343864,
31616170,0.023954425,-1.1519858,10.174595,0.50304073,0.16356707,-2.3552286E-4,5.4095535,-2.9501238,-45.836006,22.0
31616180,0.19702774,-1.0669463,10.194358,0.5088997,0.0013806801,-0.0039639454,5.716007,-2.9292412,-44.745262,
31616190,0.46951342,-1.108867,9.908697,0.48200178,-0.13284251,-0.023405006,6.486002,-2.6389637,-45.812828,
31616200,0.6222252,-1.1465958,9.579319,0.41169438,-0.16959411,-0.043378692,6.79352,-3.6453114,-44.400642,
31616210,0.5018524,-1.0735338,9.554765,0.29185224,-0.07052461,-0.06441765,6.4853992,-2.1967363,-45.81797,
31616220,0.31320843,-1.0124491,10.225499,0.15230271,0.071155444,-0.05829238,7.56411,-4.6655025,-44.36965,23.0
31616230,0.091626674,-1.1525846,11.470549,0.02899847,0.13693547,-0.030062899,6.0241737,-2.7864275,-45.358315,
31616240,-0.013175495,-1.3562002,12.658108,-0.03438471,0.12388599,-7.6815486E-4,6.0234604,-1.7638302,-45.98922,
31616250,-0.038328018,-1.36698,13.643249,-0.029591022,0.08766702,0.025064487,7.4074802,-2.7492018,-44.24099,
31616260,0.014971375,-1.3915336,14.679292,0.04178163,0.048252277,0.03358659,6.025173,-4.391713,-44.256355,
31616270,-0.06108507,-1.3454206,14.933213,0.14830798,-0.030843541,0.02160238,5.561796,-2.7818499,-44.596046,
31616280,-0.25092673,-1.1400083,14.671507,0.22021328,-0.13683726,0.025064487,6.485033,-3.928585,-43.321693,
31616290,-0.31680238,-0.7836809,14.410999,0.23645854,-0.2718594,0.06607713,3.8708515,-4.8504114,-43.221275,
31616300,-0.0011981167,-0.6351613,13.939689,0.19251642,-0.40155524,0.13079189,5.2537117,-3.3599415,-43.513664,
31616310,0.4449598,-0.5183817,13.587553,0.091849014,-0.46866685,0.18432137,6.026123,-4.8385735,-44.560677,
31616320,0.84680134,-0.46268684,13.410288,-0.03358576,-0.46840054,0.21468139,4.179203,-3.841673,-45.08245,
31616330,1.2719986,-0.5495229,13.356389,-0.17260265,-0.41966474,0.22879612,4.951359,-4.8827114,-46.444084,
31616340,1.5780212,-0.6064155,13.752242,-0.31055427,-0.349091,0.20908874,5.562912,-4.099267,-43.961708,
31616350,1.701987,-0.6483364,14.178039,-0.42586905,-0.32006258,0.16301611,5.561384,-3.3552723,-43.506065,
31616360,1.8834445,-0.8717148,14.382254,-0.53772175,-0.354151,0.117742404,5.4097996,-4.2559595,-44.427986,
31616370,2.0367553,-1.1795337,14.394829,-0.66235757,-0.38424468,0.06820766,4.949482,-4.1340847,-45.678978,
31616380,2.0481339,-1.7460644,14.330151,-0.79231966,-0.35228682,0.027195014,4.6398144,-3.6779957,-44.453835,
31616390,1.9618967,-2.4497364,14.59006,-0.90310705,-0.2516194,-0.0138176335,6.1770306,-2.1921406,-45.206627,
31616400,1.7618741,-3.0276458,15.070952,-0.9387934,-0.12325515,-0.079863966,4.0241394,-1.9462214,-46.346382,
31616410,1.4247105,-3.3767862,15.414105,-0.8852639,-0.06439935,-0.17706928,4.0241394,-1.9462214,-46.346382,
31616420,0.8030838,-3.3863688,15.297925,-0.7760744,-0.12032567,-0.2899872,4.1760178,-0.75998116,-46.046806,20.0
31616430,0.14013512,-3.006086,14.458908,-0.6628902,-0.2838436,-0.3752083,4.4831314,-1.4715109,-44.638054,
31616440,-0.51143503,-2.1485047,13.173734,-0.5955123,-0.48704264,-0.4007746,3.404171,-0.4467249,-44.0577,
31616450,-0.64917505,-1.2448105,11.420244,-0.6029691,-0.6380437,-0.33792406,4.945261,-0.1702528,-46.808327,
31616460,-0.12755957,-1.136415,9.082855,-0.74065447,-0.6755942,-0.24524614,3.0953007,1.301301,-45.16897,
31616470,0.44376206,-1.6125165,7.4347663,-1.0043072,-0.5208647,-0.19384718,3.0967102,0.2694378,-45.15699,16.0
31616480,0.69588614,-1.9874089,7.388055,-1.2887325,-0.20394887,-0.19011876,4.3264465,0.7349739,-44.822258,
31616490,0.5940783,-2.3437364,8.6055565,-1.489002,0.05970386,-0.2143535,5.249958,0.88712597,-45.420113,
31616500,0.43956995,-2.71803,10.185973,-1.5411999,0.16862707,-0.24231666,4.3242855,2.066288,-44.528206,
31616510,0.26949096,-2.8809226,11.625058,-1.4128356,0.14332706,-0.28652507,3.7105618,1.7459173,-45.623116,
31616520,0.034734067,-2.869544,12.892864,-1.0927241,0.037067007,-0.33339667,3.247507,3.4962416,-46.42872,13.0
31616530,-0.45813563,-2.7353973,13.4037,-0.6109586,-0.12165725,-0.3570988,5.245865,3.2572517,-44.673836,
31616540,-0.86676437,-2.4549267,12.419559,-0.084984735,-0.298491,-0.33579352,3.2481842,1.750495,-44.860847,
31616550,-1.0138867,-1.9945953,10.944143,0.32061434,-0.49769527,-0.26841563,3.0940819,1.3175154,-44.08584,
31616560,-0.988734,-1.4759742,8.673828,0.58826184,-0.63431525,-0.16641665,2.63035,4.813585,-46.459328,
31616570,-0.6342033,-1.0190367,6.273558,0.6641618,-0.66627324,-0.07853239,3.4011059,2.9228377,-45.489677,9.0
31616580,-0.16648611,-0.5483252,4.564385,0.5821365,-0.62313,-0.025269214,3.4015636,2.3378334,-45.173363,
31616590,0.14432722,-0.3069807,3.7481253,0.45137542,-0.48730892,0.012015007,2.6315498,3.0608902,-45.355644,
31616600,0.30182993,-0.23451748,3.6708713,0.3581649,-0.28544152,0.03917923,3.2477818,2.0453138,-44.864265,
31616610,0.3084175,-0.23571524,3.7295606,0.32354382,-0.03563723,0.07672976,3.7114315,1.7343359,-46.396782,
31616620,0.22757007,-0.35369253,3.7792668,0.30703223,0.27462077,0.13478662,3.2474346,2.0499458,-44.554802,10.0
31616630,0.020960066,-0.33632532,4.2218313,0.3046354,0.60139036,0.19923505,1.558075,1.6970196,-46.759438,
31616640,-0.12516412,-0.3998055,4.659605,0.3400554,0.8450694,0.26448247,4.017887,1.7552195,-45.306038,
31616650,0.1371408,-0.5501218,4.5398307,0.33046803,0.8786252,0.2849888,4.3237457,3.0865707,-45.31385,
31616660,0.47370553,-0.73637015,4.5278535,0.29824382,0.7475978,0.23944876,3.4022598,2.3285685,-45.792305,
31616670,0.6437845,-0.8273984,4.7877626,0.32594067,0.54573035,0.16834241,3.865368,0.28805923,-44.67379,
31616680,0.6749257,-0.8118278,4.958441,0.4119607,0.311905,0.10096451,4.636261,0.42166138,-46.358574,
31616690,0.75936633,-0.71301425,4.390114,0.5043723,0.106309146,0.047967654,5.0963593,1.4605303,-46.359154,
31616700,0.6934907,-0.61779404,3.66608,0.56376076,0.01709332,0.02160238,4.3255024,2.0500746,-45.611336,
31616710,0.65097094,-0.49502572,3.1360807,0.60397446,0.06609544,-0.0018334184,4.3283787,-0.30383873,-45.274467,
31616720,0.4455586,-0.41357952,2.812691,0.62741023,0.2216239,-0.008491315,4.326557,0.15460396,-44.19648,12.0
31616730,0.1012086,-0.48783934,3.1414704,0.6505797,0.41017556,-0.013285001,5.0979614,-0.5869827,-45.252052,
31616740,-0.18205673,-0.673489,3.873289,0.7041092,0.56889987,-0.0082249995,4.3282585,-0.5917072,-44.806847,
31616750,-0.30961594,-0.76272047,4.980599,0.8175598,0.5806177,0.004824478,5.560854,-1.4667501,-45.385124,
31616760,-0.2401471,-1.0196356,5.3393216,0.9781482,0.39126712,0.015743429,5.0978413,-0.8748522,-44.78443,
31616770,-0.061085068,-1.1992965,4.342803,1.0585756,0.13187547,0.00668869,4.9449043,-1.0338621,-45.405464,14.0
31616780,-0.16349179,-1.1208445,3.7672894,1.0399334,-0.058274075,-0.007692368,4.484001,-1.4830923,-45.41172,
31616790,-0.235955,-0.93160164,3.7930405,0.9933283,-0.16826251,0.015210798,5.560854,-1.4667501,-45.385124,
31616800,0.011977021,-1.0873078,4.181108,0.9717567,-0.110205665,0.0370487,5.408663,-1.92521,-46.312187,
31616810,-0.0071868002,-1.0597599,4.83148,1.0093073,0.16569757,0.06021818,4.9472675,-2.5125856,-45.697807,
31616820,-0.1844522,-1.0160422,5.5818634,1.0684292,0.48367876,0.12013924,5.10178,-4.2559958,-44.12612,18.0
31616830,-0.25511885,-0.8309917,6.1244397,1.1283505,0.6972641,0.1560919,6.179392,-3.670864,-45.49897,
31616840,-0.62042934,-0.05545547,6.6268916,1.1264863,0.67782307,0.1648803,6.6406155,-3.081172,-45.958626,
31616850,-0.73720884,0.35836345,6.7508574,0.9581746,0.286605,0.18698454,6.639452,-3.3551445,-44.5626,
31616860,-0.12636185,-0.6519296,6.919739,0.5869302,-0.3307152,0.2082898,6.17898,-4.2442865,-44.40899,
31616870,0.935434,-2.533578,7.8707438,0.12913324,-0.7696037,0.13505293,5.100975,-3.666359,-44.132973,23.0
31616880,1.44088,-3.6307073,9.916482,-0.24424161,-0.56320894,-0.059091333,6.3384476,-6.487831,-46.70051,
31616890,1.110304,-3.3366623,13.733677,-0.31694585,0.09139544,-0.29611248,6.336012,-6.4554043,-44.53425,
31616900,-0.13175167,-2.6916795,18.97738,0.01941109,0.524425,-0.3435167,3.7210464,-5.051113,-46.627495,
31616910,-1.4474683,-2.119759,22.771818,0.376807,0.37715238,-0.23752297,5.255123,-4.3918047,-43.501686,
31616920,-2.3918858,-1.4364488,21.920227,0.71103346,3.154166E-4,-0.021274481,5.719349,-4.999917,-45.185493,25.0
31616930,-1.3720106,-1.2909235,18.631233,0.966963,-0.27745205,0.36488354,4.335573,-5.3203783,-45.525734,
31616940,0.6707336,-1.5705956,15.898591,0.8127661,-0.14296252,0.68845737,3.8732243,-5.4608936,-44.607033,
31616950,2.4811168,-1.7849909,15.350027,0.336327,0.26902816,0.8016416,5.7223244,-6.0526257,-46.56611,
31616960,3.4956014,-1.9245276,17.332287,-0.22533318,0.5808841,0.6868595,6.3372307,-6.4716187,-45.617393,
31616970,3.5662682,-1.5077143,18.970194,-0.70390284,0.4445303,0.40562987,5.719944,-6.3103848,-44.086952,28.0
31616980,2.9494328,-0.9010594,19.996656,-1.0650271,0.06902492,0.07113713,4.953455,-6.79208,-45.95762,
31616990,1.9469247,-0.21954575,21.246496,-1.3097714,-0.26866361,-0.18878718,6.3346024,-5.42354,-44.54624,
31617000,0.96298194,0.07869133,21.322552,-1.3960578,-0.44842684,-0.30277038,5.5649815,-3.1137285,-47.06835,
31617010,0.40663213,-0.6124042,20.875797,-1.3864704,-0.39542997,-0.27747035,4.0248184,-3.691967,-44.778496,
31617020,-0.19942395,-1.7328894,20.242193,-1.3350716,-0.16187094,-0.21248928,4.9486675,-4.4126883,-44.592415,25.0
31617030,-1.2133101,-2.512019,19.275618,-1.2746178,0.0820744,-0.1291324,4.6382656,-1.9206686,-45.24804,
31617040,-1.885242,-2.7629452,18.126986,-1.3020482,0.16623023,0.03172238,5.410074,-2.9570732,-46.300194,
31617050,-1.0929376,-2.7611485,17.32809,-1.4221568,0.0956565,0.2650151,5.100178,-2.2084827,-45.233223,
31617060,1.1204848,-2.777318,17.062195,-1.5212263,-0.05854039,0.45170254,6.1770763,-0.60075283,-47.237007,
31617070,3.6057937,-3.1923347,16.247732,-1.4991221,-0.2228573,0.48312777,5.4039497,-0.8493357,-43.38424,20.0
31617080,5.6551256,-3.7947974,14.927824,-1.3758178,-0.2518857,0.34144777,2.9442024,-0.32948303,-45.61814,
31617090,6.194108,-4.2703,13.009046,-1.2072399,-0.09609093,0.048500277,5.5587845,0.2975254,-45.71514,
31617100,4.798143,-3.9864357,11.12021,-1.1025777,0.23786919,-0.3014388,5.4064484,-0.30371094,-46.331017,
31617110,2.6290371,-3.2630014,10.841736,-1.102844,0.6479956,-0.5853315,5.093731,2.508607,-45.288002,
31617120,0.35453045,-2.5497477,11.435217,-1.103643,0.8852831,-0.7278105,5.093731,2.508607,-45.288002,14.0
31617130,-1.5331067,-1.6053301,11.849633,-1.0423903,0.80405676,-0.7336694,6.1706657,2.0896711,-44.792076,
31617140,-2.481716,-0.76451707,11.942459,-0.93080395,0.43414396,-0.6519104,6.479208,2.082759,-45.558144,
31617150,-2.8859532,-0.2189469,11.646017,-0.73080075,-0.032707747,-0.4998441,5.7085533,2.5248938,-44.808617,
31617160,-2.800315,0.25954998,10.795623,-0.4279996,-0.42445838,-0.29025352,6.785471,3.1192918,-45.562523,
31617170,-2.0792756,0.43262327,9.464336,-0.08338683,-0.60928154,-0.04284606,3.7099037,2.4783306,-45.94114,11.0
31617180,-1.1594119,0.5523972,8.225274,0.2423175,-0.558149,0.17313612,5.4014034,2.513276,-45.280403,
31617190,-0.2832657,0.6524085,6.986213,0.51688915,-0.3621405,0.32466984,4.6321144,3.0819745,-45.925194,
31617200,0.38387507,0.58952713,5.702835,0.7379314,-0.14535937,0.42533726,5.246727,2.37743,-44.354103,
31617210,0.8701572,0.5008944,4.493718,0.8678935,0.0032448936,0.47513834,5.095085,1.7669287,-45.58892,
31617220,1.1312644,0.5326345,3.4438999,0.88893247,0.0503828,0.45809412,4.636051,-0.29916954,-45.26687,
31617230,1.37201,0.5631769,2.3407817,0.798385,-0.014864588,0.38246042,4.174204,0.56670094,-46.062218,
31617240,1.560055,0.7146909,1.7275392,0.62474704,-0.10408041,0.27380353,3.8696804,-0.49299526,-47.605156,
31617250,1.3851851,0.49430686,1.7652678,0.45829964,-0.1613383,0.15582559,5.0963593,1.4605303,-46.359154,
31617260,1.2097163,0.77697337,2.1293807,0.3448491,-0.19595937,0.075398184,5.4064484,-0.30371094,-46.331017,
31617270,0.93962604,0.5835384,2.4797196,0.26948172,-0.21779728,0.06314766,5.097559,-0.29216576,-45.25547,12.0
31617280,0.5054456,0.44160634,2.8306572,0.23619223,-0.22631937,0.0722024,5.096899,0.44024658,-45.57351,
31617290,0.22936669,0.44639727,2.9749846,0.24870907,-0.1730562,0.114013985,4.63715,-0.60325146,-45.882393,
31617300,0.40244,0.12180994,3.0761936,0.29371646,-0.049219333,0.16887504,5.713516,0.14318657,-46.328545,
31617310,0.58988625,-0.38543263,3.6912327,0.37920386,0.17129022,0.1813919,4.9451237,0.55521107,-47.590553,
31617320,0.6587562,-0.85614413,4.684757,0.5288734,0.3939303,0.13238978,6.327965,0.30919838,-45.696144,
31617330,0.41920835,-0.93220055,5.4770617,0.717425,0.47915137,0.03891291,4.9419384,0.8870897,-45.118248,
31617340,0.112587124,-0.6351613,5.5944405,0.9256841,0.388604,-0.03086185,6.0200806,-0.41630173,-44.612038,
31617350,0.0077849403,-0.38124058,5.1255255,1.1291493,0.16117021,-0.06574923,4.947075,-1.4969349,-46.792915,
31617360,-0.2060115,-0.114144705,4.2110515,1.3030536,-0.11872777,-0.08678818,6.6377964,-1.0174465,-45.982582,
31617370,-0.29823744,-0.15007687,3.2893913,1.3975958,-0.38291314,-0.08732082,4.9459114,-1.7709074,-45.396904,15.0
31617380,-0.0029947124,-0.18061922,2.0179908,1.4029222,-0.6478974,-0.043378692,5.7150097,-1.3239546,-45.847237,
31617390,0.38806716,-0.03209955,0.6519693,1.2556493,-0.88278806,-0.040449217,4.4845963,-2.793559,-44.31318,
31617400,0.4605304,0.1739116,0.6393931,1.0045135,-1.0364524,-0.07853239,4.640236,-2.236333,-46.63723,
31617410,1.0605978,-0.1440882,0.69927996,0.79678714,-1.0076902,-0.11528399,4.4897327,-5.1775837,-45.987846,
31617420,1.4696257,-0.66630256,0.9927261,0.64551973,-0.7235311,-0.21142402,3.2569103,-4.0100403,-45.56774,21.0
31617430,1.5905974,-1.0693418,1.8335392,0.5666902,-0.19569308,-0.30916196,5.103409,-3.6987877,-46.299232,
31617440,1.3552417,-1.1657598,5.8687224,0.6428566,0.4642377,-0.40450302,3.4108295,-4.4429827,-45.094612,
31617450,-0.048508804,-0.4728676,9.868573,1.0609725,0.53587663,-0.44391775,3.41288,-5.193926,-46.014442,
31617460,-0.3862713,0.04156141,7.190428,1.4093137,0.20378077,-0.40982932,4.3332043,-4.709896,-44.13999,
31617470,-1.0007116,1.1997752,7.058078,1.5989306,-0.054545645,-0.343783,3.416504,-7.847288,-45.98362,26.0
31617480,-1.0647906,1.288408,5.842372,1.51078,-0.6375111,-0.20316824,3.2593822,-6.0691338,-45.234306,
31617490,-0.33416963,0.8626117,3.0384648,0.89266086,-1.2894526,-0.14937243,4.187771,-7.863411,-47.821434,
31617500,0.8468013,-0.007545918,1.35624,-0.1249321,-1.3104913,-0.1874556,3.874754,-6.2048893,-45.06266,
31617510,2.4499755,-1.9814202,4.8404636,-1.1619662,-0.44123632,-0.26788297,3.2585678,-6.3477383,-44.147743,
31617520,2.722461,-3.09951,14.382254,-1.6234915,0.5366756,-0.4891914,3.874443,-5.477108,-45.690163,31.0
31617530,1.445072,-3.5085375,23.180845,-1.3894,0.87729365,-0.7222178,3.8726292,-4.150427,-45.705574,
31617540,-0.6156384,-2.8407984,26.390188,-0.49617645,0.6839483,-0.76323044,4.025936,-5.009383,-44.144157,
31617550,-2.4242246,-1.568799,26.472832,0.5784081,0.101781756,-0.557102,4.9483204,-4.4080553,-44.28295,
31617560,-2.8314562,-0.55311614,22.936506,1.2681663,-0.47026473,-0.15629663,2.6426277,-5.046609,-45.261482,
31617570,-1.351649,-0.2818282,17.78024,1.3922694,-0.5512247,0.30762565,4.1799526,-4.1411247,-45.388496,
31617580,1.7702583,-0.957952,14.180433,0.9627019,-0.17971413,0.61442155,4.185749,-7.2575607,-46.74514,
31617590,4.707714,-1.7891829,14.021733,0.2678838,0.29406184,0.6240089,3.1051712,-5.9217434,-45.08509,
31617600,6.1432047,-1.8634428,16.177065,-0.4525006,0.5222946,0.3422467,4.0305862,-6.663311,-46.291588,
31617610,6.021035,-1.5939516,19.05703,-1.015226,0.41150713,-0.0835924,3.258915,-6.352371,-44.457207,
31617620,4.662799,-1.1705507,21.277637,-1.2988524,0.14838704,-0.49132198,3.2591248,-5.6315384,-45.548912,
31617630,2.9356585,-0.7764945,23.040112,-1.3401314,-0.051349863,-0.75390947,3.719637,-4.01925,-46.639473,
31617640,0.79110646,-0.08899217,24.556448,-1.1606345,-0.11792883,-0.83486944,2.3324566,-2.8470907,-45.75898,
31617650,-1.0408357,0.97819346,24.76965,-0.8272071,-0.09822146,-0.6689547,2.9462643,-2.961998,-44.194725,
31617660,-1.2929599,0.90692806,23.725218,-0.4903175,-0.11473304,-0.34138614,3.8718777,-3.850975,-45.39953,
31617670,-0.47310737,-0.061843406,21.296402,-0.26288372,-0.12432042,-0.06867871,3.7173576,-2.9758043,-45.8778,
31617680,0.5186207,-1.0813191,18.486904,-0.22986054,-0.0854383,0.00988448,2.7943668,-3.1349049,-45.74415,
31617690,1.1282699,-1.4514205,15.76145,-0.38911748,-0.11952673,-0.07214081,2.7964344,-4.8991814,-45.41413,
31617700,1.3007445,-0.8519521,14.007959,-0.65836287,-0.2803815,-0.16135664,2.025589,-3.4413967,-45.759727,
31617710,1.4606426,-0.4866416,12.8581295,-0.9121618,-0.4630742,-0.1975756,3.2556553,-1.9671593,-46.984306,
31617720,1.8025972,-0.6064155,11.80891,-1.1084367,-0.4697321,-0.17520505,3.1028538,-2.8516312,-46.823097,27.0
31617730,2.1050262,-1.1334208,11.042956,-1.2274798,-0.18823622,-0.15150295,3.098524,-1.0572443,-45.14158,
31617740,2.1774898,-1.7137254,10.751905,-1.255443,0.2932629,-0.155764,2.6403675,-2.2666826,-46.686623,
31617750,1.57862,-2.0209455,11.493906,-1.1566398,0.76384306,-0.21248929,2.329691,-1.0735502,-45.470055,
31617760,0.49286932,-1.8909909,12.359871,-0.940924,0.947601,-0.25696403,2.9443588,0.68153477,-47.022728,
31617770,-0.37728822,-1.4592059,12.261057,-0.6919186,0.7470652,-0.25376824,3.4046764,0.55965996,-45.77175,23.0
31617780,-0.91866636,-1.072336,11.526843,-0.43758696,0.30311656,-0.2127556,4.331005,-1.3519154,-46.34562,
31617790,-1.1019204,-0.6303704,9.878754,-0.20615846,-0.16826254,-0.11581662,3.0962524,0.85444164,-45.473305,
31617800,-0.7797286,-0.5183817,8.140835,-0.031455234,-0.45961207,-2.3552217E-4,4.3299446,-0.3246851,-46.667076,
31617810,-0.68331057,-0.06863062,6.8197274,0.09238165,-0.52539206,0.12226978,4.323818,1.7830515,-43.75112,
31617820,-0.47430512,0.40327865,5.8645306,0.16668378,-0.40155524,0.28339088,3.249998,0.42381287,-44.845436,20.0
31617830,-0.102407075,0.42364022,5.3171635,0.23486064,-0.15121831,0.4378541,2.1746101,-0.91457653,-44.547157,
31617840,0.2473328,0.35656682,5.0321016,0.30863014,0.11429862,0.55689734,5.4055786,-0.29212952,-45.55735,
31617850,0.6018636,0.3948945,5.1375027,0.4053028,0.30125237,0.6245415,5.4055786,-0.29212952,-45.55735,
31617860,0.8821346,0.36794534,5.247096,0.5267428,0.37049448,0.63066685,6.0217037,-0.727334,-45.69175,
31617870,1.1761796,0.30566293,4.7488365,0.64418817,0.35291764,0.59657836,3.8679981,-0.76001835,-45.74494,
31617880,1.5774221,0.25176466,3.6978202,0.7043755,0.3127039,0.50656366,4.635931,-0.58703804,-44.799248,
31617890,1.7606764,0.2667364,2.2958665,0.63753027,0.25810918,0.35103512,4.1773796,-3.383233,-44.004463,
31617900,1.6953995,0.1757082,1.2131101,0.402107,0.1241523,0.15662453,4.484459,-2.0680952,-45.095406,
31617910,1.3917725,0.829075,0.9735623,0.09930585,-0.06519829,-0.013285001,4.9453526,-2.4871063,-43.995735,
31617920,0.87075603,0.94525564,1.2358673,-0.1246658,-0.19942148,-0.09291345,4.1759815,-1.4831285,-45.109856,
31617930,0.5563495,0.39130127,1.8083866,-0.22666478,-0.25960886,-0.11155556,4.3288536,-1.902175,-43.70832,
31617940,0.4245982,0.4457984,2.477324,-0.22932793,-0.19436148,-0.10676187,3.7151947,-1.6444902,-45.583733,
31617950,0.71085787,-0.12312774,2.7935271,-0.1800595,-0.03750144,-0.07134186,3.712513,-0.30622864,-44.825478,
31617960,1.1893547,-1.0477824,2.334793,-0.2034953,0.14385967,-0.15283452,4.1763287,-1.4877615,-45.41932,
31617970,1.0049028,-1.15498,2.0994372,-0.30149955,0.37528816,-0.29930827,5.1001205,-1.9182978,-45.54612,
31617980,0.3695022,-0.8321894,2.7599902,-0.33745217,0.6157714,-0.37440932,5.2522297,-1.02456,-45.088387,
31617990,-0.1826556,-0.7687092,4.640441,-0.20642476,0.73295045,-0.36135983,4.481024,-0.43038273,-44.031105,
31618000,-0.9012992,-0.68247193,6.729298,0.116083756,0.65039253,-0.27747035,5.5590954,-0.43025398,-45.08764,
31618010,-1.5199314,-0.54113877,7.240134,0.5515102,0.43840504,-0.12939872,5.4063835,-0.8817644,-45.5505,
31618020,-1.6942024,-0.5099975,6.549038,0.98587143,0.276485,0.048233967,5.4097633,-2.2292929,-46.927696,
31618030,-1.3258977,-0.5962348,4.383526,1.2327462,0.19179654,0.1662119,5.4073277,-2.196865,-44.76142,
31618040,-0.46292657,-0.5938393,2.0892565,1.2971947,0.09938493,0.22719823,5.4088573,-2.9408588,-45.217064,
31618050,0.23834975,-0.47346646,0.62981117,1.1568462,-0.08969934,0.21361613,5.562319,-2.7887983,-45.06025,
31618060,0.56952465,-0.23152313,0.57411623,0.86736083,-0.38317943,0.12626451,5.25494,-2.5079165,-45.69021,
31618070,0.8186544,-0.18541017,0.84540427,0.62741023,-0.6564195,0.035717122,4.63962,-2.6623468,-45.548958,
31618080,0.81625897,-0.37585074,2.026375,0.513427,-0.71074796,-0.032193426,4.6407757,-3.2566156,-45.85157,24.0
31618090,0.36471123,-0.37824616,4.5518084,0.59891444,-0.4044847,-0.079863966,4.9478607,-3.8230515,-44.599266,
31618100,-0.36531082,0.034374975,8.89002,0.8511156,-0.0143319545,-0.06281975,4.4892483,-4.447488,-46.46061,
31618110,-0.47550285,0.8961483,7.2323484,1.1757545,-0.07158987,0.0045581628,5.2590313,-4.878042,-46.436485,
31618120,-0.4707119,1.4429163,5.378847,1.4484621,0.14732179,0.08418661,4.3382015,-6.368456,-46.596886,
31618130,0.09222556,1.46747,3.4253347,1.5736306,0.4461282,0.2048277,5.1025944,-3.9773922,-45.21267,30.0
31618140,0.7258296,1.214747,2.642013,1.2599106,0.42588818,0.2250677,6.0284595,-6.172205,-45.009468,
31618150,0.50604445,0.70930105,3.061821,0.6585692,0.22721656,0.09723608,5.412409,-7.040518,-43.312325,
31618160,0.27128756,-0.17043844,5.6423497,0.011155307,0.08713439,-0.0417808,4.1813087,-4.882803,-45.689415,
31618170,0.15390912,-0.6998392,9.203229,-0.5007038,-0.059605658,-0.15389979,5.104286,-5.591942,-44.729652,
31618180,0.15390915,-0.7854775,12.474255,-0.7955155,-0.20874253,-0.2143535,4.3332043,-4.709896,-44.13999,35.0
31618190,-0.07006812,-0.80104816,16.487879,-0.8711492,-0.28544152,-0.2143535,4.9496746,-5.1497335,-44.583855,
31618200,-0.62222594,-0.6333646,18.939651,-0.6580965,-0.25268465,-0.16934611,3.410307,-4.436034,-44.63041,
31618210,-0.9390279,-0.27883384,19.878681,-0.2959069,-0.089166716,-0.032992374,3.7196732,-6.0459156,-44.13978,
31618220,-0.8456043,-0.40220097,18.668364,-0.052760504,0.02668069,0.1662119,3.7178612,-4.7192345,-44.15519,
31618230,-0.1575031,-0.9064492,17.587402,-0.17286897,0.06423123,0.3422467,4.179083,-4.1295433,-44.61483,
31618240,0.69588614,-1.4009157,17.121084,-0.57101125,0.13853335,0.4290657,4.48888,-6.1793365,-43.964333,
31618250,1.6924052,-1.9460869,17.288567,-1.0959198,0.31643236,0.4080267,2.7951546,-5.4610233,-43.550484,
31618260,2.3703256,-2.4587193,19.165424,-1.6176326,0.49726084,0.29111403,4.336113,-6.34066,-44.74009,
31618270,2.249354,-2.992312,22.18253,-1.9662402,0.6000588,0.12200345,3.7161388,-2.959591,-44.794655,
31618280,1.6924052,-3.502549,25.22419,-2.0280256,0.617103,-0.05296607,5.5605793,-2.7656355,-43.512917,31.0
31618290,0.41801065,-3.1869447,28.008333,-1.8218969,0.57848716,-0.19491243,5.0977516,-1.3078136,-44.160362,
31618300,-1.1204855,-2.3485274,29.47317,-1.387003,0.42695343,-0.20236929,4.480961,-1.0084381,-43.250587,
31618310,-1.8714681,-1.7652282,28.797047,-0.86688817,0.15477863,-0.0116871055,6.174347,-0.85387707,-44.44837,
31618320,-1.1731861,-1.6951605,26.290176,-0.4213417,0.020022795,0.27992877,4.9424686,-1.0014343,-43.23919,
31618330,0.18624808,-2.1538947,23.408417,-0.122535266,0.13347337,0.48738888,6.019678,-0.12148285,-44.61547,25.0
31618340,1.2228913,-2.6228096,20.642836,0.06069006,0.34625974,0.5478426,6.02141,-1.012887,-45.06939,
31618350,1.7139645,-2.6252053,17.65268,0.07001112,0.40804505,0.45649618,5.5590954,-0.43025398,-45.08764,
31618360,1.8373315,-2.4587195,14.782298,-0.14171001,0.21017233,0.24903613,6.174082,-1.284523,-43.66958,
31618370,1.3594338,-1.8999738,12.526356,-0.4833933,-0.13790251,0.010150796,5.0970917,-0.5754013,-44.478386,
31618380,0.6395924,-0.7854776,11.007024,-0.88606286,-0.5027553,-0.09610924,4.0232697,-1.9346399,-45.572716,23.0
31618390,0.83602166,-0.21954575,9.97637,-1.2940588,-0.6865132,-0.043378696,4.3282585,-0.5917072,-44.806847,
31618400,1.4103376,-0.41896936,9.396664,-1.5987241,-0.48411316,0.075664505,5.244236,2.7000442,-42.500725,
31618410,2.001422,-1.22924,9.781137,-1.7558506,-0.005010888,0.19284347,5.093813,2.073329,-44.818672,
31618420,2.5493877,-2.1443129,11.296877,-1.7515895,0.46184087,0.21095297,4.017212,0.75115204,-43.437263,
31618430,2.6781447,-2.6970694,12.07361,-1.5838104,0.7316189,0.09617081,4.4774914,2.655943,-44.685997,18.0
31618440,2.54819,-3.0545948,12.223328,-1.3119019,0.72575986,-0.1038324,4.323223,3.0935197,-44.849648,
31618450,2.0265744,-3.052199,11.701713,-0.9904586,0.47382504,-0.34990826,6.0132885,4.305421,-44.357353,
31618460,1.2887671,-2.7563577,10.547092,-0.68526065,0.10364599,-0.5781409,5.397505,3.8677535,-43.43902,
31618470,0.33177343,-2.2047987,9.263116,-0.41761327,-0.24709204,-0.73899573,6.1655865,4.1835093,-42.804512,
31618480,-0.79949135,-1.4394432,7.9803367,-0.17792897,-0.4715963,-0.7810737,5.090994,4.137056,-44.842644,12.0
31618490,-1.8708692,-0.78667533,6.544247,0.031128993,-0.5427026,-0.67721045,4.4753857,3.697072,-44.079033,
31618500,-2.5547783,-0.38124055,5.0392885,0.15603115,-0.4601447,-0.45350513,5.092266,3.8306565,-45.612877,
31618510,-2.9841678,-0.0147323385,4.232012,0.19704378,-0.24309729,-0.18532506,4.628132,4.87173,-44.553123,
31618520,-3.1955688,0.4493916,3.8439445,0.17680378,-0.021256171,0.104160294,4.166439,3.9988017,-43.3164,
31618530,-2.6949136,0.72606933,3.5978088,0.11075744,0.1273481,0.39018357,5.3983746,3.856172,-44.212685,11.0
31618540,-1.7223493,0.46675888,3.796035,0.048705846,0.23627128,0.62134576,5.2460766,3.9780831,-45.76554,
31618550,-0.6162372,0.090069845,3.948747,0.04524374,0.29592603,0.7465142,6.3260155,2.3613443,-46.493782,
31618560,0.40782988,-0.20816725,3.9457526,0.071609005,0.2953934,0.75849843,5.707155,4.4249983,-45.91401,
31618570,1.0803604,-0.5082009,3.8122044,0.12860061,0.25917447,0.6775384,6.1695213,3.5521803,-45.582863,
31618580,1.413332,-0.7255906,3.2426794,0.16908062,0.1909976,0.5475763,6.1695213,3.5521803,-45.582863,
31618590,1.5462811,-0.8663249,2.6785443,0.16109115,0.1342723,0.39870566,5.399994,3.5451398,-45.292397,
31618600,1.376202,-0.9477712,2.6090753,0.124872185,0.11935861,0.2501014,6.322775,2.983409,-44.33436,
31618610,0.80847365,-0.856743,3.1378772,0.09744165,0.12308703,0.12253609,7.55196,3.600987,-43.69187,
31618620,0.12695998,-0.6980425,4.2595596,0.12220902,0.112700716,0.06368029,6.3201447,4.031486,-43.263206,
31618630,-0.22158213,-0.64594096,5.3015933,0.26175854,0.07648175,0.068740286,5.7085533,2.5248938,-44.808617,10.0
31618640,-0.235955,-0.6052178,5.558508,0.4873281,-0.032974068,0.10735609,6.476984,2.836018,-44.483574,
31618650,0.019762333,-0.6124042,4.9997625,0.7294092,-0.1879699,0.15316242,6.1706657,2.0896711,-44.792076,
31618660,0.28386384,-0.68366975,4.1739216,0.9336735,-0.32485628,0.17766348,6.787842,2.5088081,-46.94828,
31618670,0.39944568,-0.62498045,3.2372897,1.0740219,-0.4225942,0.17180452,5.709076,2.5179453,-45.272804,
31618680,0.4239993,-0.5345512,2.170703,1.1222252,-0.45348686,0.14410767,4.1717873,2.3356094,-46.082756,11.0
31618690,0.6312082,-0.32195246,1.3909745,1.0668314,-0.4076805,0.11694346,5.709755,0.77219963,-43.704933,
31618700,0.6377958,-0.28661916,0.9184663,0.9656314,-0.28597414,0.10735609,5.0984116,0.70958614,-47.279,
31618710,0.3257847,-0.34411064,1.084952,0.839664,-0.130712,0.09989925,5.5587845,0.2975254,-45.71514,
31618720,0.041920513,-0.34530836,1.8257538,0.7496492,0.016560689,0.10176346,6.3289165,-0.13766003,-46.000465,
31618730,0.027547646,-0.39860776,2.926476,0.7270124,0.09246071,0.11561188,5.4051113,-0.57536507,-44.78025,15.0
31618740,-0.14432795,-0.47945517,4.2913,0.8039777,0.07834597,0.1361182,4.944639,-1.4645071,-44.626656,
31618750,-0.37489274,-0.49622354,5.370463,0.9989209,-0.030310906,0.18618557,4.9427433,0.29745293,-45.111397,
31618760,-0.37908483,-0.34291288,5.5758753,1.2426,-0.21060675,0.25169927,6.4855156,-1.9088678,-46.28559,
31618770,-0.23954819,-0.1434893,5.2488923,1.4569842,-0.35122156,0.30469614,4.638403,-2.6461325,-44.465813,
31618780,0.096417636,0.12480429,4.827887,1.5829517,-0.44523105,0.3150825,3.870121,-2.8144789,-45.102043,18.0
31618790,0.44076768,0.7386457,3.8193908,1.5632443,-0.52672374,0.25143299,6.0240173,-3.7974443,-43.953728,
31618800,0.6591555,1.2532743,2.8112936,1.3073148,-0.63032055,0.14863504,5.717537,-3.673235,-45.200905,
31618810,0.85279,1.2249279,2.3192225,0.820223,-0.74483645,0.06447923,3.7154446,-2.950325,-44.175728,
31618820,1.1007221,0.4362165,2.922883,0.18745643,-0.75761956,0.016808692,2.9469585,-2.971264,-44.813652,
31618830,1.1636033,-0.7705058,6.7885866,-0.37713325,-0.5275227,-0.026867108,6.180334,-4.985965,-44.709892,25.0
31618840,0.9468125,-1.348415,12.368854,-0.6447807,-0.21966149,-0.07560292,3.4085484,-3.399538,-44.332924,
31618850,1.2258859,-1.5382566,16.658556,-0.4841922,0.2115039,-0.10569662,2.794073,-3.4204578,-45.121788,
31618860,0.8731516,-1.9520756,20.650023,0.081462696,0.5063156,-0.067347124,3.8704681,-2.8191118,-45.411507,
31618870,0.35872254,-2.0682564,22.819727,0.73180604,0.35797763,0.020803433,2.9478836,-3.2730312,-45.27442,
31618880,0.025751017,-1.6173074,21.222542,1.1845431,0.06316597,0.1512982,1.868,-1.9464769,-44.2333,
31618890,0.8132646,-2.091612,18.369528,1.2146368,-0.18051305,0.31401724,3.719078,-4.735449,-45.238304,
31618900,2.5326192,-2.815047,14.7924795,0.748584,-0.23404256,0.33665407,2.641758,-5.0350275,-44.487816,
31618910,3.9148107,-3.1342444,13.674389,0.0021005645,-0.0553446,0.18858242,5.413086,-6.0364494,-45.181114,
31618920,4.380731,-3.0647755,15.460218,-0.6892555,0.17581758,-0.037519746,4.1787357,-4.1249104,-44.305367,
31618930,3.764494,-2.6042447,18.194656,-1.1755483,0.3172313,-0.2561651,4.022438,-3.9497252,-42.29934,29.0
31618940,2.9368563,-2.6096346,20.647028,-1.444261,0.3792829,-0.42820513,2.793808,-3.8511028,-44.34298,
31618950,1.6594675,-2.6323917,22.755049,-1.4937958,0.45598185,-0.5405904,3.4088955,-3.404171,-44.642387,
31618960,0.15390912,-2.3515217,24.162394,-1.3798125,0.44559556,-0.5536399,4.483589,-2.0565138,-44.32174,
31618970,-1.2127113,-1.9622564,24.382778,-1.2399967,0.35957554,-0.440722,4.02503,-2.9711351,-45.8702,
31618980,-1.7025867,-1.8478723,23.900087,-1.1363997,0.2551797,-0.21408717,6.3296223,-2.0284986,-44.276146,26.0
31618990,-0.59108466,-2.1179628,22.872429,-1.0876639,0.15664285,-0.029263953,4.3289185,-1.3241196,-44.488823,
31619000,0.8935131,-2.5689113,21.860338,-1.0543746,0.09379229,-0.0074260524,6.020191,-0.9966736,-43.98626,
31619010,1.6852188,-2.8066626,21.359684,-0.9822029,0.04985017,-0.111022934,5.7134438,-1.3031082,-44.454628,
31619020,1.8618853,-2.9719505,20.53085,-0.8658229,-0.08091092,-0.25962716,5.559637,-1.4505358,-44.301994,
31619030,1.3067331,-2.7252164,18.789333,-0.78805864,-0.26386994,-0.35789776,4.0204506,0.12908745,-45.596672,21.0
31619040,0.69648504,-1.7245052,16.465122,-0.8317344,-0.4026205,-0.29584616,6.3294296,-1.0128508,-45.37127,
31619050,1.0989254,-1.1310253,14.556524,-0.93719554,-0.3517542,-0.15150295,3.8654327,0.8661146,-45.454308,
31619060,1.9038062,-1.243014,12.9797,-1.0439882,-0.09875408,-0.015415528,4.1741676,-0.15644646,-45.12525,
31619070,2.8218732,-1.5813754,11.797531,-1.1595693,0.27115867,0.0604845,5.555874,1.9282913,-45.11503,
31619080,3.3902006,-2.3042111,11.063916,-1.2519808,0.6922041,0.0538266,4.6327076,1.7715063,-44.826653,16.0
31619090,3.4039745,-3.048606,11.253757,-1.2834061,1.1047273,-0.053232383,4.325035,1.7668371,-44.83425,
31619100,2.929071,-3.4534419,11.711893,-1.2450566,1.3353567,-0.251904,6.0181866,1.3456583,-45.09678,
31619110,2.1493428,-3.2935436,12.348492,-1.1284103,1.2519999,-0.5001104,5.553053,3.9920173,-45.139,
31619120,1.0647898,-2.8288207,12.801237,-0.9137597,0.92256725,-0.7264789,6.3235245,2.683958,-44.640404,
31619130,-0.14852004,-2.2155783,12.416164,-0.5736744,0.47382504,-0.87481683,5.705927,3.5729718,-43.737465,12.0
31619140,-1.5672421,-1.3855448,11.033374,-0.20935425,0.03493648,-0.88360524,8.014833,3.7345533,-45.07479,
31619150,-2.8613994,-0.41837043,9.060099,0.059891112,-0.32299206,-0.73739785,6.163809,6.233339,-43.75689,
31619160,-3.4123595,0.27751604,6.8646426,0.18133114,-0.50169,-0.5533736,5.3965626,5.1828537,-44.228096,
31619170,-3.2794104,0.55838585,4.510486,0.2023701,-0.5541542,-0.34937564,6.4746323,5.1829815,-45.28463,
31619180,-2.8859532,0.7434366,3.1049395,0.10702901,-0.4681342,-0.08332609,6.477661,3.8400865,-46.35235,9.0
31619190,-2.3044508,0.75421625,3.046849,-0.044771027,-0.26094043,0.16567926,6.783787,2.8522687,-43.70231,
31619200,-1.861886,0.70870215,4.014024,-0.13345422,-0.0015487932,0.3640846,6.0135365,2.9995866,-42.94935,
31619210,-1.4708241,0.544013,4.977604,-0.08977841,0.18966602,0.51961315,7.0897923,4.326396,-44.021294,
31619220,-0.9234574,0.33201316,5.3626776,0.064951114,0.2730229,0.6301342,6.6288223,3.29911,-43.247047,
31619230,-0.3281809,0.20984377,4.90035,0.27294382,0.2344071,0.6833974,6.783247,3.872551,-44.487953,8.0
31619240,0.26350227,0.14097376,4.1595488,0.43646175,0.09192809,0.6762068,5.5538044,3.6925673,-45.445045,
31619250,0.8210499,0.043358013,3.4648602,0.54511863,-0.077715136,0.6280037,7.3994884,3.725215,-45.08999,
31619260,1.1857615,-0.023116507,2.8893464,0.620486,-0.20448148,0.53426045,6.476984,2.836018,-44.483574,
31619270,1.1983378,-0.01652895,2.6755497,0.66336286,-0.25987518,0.41361937,6.7834396,2.8569012,-43.392845,
31619280,0.9318408,-0.018924423,2.4449852,0.66575974,-0.29103416,0.30416352,7.2472267,1.8204603,-44.14312,
31619290,0.84979564,-0.12552321,2.1293807,0.6319376,-0.31340468,0.22533402,6.3263435,0.6202316,-44.616432,
31619300,0.60905004,-0.15247235,2.3605444,0.5816039,-0.29795837,0.15236346,6.3263435,0.6202316,-44.616432,
31619310,0.21918592,-0.118935645,2.8923407,0.58666396,-0.25321728,0.10495925,6.017729,1.9306622,-45.41311,
31619320,0.1646888,0.019403234,3.1947699,0.64818287,-0.22179201,0.11454662,7.553837,2.8523602,-44.456978,
31619330,0.073660605,-0.20457399,3.387007,0.7696229,-0.1594741,0.15955399,6.4806747,0.76070976,-45.23327,
31619340,0.079050414,-0.3506982,3.230702,0.90624297,-0.093161464,0.1883161,8.019356,0.9245157,-45.6612,
31619350,0.19044018,-0.34411064,2.9839675,1.0188946,-0.055610918,0.18458769,6.6338234,1.6405497,-45.703957,
31619360,0.28146833,-0.30698073,2.5851207,1.0939956,-0.0737204,0.16461399,7.712799,-0.39756966,-45.034447,
31619370,0.35093725,-0.3732556,2.2148197,1.1523188,-0.117662504,0.13718346,5.559847,-0.72970486,-45.393684,
31619380,0.36830446,-0.33931968,1.8838441,1.1824126,-0.16559936,0.10495925,7.407984,-1.7428188,-45.955025,10.0
31619390,0.374892,-0.3369242,1.4766128,1.1690967,-0.23244464,0.0671424,6.0237713,-2.4916105,-45.361748,
31619400,0.27907288,-0.2854214,1.3035394,1.1163661,-0.32006258,0.020004485,6.483082,-1.8764391,-44.119316,
31619410,0.17427069,-0.35489026,1.3813926,1.0383356,-0.4343121,-0.017812371,7.2524166,-0.8537493,-45.504906,
31619420,0.088632345,-0.4495117,2.0401492,0.97308826,-0.49982578,-0.06175449,7.254423,-3.1960812,-44.39437,
31619430,-0.2461358,-0.54173756,3.3804193,1.0018504,-0.46041107,-0.0854566,6.177515,-2.9222374,-44.733864,15.0
31619440,-0.43837294,-0.6315681,5.146486,1.1488568,-0.39143527,-0.073206075,6.488283,-3.6824083,-46.574516,
31619450,-0.74499416,-0.34171516,6.15618,1.3912041,-0.3472268,-0.056694485,6.1792374,-4.681881,-44.0944,
31619460,-0.956994,0.08288341,6.210677,1.6111811,-0.39356577,5.6342594E-4,6.0277996,-5.4397907,-45.327507,
31619470,-0.9899319,0.45717692,5.4231634,1.6785591,-0.5802532,0.10495925,5.7188263,-4.9929686,-44.72129,
31619480,-0.5743163,0.736849,3.6181707,1.4481957,-0.7379122,0.2200077,4.9512405,-5.17058,-45.976448,19.0
31619490,0.49466592,0.6607926,2.8156853,0.83327246,-0.6524248,0.24690561,6.3354187,-5.1449366,-45.63279,
31619500,1.5079534,-0.4836473,4.9470625,0.05403216,-0.27425626,0.15183085,4.488285,-4.868868,-45.062874,
31619510,1.5888008,-1.9826179,9.954211,-0.5310638,0.15424599,-0.01541553,4.4857483,-3.3878288,-44.61579,
31619520,0.87734365,-2.3904483,16.45554,-0.66555333,0.387805,-0.15842716,4.9506817,-5.886778,-44.575294,
31619530,0.3413553,-2.335951,20.848248,-0.3683448,0.22455338,-0.19917348,5.4104595,-4.988372,-44.109962,23.0
31619540,-0.07006812,-2.390448,23.124552,0.20343538,-0.042561438,-0.20343456,5.103079,-4.707489,-44.73992,
31619550,-0.4096272,-2.0940077,22.692768,0.8750839,-0.19782358,-0.19491243,5.4131775,-5.603487,-45.805183,
31619560,-0.30003405,-1.6819854,20.38113,1.3584473,-0.2505541,-0.12194188,5.2562466,-4.8409815,-43.960747,
31619570,0.140734,-1.6442566,16.262104,1.3248916,-0.31446996,-0.016214475,4.4916,-6.7944508,-45.659554,
31619580,0.8096714,-1.5268781,11.840051,0.60397446,-0.23244464,0.049565546,4.6445026,-7.358591,-44.10157,
31619590,1.3953658,-1.8239174,10.699204,-0.5646196,0.18460602,0.07007186,3.874754,-6.2048893,-45.06266,
31619600,1.6582696,-2.6000528,14.433756,-1.6858095,0.7643757,0.07699608,3.7200756,-6.3407345,-44.136345,
31619610,1.6241341,-3.1731708,20.805729,-2.394476,1.0474694,0.026129749,5.411154,-4.9976377,-44.72889,
31619620,1.3139197,-3.6995773,26.236279,-2.5215087,0.9955379,-0.07959765,4.948786,-4.124819,-45.060036,
31619630,0.78751326,-3.305521,29.539045,-2.053858,0.81550837,-0.21302193,6.640459,-4.09219,-44.55404,
31619640,-0.01916419,-2.3167872,29.38813,-1.2684925,0.556383,-0.2782693,4.0224,-1.9230585,-44.79905,
31619650,-0.42639554,-1.5789798,26.571047,-0.5899196,0.26556605,-0.22633772,5.100662,-2.9385796,-44.76046,
31619660,-0.39166108,-1.320867,22.460403,-0.22080582,0.07142176,-0.1408503,5.561905,-3.3622217,-43.97027,
31619670,-0.32338995,-1.3999178,17.891031,-0.1414437,0.0905965,-0.040981855,7.4063168,-3.0231733,-42.844963,
31619680,0.034734074,-1.6059289,13.249193,-0.44690803,0.28740394,0.010417111,6.7943897,-3.6568928,-45.17431,18.0
31619690,0.120971285,-1.6771944,11.345385,-1.0112313,0.5294851,-0.045242906,6.637705,-1.450408,-45.35853,
31619700,-0.44615823,-1.3268557,11.866402,-1.5553147,0.63494617,-0.112887144,6.175701,-1.5955553,-44.749275,
31619710,-0.5940791,-0.7309804,13.428852,-1.9587833,0.429084,-0.078798704,7.4056683,-1.4225206,-44.2564,
31619720,0.13414644,-0.9399859,14.229542,-2.1300244,0.1257502,0.019471852,4.6342297,0.15927315,-44.18888,
31619730,1.3474562,-1.5178951,14.1984005,-2.0791583,0.018158581,0.09430661,7.865896,0.77245617,-45.818016,15.0
31619740,2.414043,-2.037714,13.940288,-1.8879433,0.09991756,0.084186606,8.01833,-0.07491875,-43.482933,
31619750,2.9314666,-2.5395668,13.68996,-1.6258883,0.20990603,8.297395E-4,8.939714,2.1316938,-44.723686,
31619760,3.0710032,-3.1198716,12.57786,-1.3270819,0.27621865,-0.121941894,6.7868805,2.087428,-45.550545,
31619770,3.1290934,-3.7930007,10.922584,-1.0828702,0.34839028,-0.2697472,8.4785,2.410243,-45.357445,
31619780,2.562563,-4.048718,9.799104,-0.9550387,0.43813872,-0.45883146,7.2474365,2.5412912,-45.23481,8.0
31619790,1.4055467,-3.728922,9.328991,-0.9009766,0.5041851,-0.65430725,8.321955,3.8912644,-44.759422,
31619800,0.084440246,-3.2067075,9.431997,-0.8479798,0.47302613,-0.79572105,7.400898,2.6933513,-45.077995,
31619810,-1.2905644,-2.5138154,9.783533,-0.74811125,0.28580603,-0.85883784,7.5515575,3.8958054,-43.695305,
31619820,-2.5727441,-1.4244714,9.996731,-0.5803322,-0.03164248,-0.81889045,7.552025,4.179042,-44.472374,
31619830,-3.245275,-0.54413307,9.916483,-0.36168692,-0.44203526,-0.6625631,7.7039185,4.3519483,-42.922966,7.0
31619840,-2.9434445,2.394095E-4,9.157714,-0.0929742,-0.8092848,-0.44711357,7.3973637,5.7796764,-45.732887,
31619850,-2.968597,0.087674364,7.7072525,0.17014588,-0.99517334,-0.23139772,7.091707,4.3009167,-45.723366,
31619860,-2.2283943,0.20445395,6.2148695,0.36801857,-1.0031629,0.037581332,8.782494,5.3584604,-45.693565,
31619870,-1.2270843,0.31644255,4.499108,0.49904597,-0.83804697,0.23944879,7.0872574,5.807435,-43.57421,
31619880,-0.39944643,0.074499235,3.3384986,0.5624292,-0.4998258,0.3638183,5.5519905,5.0192485,-45.460457,
31619890,0.2766774,-0.044675805,2.721663,0.5709513,-0.11286882,0.39710778,5.552046,4.729063,-45.14756,
31619900,0.72523075,0.09366307,2.3749173,0.48439863,0.0905965,0.347573,7.705942,3.7460985,-43.999245,
31619910,0.7587674,0.18229577,2.3431773,0.34724593,0.09752071,0.25542772,7.0931168,3.269053,-45.711388,
31619920,0.56253785,0.23280044,2.689923,0.26016065,0.010968054,0.15875503,6.4772053,4.42509,-46.66868,
31619930,0.28925365,0.3218324,3.2516625,0.26149222,-0.1344404,0.09004556,5.706806,4.429631,-45.60453,
31619940,-0.0664749,0.31225047,3.8421478,0.33046803,-0.3320468,0.07166976,6.322233,4.0036902,-45.120003,
31619950,-0.51922035,0.29308665,4.2236276,0.48093647,-0.49423316,0.11161714,6.783924,4.876619,-46.356743,
31619960,-0.846802,0.12779863,4.0870857,0.69212496,-0.50595105,0.20216453,5.5547466,2.3774672,-44.655968,
31619970,-0.7911072,-0.01832556,3.9038315,0.8841387,-0.3940984,0.30948985,6.630911,3.2713141,-45.103844,
31619980,-0.48089266,-0.16385087,3.6127808,1.0401999,-0.23697202,0.40935832,5.2475414,2.6560345,-45.440666,
31619990,0.0065872,-0.33572644,3.0636172,1.1429977,-0.06972566,0.46581727,6.0167217,2.6677074,-45.42167,
31620000,0.38387507,-0.41537613,2.7839453,1.2202294,0.06982386,0.4676815,5.5579796,0.8871622,-45.721992,
31620010,0.63120824,-0.5782687,2.5360134,1.2647041,0.10817334,0.42480463,7.4054737,-0.4068718,-45.35151,
31620020,0.84260917,-0.41717273,1.9269626,1.2431326,0.02668069,0.36328566,7.4054737,-0.4068718,-45.35151,
31620030,0.8635696,-0.62557936,1.5802171,1.1762872,-0.080378294,0.28152668,6.327753,-0.41163254,-44.60444,
31620040,0.5413778,-0.80044925,1.8862396,1.1176977,-0.15681094,0.19044663,7.099022,-0.42775536,-46.442253,
31620050,0.07905044,-0.9495678,2.9360583,1.0929303,-0.23856992,0.13318872,7.2539825,-0.87459564,-46.897514,
31620060,-0.318599,-1.1172513,4.177515,1.1400683,-0.34403104,0.12040557,5.5619164,-2.4939814,-45.063667,
31620070,-0.470113,-1.2190591,4.647627,1.2660357,-0.41646892,0.12866136,4.4856224,-1.7941256,-46.491432,
31620080,-0.3281809,-1.1998954,4.420057,1.4412715,-0.38823944,0.13798241,6.025116,-4.101528,-44.569237,8.0
31620090,-0.27068943,-1.1723473,3.8972437,1.6173065,-0.26094046,0.1560919,5.408142,-1.9182606,-45.847984,
31620100,-0.43298313,-0.9322006,3.50738,1.6926737,-0.15521304,0.21175191,5.256212,-2.8143148,-46.460457,
31620110,-0.7042711,-0.6159974,3.461267,1.6346169,-0.13204356,0.2953751,5.5631237,-3.3784351,-45.0534,
31620120,-0.7048699,-0.34411064,3.7852552,1.4607127,-0.122722514,0.36568248,5.107189,-5.341133,-47.67301,
31620130,-0.5557513,0.1421715,4.318249,1.1682978,-0.1493541,0.37819934,4.4906025,-5.189165,-46.761513,13.0
31620140,-0.32578546,0.65121067,4.686554,0.7118324,-0.33044893,0.38831934,5.260378,-6.487961,-45.64399,
31620150,0.4341801,0.12540317,4.839266,0.089185864,-0.62206477,0.45250148,4.3351173,-4.7353754,-45.84205,
31620160,1.9014106,-1.5196917,5.486644,-0.6027028,-0.6255269,0.49857414,2.6443844,-6.083103,-45.558968,
31620170,2.7841446,-3.022256,8.812167,-1.1204208,-0.0673288,0.45383304,3.7203674,-6.0551796,-44.758705,
31620180,3.1015453,-3.9151702,14.611621,-1.2229525,0.71217775,0.30150038,5.564268,-4.8409443,-44.26261,16.0
31620190,2.6871276,-4.4775085,21.790869,-0.7576986,1.0959389,0.08365398,4.18009,-4.8665886,-44.60627,
31620200,1.3857839,-4.0331473,26.899227,0.20583221,0.6738283,-0.040182903,4.0269604,-4.0099487,-46.32241,
31620210,0.59467715,-3.8403115,26.792028,1.2905368,-0.25987518,-0.044976585,4.9521656,-5.4723473,-46.437233,
31620220,0.70606697,-3.7492833,21.75314,1.9414128,-1.0540292,-7.6815486E-4,4.4911423,-6.209448,-45.975853,
31620230,1.7001904,-3.3432498,14.518196,1.755258,-1.2684135,0.03545081,3.8751564,-6.4997063,-45.059242,
31620240,3.029681,-2.7102447,8.5857935,0.7773461,-0.7405753,-0.0013007876,4.951084,-6.1815968,-44.571877,
31620250,3.4962006,-2.2760642,7.4700994,-0.4738059,0.28047976,-0.09317976,5.106163,-6.3405685,-45.49476,
31620260,2.8452291,-2.1413186,11.908322,-1.5388031,1.0011305,-0.19784191,4.3369293,-6.0620556,-45.826637,
31620270,2.1738963,-2.877329,17.11729,-2.2346866,1.0418768,-0.30996087,5.716255,-4.235076,-43.337257,
31620280,1.619343,-3.7331138,21.623184,-2.5010026,0.89273995,-0.3925188,3.7206326,-5.6245346,-45.537514,18.0
31620290,0.7342138,-4.0487185,25.697893,-2.4413478,0.72815675,-0.46442407,6.330574,-2.47536,-44.580482,
31620300,-0.21798891,-3.5792046,27.534027,-2.0474665,0.4511882,-0.50224096,5.717537,-3.673235,-45.200905,
31620310,-0.7222371,-2.9042783,27.410664,-1.4807463,0.14306073,-0.40636724,6.486717,-3.661562,-45.181908,
31620320,-0.50245196,-2.5132165,25.375105,-0.9286734,-0.13683724,-0.22873455,3.7151413,-1.3543043,-45.89663,
31620330,0.36231574,-2.4257815,22.036407,-0.5206775,-0.26866364,-0.046041854,5.1007175,-3.2287655,-44.447563,13.0
31620340,1.3624282,-2.3808665,18.834848,-0.34118062,-0.20022044,0.058087654,4.3295307,-0.8981066,-45.577095,
31620350,1.9972298,-2.2167761,15.69857,-0.355828,-0.081443556,0.03385291,3.2532845,-1.3566761,-45.59855,
31620360,2.1223936,-2.1383243,13.195893,-0.56142384,-0.049219333,-0.09930503,5.255396,-3.0929184,-45.373894,
31620370,2.350563,-2.3263693,10.891442,-0.89218813,-0.14003304,-0.2431156,5.7134438,-1.3031082,-44.454628,
31620380,2.5535796,-2.6551485,9.024765,-1.3561103,-0.23590675,-0.35283774,4.1730404,0.29272842,-44.66619,10.0
31620390,2.111015,-3.2671933,8.706167,-1.9089823,-0.11872777,-0.4295367,5.7092133,1.7924814,-44.490578,
31620400,1.6265296,-4.199633,10.562662,-2.3481371,0.2783492,-0.45510304,5.0942345,3.5149913,-47.002068,
31620410,0.9390272,-4.5966835,14.06126,-2.4892845,0.7220315,-0.48146832,4.017769,1.467351,-44.838417,
31620420,0.16408992,-4.4852943,17.273596,-2.2756991,0.89274,-0.5320683,4.170231,3.2246957,-45.783577,
31620430,-0.69229364,-3.6738257,19.540318,-1.7353442,0.7164389,-0.5922557,4.9360867,4.2937117,-44.074486,7.0
31620440,-1.0558076,-3.0695665,18.7025,-0.91003126,0.2197597,-0.5994462,5.244108,4.293748,-44.37635,
31620450,-1.168994,-2.5216007,15.396739,-0.05036366,-0.4042184,-0.54378617,6.3225803,3.9990578,-45.429466,
31620460,-1.3654232,-1.8029572,11.081882,0.5563039,-0.94643754,-0.4364609,5.5533466,4.2775707,-45.76136,
31620470,-1.5372987,-1.1208445,7.0179534,0.8306093,-1.173605,-0.28253034,6.629244,4.7407727,-45.430428,
31620480,-1.3654232,-0.4968224,3.776272,0.809304,-1.0734702,-0.092913456,4.1706886,2.6396923,-45.467262,6.0
31620490,-0.7310205,-0.09138765,2.1533356,0.5400586,-0.7853164,0.08471924,4.323847,4.387773,-47.031334,
31620500,-0.043118984,-0.11534243,1.1208843,0.13818797,-0.4715963,0.18112558,4.169224,3.961741,-45.792137,
31620510,0.38926488,0.0200021,1.3807936,-0.23039319,-0.09449303,0.1715382,3.7063332,4.8415084,-45.659065,
31620520,0.40962648,0.17990029,3.5822382,-0.4269343,0.22055866,0.12999293,4.3261166,2.4760876,-46.699608,
31620530,0.16408992,0.31883803,6.4208803,-0.37873113,0.24692392,0.10495925,3.8634186,2.3402052,-45.471428,
31620540,-0.061683934,0.4673577,7.0880213,-0.10948579,0.027479634,0.110285565,4.938404,3.973414,-45.77314,
31620550,-0.12696072,0.59491694,6.3388352,0.23459433,-0.15574569,0.15156452,4.4782505,3.2247324,-46.085426,
31620560,0.1030052,0.67995644,5.1410956,0.5400586,-0.28464258,0.21601295,2.9411354,3.04008,-47.050117,
31620570,0.34375077,0.64342535,3.9541364,0.7206209,-0.34829205,0.261553,6.018343,2.3566751,-46.50138,
31620580,0.58689183,0.4098662,3.0031319,0.77681345,-0.34349838,0.27833086,5.556843,3.2179117,-47.606163,
31620590,0.8929143,0.17510934,2.4018664,0.7467198,-0.28251207,0.26741195,2.943407,1.1283951,-46.71839,
31620600,0.92165995,-0.021319896,2.1108158,0.6955871,-0.14402778,0.23811719,2.01799,1.8699627,-45.511894,
31620610,0.87315154,-0.19798645,2.248556,0.63806283,0.026680687,0.21308348,3.2517757,1.1237984,-47.329735,
31620620,1.0132871,-0.4453196,2.7444196,0.6132955,0.19552496,0.16354874,4.0190506,2.029191,-46.702065,
31620630,1.2654111,-0.9561554,3.3253236,0.6290081,0.34705868,0.07779503,3.4044838,1.5753098,-46.86686,
31620640,1.0510159,-1.1813303,4.329628,0.68227136,0.43893766,-0.037786063,4.63323,1.7645578,-45.29084,
31620650,0.5030501,-1.0932965,5.1800222,0.81782603,0.44346502,-0.145644,4.174204,0.56670094,-46.062218,
31620660,-0.13534491,-0.8160199,5.447717,1.0037146,0.32495445,-0.21595138,5.2529335,-0.16558361,-46.800728,
31620670,-0.6246214,-0.5477263,5.369864,1.2026525,0.094591245,-0.25243667,6.483301,-0.28736877,-46.30442,
31620680,-0.86476815,-0.42855126,5.1255255,1.4284884,-0.15574569,-0.26042613,5.2550945,-1.4968987,-47.09478,7.0
31620690,-1.1025193,-0.2794327,4.2176394,1.6343505,-0.41353947,-0.24071875,2.9468212,-2.2458,-45.59588,
31620700,-1.1857622,0.11941446,2.6779451,1.735817,-0.63005424,-0.18186297,2.9456673,-1.6515303,-45.293266,
31620710,-0.8827342,0.6284537,1.0406357,1.6647106,-0.7634785,-0.1088924,4.949234,-2.828249,-47.086967,
31620720,-0.55575144,0.94585454,0.39265877,1.4657726,-0.7986322,-0.02047553,2.6428375,-4.325778,-46.353172,
31620730,0.24373958,0.51586616,0.26629728,1.2641716,-0.7078185,0.08977924,2.7954273,-4.162136,-45.42269,10.0
31620740,1.059999,0.028386265,0.20641032,1.0737557,-0.44389945,0.11854136,2.7954273,-4.162136,-45.42269,
31620750,1.6289251,-0.17942148,0.39685088,0.8577735,-0.054279327,0.08977924,3.104803,-4.903777,-46.02546,
31620760,1.8253541,-0.13570401,1.3670197,0.6444545,0.40804505,0.016276063,4.330593,-1.9253378,-45.25564,
31620770,1.0881457,0.38591143,5.5621014,0.54245543,0.6868778,-0.062287122,4.0294685,-5.345894,-46.92594,
31620780,0.8018861,0.796736,7.8312182,0.73926294,0.56064403,-0.07613555,4.0306683,-7.098589,-45.822258,14.0
31620790,0.64019126,1.2776284,8.4402685,0.9738872,0.311905,-0.077999756,4.490658,-5.479351,-46.44863,
31620800,0.7659539,1.6788709,7.6317945,1.0647008,-0.15015306,-0.026334478,2.0333157,-7.5966454,-47.56858,
31620810,1.6456935,1.1961821,5.5034122,0.7978524,-0.6343153,-0.0082249995,2.797781,-6.5091,-44.621635,
31620820,2.4523706,-0.29500332,3.4594703,0.15576482,-0.8044911,-0.075070284,4.492012,-6.2210293,-46.74952,
31620830,3.3309126,-2.388053,2.721064,-0.8285386,-0.404751,-0.19011876,2.1815224,-5.3484306,-45.269463,17.0
31620840,3.5980084,-4.1720853,7.8252296,-1.7193652,0.67462724,-0.40476933,3.8756046,-5.2031364,-47.086174,
31620850,2.3337946,-5.618355,17.374804,-1.992339,1.7513423,-0.6958526,4.9487305,-3.8346329,-45.372932,
31620860,-0.017966464,-4.658966,28.034683,-1.5955284,1.7958169,-0.8641642,5.1024017,-2.9617424,-46.307793,
31620870,-1.6432986,-3.0665722,30.207981,-0.52467227,1.0328221,-0.7150273,6.026682,-4.1223745,-45.96183,
31620880,-2.012801,-2.9174533,28.679667,0.7531113,0.0754165,-0.35310405,4.1792393,-3.1185255,-46.019417,16.0
31620890,-1.2881689,-2.4413521,21.651932,1.5885442,-0.5389742,0.0029602647,4.4889812,-4.878134,-45.681816,
31620900,-0.0047913194,-2.042505,14.7068405,1.6143768,-0.4660037,0.3305288,4.0248737,-3.982153,-44.4656,
31620910,1.8211623,-1.5801774,10.838741,0.9986546,0.057573337,0.57767,4.947916,-4.1132374,-44.28637,
31620920,3.79863,-1.3783584,10.056618,0.11049113,0.62775564,0.67274475,4.9498863,-4.4289026,-45.675545,
31620930,5.4724703,-1.5807765,12.377836,-0.8413218,0.8493305,0.53878784,4.3347683,-4.7307434,-45.532585,18.0
31620940,6.048583,-1.9335108,16.409428,-1.5822126,0.6788883,0.19151191,4.332947,-4.2723017,-44.454582,
31620950,5.7096233,-2.68629,20.31226,-1.9398748,0.37315762,-0.21142402,6.0259857,-4.1131096,-45.342903,
31620960,4.420855,-2.877928,24.017466,-1.8959327,0.159306,-0.58613044,4.0224,-1.9230585,-44.79905,
31620970,2.2673202,-2.4179964,26.450075,-1.5137694,-0.0553446,-0.8029115,4.1784344,-2.5288906,-46.026253,
31620980,0.3539316,-1.5484374,25.997929,-1.0114976,-0.3016868,-0.7541758,3.8685913,-2.070485,-44.6464,15.0
31620990,-0.48748022,-1.4190816,24.398947,-0.54384696,-0.42073,-0.46229357,3.8667793,-0.743804,-44.66181,
31621000,0.15151364,-2.3599057,21.163254,-0.19737002,-0.30248573,-0.112887144,3.2511158,-0.8936014,-44.211098,
31621010,1.3618292,-3.4127185,17.74371,-0.07326683,-0.0050109066,0.11720978,6.022764,-1.7545652,-45.370308,
31621020,2.4631505,-4.0451245,14.874524,-0.18432055,0.24079865,0.13585189,3.8697186,-2.519662,-45.10546,
31621030,2.50567,-3.890018,13.215056,-0.43412483,0.35371658,-0.0417808,4.3327007,-2.966466,-45.862602,13.0
31621040,1.7828345,-3.0252502,12.435926,-0.73825765,0.22588497,-0.2564314,3.8650208,0.29269218,-44.364326,
31621050,0.87395,-2.1866329,12.000348,-1.0375967,-0.12139093,-0.36482197,4.4859695,-1.7987576,-46.80088,
31621060,0.33536664,-1.7257028,11.635837,-1.2945914,-0.42578998,-0.31635246,5.4064484,-0.30371094,-46.331017,
31621070,0.27248532,-1.5765843,11.534029,-1.4261515,-0.4007563,-0.18692297,6.4824867,-0.5659714,-45.217857,
31621080,0.72882396,-1.7706181,12.341905,-1.3680947,-0.06439934,-0.050302908,4.482279,0.27655125,-46.051186,11.0
31621090,1.2264847,-2.0311265,13.880401,-1.0844682,0.21896076,8.297404E-4,5.710972,0.75598526,-44.788063,
31621100,1.0725751,-2.078437,14.058863,-0.68605965,0.2634355,-0.06175449,5.4011383,2.0826302,-44.50161,
31621110,1.1636033,-1.9167423,12.538933,-0.33958268,0.060236495,-0.21834823,5.5600014,0.281312,-46.798256,
31621120,1.1456373,-1.6143131,10.73334,-0.08711526,-0.29556152,-0.40370405,4.3285885,0.4169922,-46.366173,
31621130,0.72882396,-1.3502116,8.503749,0.06441848,-0.6806543,-0.6090336,3.2483044,2.0383644,-45.32847,8.0
31621140,-0.17786464,-0.68606514,6.4262705,0.0849248,-1.0087554,-0.709701,5.2500496,1.3200874,-46.04418,
31621150,-1.2258865,0.028985135,4.594328,7.6898746E-4,-1.1855893,-0.6431221,3.7119904,2.4505348,-47.797935,
31621160,-2.1810834,0.59491694,3.0300808,-0.16301528,-1.0830576,-0.42048198,2.9433517,1.418581,-47.03129,
31621170,-2.60149,1.0075381,2.127584,-0.3683448,-0.715808,-0.10676188,3.2502728,1.7227001,-46.717644,
31621180,-2.3685298,1.1404872,2.4623523,-0.5291996,-0.19089939,0.21441507,2.7880764,2.5932016,-47.203514,
31621190,-1.4738185,0.7134931,4.164939,-0.55290174,0.27701762,0.44051725,3.2480469,2.4759588,-45.643074,
31621200,-0.7282258,0.32243124,6.296914,-0.396308,0.48208082,0.55023944,2.0199585,1.5542984,-46.901054,
31621210,-0.33177412,0.30566293,7.065863,-0.12866053,0.429084,0.6069647,3.249054,1.7389135,-45.634514,
31621220,0.23535539,0.34997925,6.33644,0.12220903,0.28447446,0.61282367,4.633789,2.4807568,-46.69201,
31621230,0.63240594,0.268533,4.969819,0.29398277,0.12761441,0.5651531,2.9412441,2.4597082,-46.42434,7.0
31621240,1.1336598,0.19606978,3.6409276,0.3315333,-0.07105723,0.4841931,2.3268166,1.2803631,-45.806908,
31621250,1.4564505,0.18409237,2.8414366,0.27161223,-0.3102089,0.36541617,3.4048862,1.2804909,-46.86344,
31621260,1.6588686,-0.0069470294,2.5402052,0.20929432,-0.51287526,0.2335898,2.6369514,1.1075115,-47.809135,
31621270,1.7115691,-0.22733107,2.698307,0.18958694,-0.61700475,0.0940403,4.0202675,2.0129776,-47.78521,
31621280,1.3989589,-0.3033875,3.0965552,0.23512697,-0.6084826,-0.016480789,3.711029,2.0291548,-46.4002,
31621290,0.9719651,-0.36746654,3.349278,0.3046354,-0.50781524,-0.07347239,3.7113686,1.1562815,-45.616264,
31621300,0.52580714,-0.34770384,3.5768485,0.40343857,-0.32565522,-0.08678819,1.4062347,1.2339277,-47.995964,
31621310,0.23595428,-0.14109385,3.7756734,0.5363302,-0.11686356,-0.059091333,2.789734,0.2555027,-45.78353,
31621320,0.21319723,-0.041681476,4.0571423,0.71476185,0.09033018,0.0029602684,3.4018574,2.6233864,-45.795723,
31621330,0.2413441,-0.17942148,4.4667687,0.94352716,0.27435446,0.08072451,2.0227776,-0.509429,-46.877083,
31621340,0.2515249,-0.34530836,4.390113,1.1770864,0.3973924,0.14410767,3.4062958,0.24862766,-46.851448,
31621350,0.42938918,-0.54772633,3.180397,1.2836126,0.43014926,0.18938138,3.0953827,0.86602306,-44.69964,
31621360,0.73301613,-0.64174885,2.1221943,1.2159684,0.37049448,0.17846242,3.2524338,0.39138508,-47.01171,
31621370,0.88273346,-0.6094099,1.7976068,1.0716252,0.2549134,0.11348136,2.0250587,-1.5528736,-47.63877,
31621380,0.88273346,-0.5375455,2.1359682,0.9714904,0.15158285,0.03065712,4.9466076,-1.7801723,-46.015816,8.0
31621390,0.9042928,-0.6423477,2.933064,0.9523156,0.06476386,-0.03459027,3.4078999,-1.7988863,-45.74436,
31621400,0.76655275,-0.7537374,4.05295,1.0005188,-0.015663534,-0.07933134,5.560953,-0.16554737,-47.102592,
31621410,0.3078186,-0.659116,5.059051,1.0814788,-0.06759514,-0.09584293,2.7924995,-1.5180378,-46.07244,
31621420,-0.3389606,-0.6345624,5.887886,1.1874726,-0.11473303,-0.085190296,3.7211475,-3.7499104,-48.344963,
31621430,-0.5815028,-0.4926303,6.1747446,1.3424684,-0.18184462,-0.021807108,4.949829,-4.1387167,-45.988426,12.0
31621440,-0.566531,-0.2680542,5.9501686,1.4617779,-0.23510781,0.07007187,2.7969933,-4.1829824,-46.815285,
31621450,-0.31320918,-0.33213323,5.372859,1.4713652,-0.25721204,0.18378875,2.3348904,-2.8795185,-47.925224,
31621460,0.18085825,-0.6028223,5.026113,1.2471273,-0.2803815,0.2820593,2.7998142,-6.24671,-46.791313,
31621470,0.7803268,-1.2124715,5.3147683,0.8117008,-0.24176571,0.31215298,2.7998142,-6.24671,-46.791313,
31621480,1.8427215,-2.4862673,7.392846,0.31954908,-0.064133026,0.2951088,2.3369522,-5.5120354,-46.501823,16.0
31621490,2.3840997,-3.1432273,10.684833,-0.012546806,0.21416707,0.20056665,2.796894,-5.484186,-45.097816,
31621500,2.0253768,-2.6335893,14.531971,-0.081788935,0.48873878,0.05995186,2.9510498,-5.3413887,-45.55993,
31621510,1.477411,-2.010765,18.26712,0.11448587,0.58754194,-0.041514482,2.7987518,-5.2194786,-47.11277,
31621520,0.92285764,-1.5993414,19.626554,0.48466492,0.32601973,-0.08732082,1.409687,-4.166933,-44.373756,
31621530,0.40543437,-1.5382566,18.39887,0.9168956,-0.04122985,-0.05030291,4.1843395,-6.2256985,-46.75712,19.0
31621540,0.6725302,-1.6640193,16.011179,1.1648357,-0.31926364,0.08551819,2.030222,-6.8318043,-45.720345,
31621550,1.3235015,-1.6238949,13.033,1.0945282,-0.35921103,0.24717194,3.4169712,-7.5640526,-46.76072,
31621560,2.3158286,-1.2981099,11.362154,0.7112998,-0.09795514,0.3486383,2.184286,-7.121971,-45.558388,
31621570,2.7530034,-0.96992946,12.39161,0.15123746,0.30817658,0.34144777,2.8000069,-7.2623577,-45.69622,
31621580,2.551783,-0.66091263,15.575201,-0.35982272,0.56597036,0.27620035,2.3367405,-6.2328663,-45.410133,23.0
31621590,2.358947,-0.44052863,18.274307,-0.69751126,0.4309482,0.1965719,3.2601318,-6.3685837,-45.54035,
31621600,1.9870491,0.01401341,18.804905,-0.8634261,0.09592283,0.1294603,1.5677433,-5.3786144,-46.677254,
31621610,1.9167818,0.21762908,18.768373,-0.9771429,-0.092096195,0.12413399,4.4930744,-7.2482586,-46.428093,
31621620,2.1457496,0.0044314936,18.995346,-1.097784,-0.06360039,0.1648803,2.336338,-5.9380474,-45.41355,
31621630,2.2415686,0.090069845,19.684645,-1.179543,0.10337967,0.20775717,3.8724747,-5.1614428,-44.300987,
31621640,2.1415577,0.3200358,20.727276,-1.2325399,0.22508603,0.2639498,4.027849,-5.0348625,-45.84623,
31621650,2.2164161,0.30087194,22.00167,-1.2091041,0.25145128,0.35130143,2.1803055,-5.3322163,-44.186333,
31621660,2.7667773,-0.10216729,22.686779,-1.0359987,0.2330755,0.43918568,3.8746986,-5.9147015,-45.375557,
31621670,3.8453417,-0.85674304,22.03401,-0.75024176,0.21043867,0.46395308,3.7200394,-4.314068,-46.636055,
31621680,4.8083243,-1.6077256,19.612778,-0.5118891,0.15770811,0.3419804,3.4086132,-2.8214827,-45.11344,17.0
31621690,5.3616796,-2.4844708,16.533392,-0.47673538,0.02534911,0.071403444,1.7173595,-4.162264,-44.366158,
31621700,5.156866,-3.2390463,13.307282,-0.64131856,-0.09475935,-0.28199774,2.1784382,-3.7153492,-44.514626,
31621710,4.053748,-3.2252727,10.859702,-1.0282755,-0.069991976,-0.6132946,3.716816,-1.9555225,-46.663445,
31621720,2.1074219,-2.5749002,10.915996,-1.5249547,0.112967044,-0.83327156,5.252926,-1.0338259,-45.70733,
31621730,-0.33656514,-1.977228,12.858729,-1.8820843,0.3036492,-0.8500495,3.8675938,-0.46520042,-45.748375,15.0
31621740,-1.8858409,-1.7520531,15.040411,-1.9702349,0.387805,-0.6361978,2.9431953,0.40756226,-45.6267,
31621750,-2.0882587,-1.7496576,16.557947,-1.7819495,0.43361133,-0.28759035,2.7914925,-0.7809925,-46.081,
31621760,-1.1929487,-2.1089795,16.760963,-1.4226894,0.43840504,0.051429756,1.8640633,1.4346666,-44.89161,
31621770,0.06228207,-2.5820866,16.22138,-0.9800724,0.4977935,0.26980877,2.6370888,0.3820467,-47.02691,
31621780,0.9881345,-2.759352,15.450038,-0.48792064,0.60485244,0.32520247,3.4014893,0.8915386,-43.29943,10.0
31621790,1.3360777,-2.5731034,13.751044,-0.0069541745,0.6519904,0.27167296,4.1737194,1.2967968,-46.53498,
31621800,1.794213,-2.1754541,11.142368,0.27747118,0.48367873,0.13958031,3.7121658,-0.3015957,-44.516,
31621810,1.6552753,-1.7586406,8.685206,0.35177332,0.12867968,-0.06281976,3.4046764,0.55965996,-45.77175,
31621820,1.3019421,-1.4256691,6.858055,0.29238486,-0.26813096,-0.23991981,4.63344,2.4853888,-46.382545,
31621830,0.535988,-0.67229116,5.79566,0.19517958,-0.5895742,-0.37041456,4.175211,-0.17034435,-46.053658,
31621840,-0.5761129,0.03078176,5.1848135,0.14404693,-0.70595425,-0.34671247,6.017664,1.3526077,-44.63259,8.0
31621850,-1.3803949,0.32722223,4.9512544,0.13312799,-0.5871774,-0.17840084,4.0218067,-0.61258984,-45.89759,
31621860,-1.922372,0.5667701,4.554803,0.16109115,-0.24070042,0.054891862,4.0201855,-0.30155945,-44.81788,
31621870,-2.1068237,0.9260918,4.240396,0.18532589,0.20937338,0.31960985,4.480833,0.585268,-45.126213,
31621880,-1.691807,1.030894,3.7421367,0.18079852,0.57422614,0.56541944,4.3289375,0.4123602,-46.675636,
31621890,-0.814463,0.8787812,3.1169167,0.09451217,0.7151073,0.70603424,5.712244,0.44958496,-45.55831,
31621900,0.15331025,0.57934636,3.1193123,-0.026128916,0.6450662,0.71455634,4.941681,1.3246841,-45.432854,
31621910,0.87015724,0.29188892,3.521154,-0.087647885,0.47275978,0.61495423,5.405981,-0.5869465,-45.553917,
31621920,1.1348575,0.21463473,4.037978,-0.07353315,0.2330755,0.46768147,4.176428,-0.18655872,-47.136787,
31621930,0.9186657,0.29548216,3.764295,-0.028525759,-0.061736178,0.34490985,5.40633,-0.5915785,-45.863396,
31621940,0.8036827,0.24158387,2.2132225,-0.047434185,-0.26866361,0.27380353,5.0995274,-0.6078291,-46.64466,
31621950,0.5982704,0.3104539,1.4346919,-0.17073844,-0.26946256,0.20615928,5.407547,-0.60779285,-46.946526,
31621960,0.3138073,0.31165162,1.5311099,-0.31161955,-0.11979304,0.17579927,5.2513676,-0.14473724,-45.408134,
31621970,0.34854177,0.08468002,2.322217,-0.38512272,0.11323335,0.17526664,4.4797707,1.6124983,-45.44767,
31621980,0.51023656,-0.22912768,3.7331538,-0.33638692,0.3553145,0.16647822,6.330593,-0.73887825,-46.76728,
31621990,0.5162252,-0.46208796,5.650734,-0.12120369,0.5108429,0.14650452,5.4035645,1.181962,-45.57447,7.0
31622000,0.19044018,-0.42855126,7.125151,0.2476438,0.47275978,0.110551886,5.5597916,-0.43951988,-45.70658,
31622010,-0.09462176,-0.45609924,7.2341456,0.7118324,0.30577976,0.08258872,5.2541428,-1.0500393,-46.790443,
31622020,-0.1491189,-0.5417376,5.7495475,1.144063,0.098585986,0.06980555,4.1777935,-2.8098097,-45.094444,
31622030,0.054496773,-0.36267558,3.5594816,1.3672358,-0.16506673,0.048500285,4.4837456,-1.0454988,-45.726326,
31622040,0.058688853,-0.107557125,1.9389403,1.363241,-0.46786788,0.00988448,7.1010265,-2.7700853,-45.33172,
31622050,0.10599957,0.2727251,1.1550199,1.2473936,-0.71021533,-0.019676581,6.1761684,-1.3123188,-45.52636,
31622060,0.22577348,0.50808084,1.4406805,1.1358073,-0.84177536,-0.024203952,5.1039677,-2.9825888,-47.7004,
31622070,0.23954749,0.6152785,2.2054372,1.0950608,-0.8798585,0.0045581628,4.330593,-1.9253378,-45.25564,
31622080,0.18505034,0.35417134,2.8366458,1.0809462,-0.79250693,0.05462555,5.5613117,-2.051753,-45.06881,
31622090,0.13115208,-0.0093425065,3.5978088,1.0886693,-0.56241006,0.10309504,4.025551,-2.9780846,-46.33439,10.0
31622100,0.448553,-0.3902236,5.3465085,1.1443293,-0.24389623,0.13159081,3.7199306,-3.733697,-47.261833,
31622110,0.2880559,-0.39741004,6.6903715,1.292401,-0.023386698,0.12839504,3.103201,-2.856264,-47.13256,
31622120,0.40483552,-0.58425736,6.6436596,1.43994,0.08047649,0.16514663,4.0279026,-5.3250475,-45.533333,
31622130,0.7300217,-0.3584835,5.74296,1.481219,0.09379229,0.19524032,4.0255337,-4.7145653,-44.14759,
31622140,1.0102928,-0.19199774,4.721288,1.322761,0.075949125,0.19577295,4.0255337,-4.7145653,-44.14759,15.0
31622150,1.2258857,-0.5058054,4.257165,0.9296788,0.006973316,0.16195084,4.648035,-7.695101,-46.883354,
31622160,1.8205633,-1.1579745,4.742848,0.36242595,-0.080378294,0.07832766,3.1061325,-5.5003624,-46.482826,
31622170,2.2499528,-1.9832168,7.5958624,-0.110817365,0.029077534,-0.07640186,4.4915085,-7.227413,-45.035484,
31622180,1.9958324,-2.7775176,11.874187,-0.25995424,0.25225025,-0.26442087,4.3366356,-6.3476105,-45.204277,
31622190,1.4630382,-2.82403,15.957279,-0.0895121,0.19792181,-0.40024197,4.3366356,-6.3476105,-45.204277,19.0
31622200,0.57371676,-2.4976459,17.206524,0.3887912,0.08127544,-0.41036195,4.184395,-6.5158844,-46.444252,
31622210,-0.43777406,-2.248516,17.31432,0.9485872,-0.051882498,-0.2801335,2.6437073,-7.0871735,-43.690193,
31622220,-1.1192877,-1.9203355,15.320683,1.23754,-0.19409516,-0.0617545,3.876566,-7.5315704,-45.04725,
31622230,-1.3768017,-1.5220872,12.858728,1.1155672,-0.16719726,0.19577298,4.1849346,-7.536165,-45.658592,
31622240,-0.6887004,-1.035805,10.53751,0.6636292,0.07648176,0.4042983,3.2626972,-7.9947166,-45.830986,22.0
31622250,0.5455699,-1.0429915,10.742922,0.04045005,0.499924,0.4730078,3.8767033,-8.257034,-44.265022,
31622260,1.5570607,-1.1088672,13.510898,-0.46155536,0.75212514,0.38166144,5.5687084,-7.215702,-45.31835,
31622270,1.6924052,-0.68127424,17.42511,-0.7004407,0.56543773,0.20722455,3.8769684,-7.8263874,-45.04383,
31622280,1.6319194,-0.23391862,20.023605,-0.7204144,-0.05268144,0.039445546,5.1069164,-6.6400204,-45.800804,
31622290,1.3450608,0.24517709,19.972103,-0.7068323,-0.71021533,-0.082793444,4.4895763,-6.1886005,-44.583275,23.0
31622300,1.1935468,0.3673465,18.5438,-0.8655566,-1.0367186,-0.08519029,3.8757973,-6.2187862,-45.99105,
31622310,1.57862,-0.4632857,17.946724,-1.163564,-0.8439059,0.017607642,3.2599792,-7.3796024,-44.135765,
31622320,2.0589135,-1.2807428,19.103142,-1.4407989,-0.13630462,0.13851506,2.9498882,-5.615362,-44.163902,
31622330,1.9373429,-1.6724035,22.45741,-1.5744895,0.5848788,0.25542772,3.4150581,-7.538574,-45.058647,
31622340,1.4372867,-1.6891718,26.595001,-1.4575768,0.8352157,0.38325936,2.7960873,-4.8945484,-45.104668,22.0
31622350,1.6301228,-1.5891606,28.849745,-1.1017787,0.6368104,0.5156183,3.7166615,-2.9665394,-45.258858,
31622360,3.0751953,-2.0934088,28.79944,-0.6162849,0.24452707,0.5648868,4.6400795,-3.2473507,-45.232628,
31622370,4.9370813,-3.0042896,26.74831,-0.11427947,-0.105411984,0.439452,2.9488907,-4.0100765,-45.26586,
31622380,6.301306,-3.6935885,22.859253,0.27853647,-0.2952952,0.14756979,3.1020393,-3.1302357,-45.73655,
31622390,6.7211137,-3.897204,18.194656,0.40743333,-0.354151,-0.2732093,2.1766167,-3.2569084,-43.436638,17.0
31622400,5.691656,-3.488775,13.998378,0.23965432,-0.37811944,-0.7051736,4.489788,-5.4677696,-45.674965,
31622410,3.740539,-2.6557477,10.759092,-0.16274896,-0.35947734,-0.99599063,4.025881,-4.719198,-44.45704,
31622420,1.6265295,-1.5160984,8.87924,-0.7028376,-0.2532173,-1.0647001,4.4890366,-5.1683187,-45.36892,
31622430,-0.346147,-0.03868714,7.848585,-1.2541114,-0.024451967,-0.89718735,3.408907,-2.5359316,-45.7358,
31622440,-1.076768,0.85782075,8.2288685,-1.6509221,0.4064471,-0.57787466,3.4082108,-2.5266657,-45.11686,
31622450,-0.27607927,0.3865103,9.660765,-1.8099127,0.83947676,-0.31422195,3.4062786,-1.487853,-44.66465,
31622460,1.0839536,-0.78128546,10.281194,-1.8019232,1.1156462,-0.23166403,3.8690052,-1.4970636,-45.73638,
31622470,1.8193657,-1.7101322,10.919589,-1.6509221,1.3294978,-0.34431565,4.4821873,-0.15641022,-45.42713,
31622480,1.6025748,-2.1634767,11.587328,-1.3542461,1.3484063,-0.5733472,5.4026947,1.1935434,-44.800804,
31622490,0.710259,-1.946087,11.502888,-0.99711657,1.0930095,-0.8124989,4.6351814,-0.28758812,-44.493202,13.0
31622500,-0.33177412,-1.2975111,10.2165165,-0.6674175,0.59659666,-0.9579074,5.0958385,1.4674788,-45.894966,
31622510,-1.2761915,-0.63755673,8.406733,-0.43519008,0.005908057,-0.9784137,5.5547466,2.3774672,-44.655968,
31622520,-2.1571288,0.2667364,6.614914,-0.29271114,-0.5048858,-0.87961054,6.0188828,1.3363934,-45.71572,
31622530,-2.587716,0.966815,4.9057407,-0.23998058,-0.7786585,-0.745121,5.712803,1.1657848,-46.95948,
31622540,-2.4391963,1.2542723,3.4504874,-0.25436163,-0.943508,-0.57973886,4.63595,1.1494427,-46.986076,9.0
31622550,-2.0984395,1.2075605,2.6486008,-0.32014164,-0.9714712,-0.3523051,5.7118416,0.74440384,-45.56173,
31622560,-1.6989934,1.0416737,2.5132563,-0.37393746,-0.7600163,-0.15816084,6.1723976,1.1982679,-45.245995,
31622570,-1.3678185,0.8069168,2.9971428,-0.37686694,-0.3922342,-0.009822895,4.324898,2.492301,-45.616478,
31622580,-1.219299,0.6416288,3.7367468,-0.32972902,-0.08650355,0.100431874,6.0185337,1.3410263,-45.406258,
31622590,-1.2414571,0.6068943,4.2080574,-0.22080582,0.07674807,0.19603926,3.0922165,2.9343824,-44.414146,8.0
31622600,-1.2037283,0.6793575,4.1793113,-0.074065775,0.089531235,0.28232563,5.0973663,0.72348404,-46.350594,
31622610,-0.9138754,0.89914274,3.9894698,0.05696164,-0.011136165,0.3640846,6.170391,3.5405989,-46.35653,
31622620,-0.2928476,0.82488286,3.6379333,0.15150377,-0.16080569,0.43545726,4.4800644,1.8980513,-46.070015,
31622630,0.31260955,0.5146684,3.2085438,0.19571221,-0.29795837,0.4610236,3.866394,1.2874947,-46.852043,
31622640,0.847999,0.21882682,2.9276738,0.19997326,-0.35734683,0.41921198,5.5594616,1.3015938,-47.583916,7.0
31622650,1.2007333,-0.039286,2.7294483,0.1922501,-0.3253889,0.3241372,4.172447,1.6031961,-45.764748,
31622660,1.0707785,-0.11534244,2.9522276,0.19757642,-0.23111309,0.19870242,4.6339817,1.4651079,-45.596886,
31622670,0.63180715,2.394095E-4,3.5912216,0.23779012,-0.13497305,0.07779503,4.9406204,2.3519144,-45.75431,
31622680,0.28146833,-0.037489392,4.355978,0.3549691,-0.07398671,-0.002366051,4.1709824,2.9252458,-46.089607,
31622690,-0.12456524,-0.011139113,4.882983,0.5528418,-0.062268816,-0.06388502,4.325714,2.7709055,-46.703026,
31622700,-0.7336157,0.24278161,4.8230963,0.7824061,-0.12511936,-0.10463135,4.9427433,0.29745293,-45.111397,
31622710,-1.0929375,0.42962894,3.8223855,0.9967904,-0.2180636,-0.088918716,4.324148,2.7917523,-45.310432,
31622720,-1.0887454,0.55778706,2.4150417,1.1139694,-0.30408365,-0.043112375,4.3295956,-0.3200531,-46.357613,
31622730,-1.024866,0.8388565,1.5009669,1.1049145,-0.3805163,0.003226583,2.9440117,0.6861677,-46.713264,
31622740,-0.9120788,0.98777544,0.9388278,1.0287483,-0.41353947,0.07912661,3.4081097,-1.0780544,-46.836037,8.0
31622750,-0.5874915,0.73325586,1.0124888,0.9374019,-0.3538847,0.16381505,3.8690052,-1.4970636,-45.73638,
31622760,-0.062881686,0.17990027,1.9910419,0.8854704,-0.2497552,0.23172559,4.1760178,-0.75998116,-46.046806,
31622770,0.52401054,-0.42076597,2.8001146,0.91742826,-0.09182987,0.24743822,3.715662,-1.3612537,-46.360817,
31622780,0.9192645,-0.83338714,2.9222844,0.9856051,0.18220916,0.22959508,3.2565079,-3.7152214,-45.57116,
31622790,1.2169026,-0.92561305,3.5846338,1.0050461,0.45811245,0.19790348,4.0254326,-3.265954,-45.866768,11.0
31622800,0.8485979,-0.6884607,4.8931637,1.0681629,0.66450727,0.12892768,4.948822,-3.4016714,-45.996986,
31622810,0.16349106,-0.36566994,5.7723045,1.1874726,0.714042,0.08099082,5.2531166,-2.0494738,-44.612206,
31622820,-0.25691545,-0.011139121,6.0028696,1.2186315,0.49832612,0.08605082,5.257906,-4.4288654,-45.97741,
31622830,-0.34195492,0.05234106,5.734576,1.0553799,0.07248703,0.11108452,4.0274353,-5.608284,-44.75625,
31622840,-0.3407572,-0.48364726,5.373457,0.6247471,-0.35921103,0.13159084,2.7954273,-4.162136,-45.42269,15.0
31622850,0.12456452,-1.7508554,6.3196716,-0.010149971,-0.48890683,0.1582224,3.4121838,-5.184661,-45.395515,
31622860,0.9396261,-3.0360298,9.744607,-0.53585756,-0.0873025,0.15662453,4.0291214,-5.341261,-46.616463,
31622870,1.6444956,-3.5881877,15.537474,-0.65836287,0.6035209,0.1142803,4.335638,-4.742325,-46.30625,
31622880,2.2056365,-3.7151477,21.226135,-0.21228373,1.1404135,0.046103436,5.718479,-4.9883356,-44.411827,
31622890,1.8337384,-3.5612383,24.083939,0.6846682,1.2519999,-0.060689226,5.718479,-4.9883356,-44.411827,18.0
31622900,0.9300442,-2.9833293,22.91914,1.6415411,0.8999304,-0.15922612,6.6443615,-5.4466667,-46.39544,
31622910,0.38567165,-2.4221885,18.512058,2.1739063,0.34306395,-0.1807977,5.103674,-6.017956,-43.64138,
31622920,0.69588614,-2.09281,13.918129,2.05726,-0.08011197,-0.1776019,5.107977,-7.6672516,-45.479347,
31622930,1.3576372,-1.7185163,9.861985,1.3896062,-0.16639832,-0.23778927,6.336323,-7.1831837,-43.906746,
31622940,1.3342812,-1.389737,9.406844,0.4308691,0.1459902,-0.35656616,5.722782,-6.6376305,-46.249794,22.0
31622950,0.30781862,-0.9543587,12.961735,-0.3869869,0.5422682,-0.42181355,5.264761,-8.572533,-47.01261,
31622960,-0.38926563,-0.61300313,16.987934,-0.83599544,0.6176356,-0.36189246,5.10717,-7.077614,-45.4862,
31622970,-0.24134482,-0.66091263,19.894848,-1.0093671,0.3822124,-0.22846822,6.488199,-5.9969444,-43.607185,
31622980,0.46711797,-1.2208557,21.306383,-0.94252187,0.20644392,-0.101968184,3.8766022,-6.808422,-45.984215,
31622990,1.257027,-1.959262,21.151875,-0.7451818,0.25411445,-0.03325869,7.2586517,-6.2916718,-44.35842,23.0
31623000,1.7852299,-2.3329568,20.52546,-0.62587225,0.42349136,-0.043911323,4.951359,-4.8827114,-46.444084,
31623010,1.2091174,-2.1634767,20.31765,-0.6367912,0.6205651,-0.13845347,5.255186,-3.8137493,-44.28219,
31623020,-0.020960808,-1.4011155,20.808723,-0.7047017,0.64506614,-0.17547138,6.6434917,-5.4350853,-45.621773,
31623030,-0.9689715,-0.31237054,21.34052,-0.7907218,0.4455956,-0.12673557,7.101969,-4.085186,-44.54264,
31623040,-1.0246662,0.28709796,21.541142,-0.8479797,0.1358702,-0.022606054,7.10141,-4.801385,-43.141487,22.0
31623050,-0.080847755,0.018804356,21.066236,-0.8258755,-0.1493541,0.0706045,5.412491,-4.7259827,-46.279655,
31623060,1.1767784,-0.7423589,19.914612,-0.74411654,-0.31473625,0.075664505,7.1041946,-4.8384457,-45.617226,
31623070,1.6870154,-1.12324,18.431808,-0.6517049,-0.31233943,-0.019942898,5.718149,-3.247223,-46.289177,
31623080,1.4265071,-1.3316467,16.707066,-0.59497964,-0.23111308,-0.12673557,6.332386,-3.80204,-44.56507,
31623090,0.73720807,-1.3633866,14.682886,-0.65703124,-0.15414777,-0.1909177,7.099617,-1.7382231,-45.34371,19.0
31623100,0.21259832,-1.4274658,12.949757,-0.8463818,-0.027115116,-0.20636402,5.5634174,-3.0928822,-45.67576,
31623110,-0.26589847,-1.2304376,11.88317,-1.1214862,0.12654914,-0.18133032,6.796047,-3.2447786,-47.190987,
31623120,-0.19163865,-1.0112512,12.214345,-1.4269505,0.22242287,-0.109957665,6.3300343,-1.4550772,-45.366127,
31623130,0.45454168,-1.3142793,13.40909,-1.5835443,0.23760287,-0.066281855,5.714716,-1.6095076,-45.224876,
31623140,1.2085185,-1.8574543,14.155282,-1.5009863,0.24399446,-0.08598924,7.4069843,-0.13753223,-47.057,15.0
31623150,1.7391169,-2.2479172,14.334345,-1.2383988,0.23041233,-0.17999876,6.4822407,0.7398634,-46.625877,
31623160,1.6822244,-2.280256,13.801949,-0.8607629,0.21043865,-0.3203472,5.7118416,0.74440384,-45.56173,
31623170,1.1953434,-2.0365162,12.498808,-0.4471743,0.2197597,-0.45403776,6.0200806,-0.41630173,-44.612038,
31623180,0.59288055,-1.4699855,10.378809,-0.15502581,0.17981234,-0.57041776,8.632658,2.5530376,-45.819557,
31623190,-0.17007935,-0.83338714,8.446258,-0.029591022,0.07488386,-0.66602516,7.249258,2.0828505,-46.312813,11.0
31623200,-1.0731747,-0.25128585,6.9957952,0.016481625,-0.035903543,-0.7009126,7.711792,0.33947563,-45.043007,
31623210,-1.8594905,0.28350472,5.6752877,0.00902478,-0.16107199,-0.6668241,7.5577374,1.4978838,-46.298363,
31623220,-2.7080886,0.9153122,4.7188926,-0.069272086,-0.29769206,-0.5706841,5.55657,1.9190254,-45.73397,
31623230,-3.2650375,1.2812216,4.3008823,-0.13718264,-0.34616154,-0.36508828,6.636917,0.87570953,-47.552177,
31623240,-3.4303255,1.3387132,4.1601477,-0.13558474,-0.22711834,-0.09637556,8.02092,0.90366936,-47.05378,10.0
31623250,-3.0949585,1.2303177,4.0481586,-0.10868684,-0.038833015,0.18006033,6.1743107,1.1727886,-46.948082,
31623260,-2.243965,0.9775946,4.22243,-0.09776789,0.10577652,0.39018354,7.0967426,0.61569023,-45.680565,
31623270,-1.6031743,0.7590073,4.5829496,-0.03438471,0.16063759,0.51908046,6.3264637,0.9081011,-45.084053,
31623280,-0.9695703,0.73086035,4.754825,0.091050066,0.13879967,0.6024374,8.941044,1.5351086,-45.181038,
31623290,0.08144591,0.6218661,4.1793113,0.21115853,0.0336049,0.6248079,6.1743107,1.1727886,-46.948082,9.0
31623300,0.98573905,0.40607342,3.568265,0.28865647,-0.078514084,0.56355524,7.7120304,0.91521454,-45.97825,
31623310,1.6181453,0.18289463,3.2432783,0.36269227,-0.12671725,0.43039727,7.7114906,1.9354963,-46.763893,
31623320,1.872066,0.024194185,2.9492333,0.43113542,-0.1493541,0.26315087,7.8675156,0.46142292,-46.897728,
31623330,1.4588461,-0.20397516,2.730646,0.47853965,-0.10328145,0.07779503,7.8681755,-0.27098942,-46.57969,
31623340,0.871355,-0.056653224,2.9851656,0.5291397,0.0019133147,-0.043645013,7.2533894,0.43587017,-47.996056,
31623350,0.2916491,-0.13211079,3.1019452,0.59039235,0.10577652,-0.09557661,6.4844,-0.5914507,-46.91993,
31623360,-0.17606804,-0.15846105,3.1774027,0.6886629,0.2061776,-0.13179557,7.716278,-0.44389534,-48.129112,
31623370,-0.51383054,-0.02131991,2.840838,0.76829135,0.22402078,-0.14111662,7.404604,-0.39529037,-44.577843,
31623380,-0.48748022,0.1421715,2.2593355,0.757905,0.10764072,-0.13712189,7.872614,-2.6457481,-47.63543,
31623390,-0.547966,0.20385507,1.8910306,0.7347356,-0.0018151086,-0.14005136,6.486561,-1.9227657,-47.213997,9.0
31623400,-0.819254,0.2781149,1.7383188,0.7211535,-0.1091404,-0.109158725,8.484297,-0.7061939,-46.71409,
31623410,-1.0144855,0.39130127,1.6125561,0.7065061,-0.23084676,-0.049237642,6.6384563,-1.7498598,-45.664574,
31623420,-1.1288695,0.36195666,1.6514828,0.6963861,-0.29795837,0.00935185,8.7966,-4.0919333,-46.667107,
31623430,-1.2181013,0.17091724,2.0970416,0.6833366,-0.33604154,0.09350766,8.02655,-4.092025,-45.912437,
31623440,-0.8947116,-0.03569277,2.789934,0.6883966,-0.3703963,0.2032298,7.254833,-2.6226587,-45.484367,12.0
31623450,-0.38687015,-0.3932179,3.2750185,0.77201974,-0.29795837,0.30070144,6.641678,-4.108404,-45.637184,
31623460,0.017965723,-0.9106413,3.4804308,0.90784085,-0.117928825,0.36195406,6.6439743,-3.415368,-48.58567,
31623470,0.45573944,-1.3208671,3.2193236,1.027683,0.07941124,0.3726067,7.8723946,-4.2348204,-45.450325,
31623480,0.8000895,-1.2939179,2.9079113,1.0804136,0.23067866,0.30682668,6.642025,-4.113036,-45.946632,
31623490,0.72403306,-0.9322006,3.006126,1.0868051,0.2581092,0.23225823,7.412422,-4.1175776,-47.01078,15.0
31623500,0.49766028,-0.5447319,3.6055946,1.0601735,0.11163546,0.18192454,7.415243,-6.181305,-46.98681,
31623510,0.38207847,-0.16385089,4.8308816,0.9874693,-0.21326992,0.13531925,7.2589264,-4.9927855,-46.23063,
31623520,-0.06407942,0.1876856,6.377762,0.8492514,-0.7363143,0.08578451,8.3352585,-4.969494,-45.739845,
31623530,-0.8887229,0.16492856,7.010767,0.57867444,-1.4010389,0.12120451,6.798361,-6.314888,-45.452965,
31623540,-0.019164175,-0.66270924,6.005863,0.1738743,-1.7429883,0.1965719,4.337332,-6.3568745,-45.82322,18.0
31623550,1.2145073,-1.922132,5.1506777,-0.34304482,-1.2401841,0.21121928,6.338585,-7.213295,-45.91828,
31623560,2.024179,-2.7797136,8.8433075,-0.7654218,-0.09848777,0.12040556,3.8738842,-6.193308,-44.288994,
31623570,2.3924837,-2.9713516,14.868536,-0.7105607,0.79233885,-0.036454484,6.3393173,-6.4994125,-47.474174,
31623580,1.3372755,-2.6653295,18.576138,-0.32653323,1.1135157,-0.15869348,4.3351173,-4.7353754,-45.84205,
31623590,-0.36351424,-2.0077703,21.490835,0.14511219,0.6402725,-0.11501767,6.183365,-6.3288593,-45.777626,
31623600,-1.1552198,-1.8107425,20.49731,0.4955839,-0.14562568,0.053826597,6.181259,-5.28773,-45.170677,
31623610,-0.7821241,-1.9245275,17.910194,0.5821365,-0.58451426,0.30815825,5.5660267,-5.8774395,-44.560097,
31623620,0.9390272,-2.1694653,15.176952,0.3531049,-0.4391058,0.51615095,5.5660267,-5.8774395,-44.560097,
31623630,2.47393,-2.276663,14.334943,-0.057820506,0.053844918,0.5821973,4.6432457,-5.315709,-45.518135,
31623640,3.6351383,-2.3886514,15.314095,-0.47300696,0.49060297,0.5510384,3.8733807,-4.449877,-46.011604,20.0
31623650,4.305274,-2.597657,17.496975,-0.80164075,0.6514578,0.40935832,4.3338985,-4.719162,-44.75892,
31623660,4.278923,-2.9102669,19.325924,-1.0011114,0.5603777,0.23438877,5.411621,-4.7144012,-45.50599,
31623670,3.6926298,-3.1138828,20.184702,-1.1768799,0.35664606,0.035450805,5.7208595,-4.7305784,-46.891,
31623680,2.6194553,-2.787499,21.399208,-1.3667631,0.15131652,-0.19331455,5.717819,-4.2559233,-44.72985,
31623690,1.6624618,-2.217974,23.186237,-1.4623704,0.05890491,-0.3206135,4.6398144,-3.6779957,-44.453835,
31623700,0.5431744,-2.05029,24.81516,-1.4429294,-0.010603534,-0.33819038,5.257969,-3.85081,-46.757927,
31623710,-0.111988984,-1.8981773,26.19795,-1.2583724,-0.03457196,-0.2662851,5.1009903,-1.9298792,-46.319786,
31623720,-0.41861024,-2.060471,26.147646,-0.8658229,-0.033773016,-0.12407241,4.487837,-3.4156246,-46.472603,
31623730,-0.17067823,-2.4575217,24.117477,-0.43652165,-0.13843516,0.038380276,6.1761684,-1.3123188,-45.52636,
31623740,0.12456452,-2.5233974,21.205173,-0.120138414,-0.2564131,0.13318872,6.0235157,-2.0540152,-45.676353,15.0
31623750,0.5545529,-2.3377478,17.886839,0.022873204,-0.37918472,0.15582557,5.562254,-3.3668537,-44.27973,
31623760,0.9779537,-2.165872,14.116955,-0.051162608,-0.5493605,0.118541345,4.9488316,-2.533432,-47.0904,
31623770,1.5205296,-1.8305051,11.255554,-0.30336374,-0.6329837,0.009884481,4.4844036,-1.7779112,-45.408302,
31623780,1.7409136,-1.2484038,9.599082,-0.64664495,-0.6183363,-0.11661556,5.4076023,-0.8979778,-46.63363,
31623790,1.6055691,-0.6297715,8.200122,-1.067424,-0.62366265,-0.1621556,3.4087696,-1.8104677,-46.51803,14.0
31623800,1.8199645,-0.9489689,7.559331,-1.4975241,-0.43457842,-0.0987724,4.3317013,-1.3611803,-46.96456,
31623810,2.2325854,-2.01855,8.690596,-1.8562517,0.10337966,-0.013018684,2.7911987,-1.0665464,-45.458656,
31623820,2.2122242,-2.9587755,11.370538,-2.0069866,0.79020834,-0.020741845,4.0195084,1.4441881,-46.38575,
31623830,1.5792189,-3.4881763,14.759541,-1.8693011,1.2765009,-0.13951874,6.1718845,2.0734568,-45.875206,
31623840,0.50065464,-3.3983457,16.72623,-1.4264178,1.3539989,-0.31475455,5.0933285,2.8034253,-45.291435,10.0
31623850,-0.60545754,-2.721623,16.40224,-0.7891239,1.0456052,-0.46815252,5.710184,3.0821028,-46.981728,
31623860,-1.353845,-2.0876198,15.001086,-0.13558474,0.515903,-0.5459167,6.3258038,1.6405134,-45.402077,
31623870,-1.8654792,-1.3897369,12.649723,0.39571542,-0.07398671,-0.53792727,6.0207043,0.8779526,-46.79371,
31623880,-2.32601,-0.5896472,9.629623,0.7136966,-0.5871774,-0.43299884,5.251524,0.8662796,-46.812706,
31623890,-2.4098518,0.4188493,7.074846,0.834604,-0.92380065,-0.2295335,5.5591965,0.8709488,-46.805107,7.0
31623900,-1.6031744,0.90872467,4.63565,0.7981187,-1.0060923,0.03172238,5.560066,0.8593674,-47.578773,
31623910,-0.64558184,1.0332896,2.495889,0.61409444,-0.74457,0.23731825,6.1764812,0.7097149,-48.335533,
31623920,0.3916604,0.7985326,1.5394942,0.351507,-0.22844993,0.35582882,5.406889,0.124619484,-47.264565,
31623930,0.9240555,0.71828413,2.1874712,0.10702902,0.3398682,0.38938463,6.3273144,1.909852,-47.107567,
31623940,0.9024962,0.6068943,3.676261,-0.0077531203,0.7736968,0.35130143,6.019697,1.6149979,-46.80227,7.0
31623950,0.6767223,0.4631656,4.8811865,0.026068995,0.99873364,0.2796625,5.7142124,0.13392162,-46.947487,
31623960,0.5168241,0.34938043,5.6016264,0.14031851,0.98967886,0.20509401,6.637457,-0.14457226,-46.766533,
31623970,0.22936672,0.4170527,5.3453107,0.28492802,0.7870126,0.14171083,5.252741,0.85006523,-47.895836,
31623980,0.16229331,0.5362277,4.0463624,0.3714807,0.47755346,0.10282872,6.0207596,0.58776665,-46.480827,
31623990,0.30182987,0.61827284,2.9803746,0.36429015,0.19206285,0.063946605,7.2502193,2.5042305,-47.71055,
31624000,0.52640605,0.50987744,2.5539794,0.32327753,0.0067069987,0.036249757,6.0198345,0.889534,-46.020042,
31624010,0.9456148,0.10384385,2.9498322,0.30303752,-0.080644615,0.0016286885,7.712433,0.6203966,-45.97483,
31624020,0.9929254,-0.2692519,3.704408,0.3610944,-0.074785665,-0.06761344,8.794998,-2.0444202,-47.774208,
31624030,0.88273346,-0.4968224,3.616973,0.47640914,-0.014864586,-0.15123664,8.33144,-1.3004808,-46.865776,
31624040,0.5761122,-0.44771507,3.263041,0.57148385,0.11696178,-0.24151771,5.7146797,0.41715717,-47.724586,
31624050,0.10480183,-0.29081124,3.5331311,0.6814724,0.27195764,-0.28599244,7.2545795,-2.1850634,-45.798973,
31624060,-0.46651983,-0.067432866,3.9541364,0.83220714,0.34972185,-0.26095876,6.02487,-2.7956924,-45.97724,
31624070,-0.8923161,0.1481602,4.205063,1.0034482,0.33028078,-0.16375348,7.8685226,-0.27562237,-46.889168,
31624080,-1.025864,0.25176466,4.3535824,1.1789503,0.25358182,-0.04284606,8.485651,-1.4478722,-47.01499,
31624090,-0.71744615,0.2326008,3.6014023,1.3501916,0.16383338,0.06927292,7.2561073,-2.929058,-46.2546,9.0
31624100,-0.03593254,-0.01832556,2.234183,1.397063,0.07674807,0.12226978,8.026413,-3.366561,-46.694664,
31624110,0.34734404,-0.08180574,1.4191213,1.2756231,-0.06466566,0.084985554,7.871397,-2.6295338,-46.5523,
31624120,0.40184116,-0.17762488,0.9903307,1.0796146,-0.22125939,0.019471852,7.719208,-3.0879927,-47.479362,
31624130,0.3299768,-0.35548916,1.2167033,0.88147557,-0.2652015,-0.04550922,6.3324413,-4.092226,-44.252174,
31624140,0.029943112,-0.34830275,2.347968,0.75444293,-0.16719726,-0.08359239,7.8719387,-3.6498156,-45.766655,13.0
31624150,-0.32039565,-0.43813318,4.296091,0.7198219,-0.030310908,-0.07480397,8.951874,-5.266554,-46.49488,
31624160,-0.6192315,-0.48065287,6.0789256,0.834604,0.1273481,-0.048172377,7.568411,-6.3147964,-46.207634,
31624170,-1.1803725,-0.20816723,7.374281,1.0615051,0.2645008,0.010417113,7.5656757,-4.686349,-45.76226,
31624180,-1.4061463,0.064917326,8.028845,1.3376746,0.24213025,0.14357504,8.64217,-5.533615,-44.332787,
31624190,-0.8210506,0.24637483,6.514304,1.4961326,0.03706701,0.27273825,6.6434364,-5.1448994,-45.934654,17.0
31624200,-0.2515256,0.44519955,5.3369265,1.3928021,-0.14802252,0.3108214,9.569059,-6.7289906,-46.30784,
31624210,0.36830446,0.008623578,4.8680115,1.0678967,-0.27452257,0.29111403,7.875967,-6.5979977,-45.732414,
31624220,0.8887222,-0.77170354,5.6076155,0.6332692,-0.2564131,0.2149477,6.7997723,-7.346754,-45.44097,
31624230,0.96837175,-1.6568329,7.353919,0.23352906,-0.12032567,0.11348135,7.5689526,-7.335081,-45.421974,
31624240,0.894112,-2.4096122,10.108121,-0.048233133,0.059970174,0.00802027,7.415142,-7.482506,-45.26934,22.0
31624250,0.6162365,-2.634188,13.71092,-0.11135,0.25091866,-0.12087662,8.337475,-6.590994,-45.721016,
31624260,-0.23296064,-2.3161883,17.277187,0.09451218,0.30125237,-0.2662851,6.029402,-7.4873047,-44.22039,
31624270,-1.6223382,-1.5765843,19.054632,0.5272755,0.08047651,-0.3451146,7.2608128,-7.622986,-44.65249,
31624280,-2.5811286,-0.7477488,18.211426,0.97655034,-0.308611,-0.26229033,6.0321846,-7.5243645,-46.69613,
31624290,-2.496089,-0.033896156,14.36788,1.154183,-0.60555315,-0.043645013,6.6470604,-7.7982616,-45.90383,23.0
31624300,-1.2276832,0.13917716,10.489601,0.824484,-0.60581946,0.16461399,5.567894,-7.4943085,-44.23179,
31624310,0.18385261,-0.1752294,9.019974,0.14031851,-0.31233943,0.25542772,8.031027,-8.493448,-44.468483,
31624320,0.91627014,-0.38064167,11.397487,-0.5851259,0.12867968,0.2250677,6.029997,-8.797773,-43.12185,
31624330,1.1408463,-0.4141784,15.733303,-1.0807397,0.4064471,0.12386766,6.8026466,-9.7006645,-45.10412,
31624340,0.58928734,-0.024913106,19.201357,-1.2636988,0.4075124,-0.02633448,5.7225075,-7.936516,-44.377586,26.0
31624350,-0.3617176,0.6146797,21.024916,-1.2485187,0.2597071,-0.12513767,5.7225075,-7.936516,-44.377586,
31624360,-0.9084856,0.663787,20.888372,-1.2429261,0.044523854,-0.1320619,6.7963314,-6.577278,-43.28327,
31624370,-1.2582254,0.2882957,20.291302,-1.3678284,-0.035637226,-0.09584293,7.259329,-5.2876024,-46.22721,
31624380,-1.2851745,-0.6189918,21.313568,-1.5084431,0.04905122,0.0072213234,8.024363,-5.3654327,-42.338173,
31624390,-1.223491,-0.73517245,23.698868,-1.5076442,0.24399444,0.16408136,5.718937,-5.5733395,-44.095512,23.0
31624400,-0.8360224,-0.8902797,26.191963,-1.2802105,0.36064082,0.34490985,7.101082,-3.0602703,-45.01882,
31624410,0.10001086,-1.3723698,27.119612,-0.8357292,0.2684955,0.49378043,7.718319,-4.812893,-44.518883,
31624420,1.1821684,-1.7163205,25.531609,-0.32866377,0.0056417324,0.536391,5.716667,-3.6616535,-44.42724,
31624430,2.4757266,-1.91794,22.447231,0.00316583,-0.37971735,0.41574988,8.33263,-3.9214172,-44.668694,
31624440,3.8171947,-2.0904145,18.50068,0.12380692,-0.6976985,0.15928768,6.180546,-4.265133,-45.801598,18.0
31624450,4.5406294,-2.165872,14.9907055,0.08172901,-0.8335196,-0.18425979,7.4137325,-6.4506435,-45.28132,
31624460,3.8363583,-1.8382905,11.797531,-0.11827421,-0.7576195,-0.50144196,6.024229,-3.0766125,-45.045418,
31624470,2.1565292,-1.3148782,8.899003,-0.5113565,-0.48730895,-0.68173784,5.2585087,-4.871093,-45.972267,
31624480,0.28027064,-1.2561891,6.623897,-1.0708861,-0.069991976,-0.71049994,4.641489,-4.279214,-45.22065,
31624490,-1.5103496,-1.2238501,5.930406,-1.7345452,0.31004077,-0.6188873,7.100212,-3.048689,-44.245155,
31624500,-3.0626197,-0.8711159,7.300021,-2.3795624,0.4684987,-0.34564722,7.2539635,-2.6110773,-44.7107,
31624510,-2.8290603,-1.2328331,9.904505,-2.791553,0.541203,0.019205533,8.023191,-1.0080166,-46.722054,
31624520,-1.136655,-2.6132276,13.158763,-2.7992764,0.6421367,0.27087402,6.482889,-0.8607893,-45.21444,
31624530,1.0001119,-3.839114,15.702761,-2.426434,0.7875452,0.29564142,7.5593395,-0.5496292,-45.19126,
31624540,2.2918737,-4.1792717,17.29875,-1.7555842,0.8599831,0.09350766,7.8661613,1.2031021,-46.59681,12.0
31624550,2.3793085,-3.778029,16.975359,-0.9688871,0.70551986,-0.21541876,8.940521,1.542058,-44.716835,
31624560,1.931953,-2.8899055,14.290027,-0.34890378,0.30071974,-0.546982,7.8616467,2.131565,-43.667152,
31624570,1.1037163,-1.7652283,10.639915,-0.053293135,-0.22232465,-0.8503158,7.401785,1.668437,-44.601814,
31624580,0.0916267,-0.5704833,7.3006196,-0.042374182,-0.68811107,-1.0417969,6.785406,2.541236,-44.78202,
31624590,-1.1947453,0.51766276,4.994972,-0.17526582,-0.9557586,-1.0607054,7.2461643,2.847691,-44.464577,7.0
31624600,-2.253547,1.3770406,3.639131,-0.34517533,-0.9339206,-0.8945242,7.7119484,1.3504925,-46.447594,
31624610,-2.941049,1.6932439,3.0893688,-0.477268,-0.58850896,-0.6090336,7.093172,2.978868,-45.39849,
31624620,-3.3446872,1.9537522,3.259448,-0.54544485,-0.058007754,-0.2516377,6.1708775,2.810502,-45.883766,
31624630,-3.2303033,2.1076615,3.9475489,-0.5422491,0.3875387,0.14570558,7.709614,2.684123,-45.998787,
31624640,-2.091852,1.5860461,5.062644,-0.4335922,0.7052536,0.46315414,7.245102,3.8749223,-44.78602,
31624650,-0.948011,0.94046474,6.17714,-0.20509319,0.8621136,0.60217106,7.7093296,3.26681,-46.469856,
31624660,-0.25032786,0.6506118,6.7556486,0.07054374,0.81124735,0.6160194,6.7868805,2.087428,-45.550545,
31624670,0.2251746,0.3793239,6.459208,0.32274488,0.5483935,0.54304886,6.632881,2.9556503,-46.49302,
31624680,0.54556984,0.28530133,5.3776493,0.4854639,0.1374681,0.41175514,7.4028664,2.3776865,-46.467186,
31624690,0.63899356,0.40387753,4.0715146,0.5560376,-0.27878362,0.27247193,7.8634777,2.5413647,-45.838554,7.0
31624700,0.7671516,0.5583859,3.0330749,0.54112387,-0.6729311,0.14490663,8.634535,1.8044109,-46.584663,
31624710,0.6336037,0.64222765,2.38929,0.49531758,-0.975466,0.05782134,7.2503567,1.7787666,-46.92832,
31624720,0.41381854,0.5470074,1.9934373,0.47694176,-1.0612197,0.029325541,7.557619,1.2100143,-45.83074,
31624730,0.18864354,0.2523635,2.0335615,0.4721481,-0.94004595,0.030923437,6.479208,2.082759,-45.558144,
31624740,-0.097616106,-0.1416927,2.4928946,0.48519757,-0.67213213,0.03731502,7.714052,0.30936337,-47.054543,
31624750,-0.5485649,-0.37285635,3.335504,0.54538494,-0.34909102,0.050364494,6.63645,0.59247303,-46.775093,
31624760,-0.8899206,-0.46328568,4.2236276,0.6822713,-0.10887409,0.0823224,7.4045677,1.6313763,-47.077538,
31624770,-1.0216719,-0.44172642,4.4769497,0.8604367,-0.038300384,0.14543925,6.175373,0.14555836,-46.626625,
31624780,-0.73661,-0.5159862,4.241594,1.0260851,-0.12724988,0.21228454,6.4833927,0.1455946,-46.92849,
31624790,-0.3844747,-0.6513307,3.7259672,1.1358073,-0.24283096,0.24717192,6.1751614,-0.5752735,-45.53492,7.0
31624800,0.013174769,-0.7447543,2.7923295,1.2271535,-0.34136784,0.2551614,6.022114,-0.15391064,-46.78173,
31624810,0.443762,-0.8531498,1.7479007,1.2838788,-0.43777418,0.24424246,5.5594616,1.3015938,-47.583916,
31624820,0.7437957,-1.0256243,1.08076,1.2692316,-0.43937212,0.21175191,7.8708935,-0.88610363,-48.27491,
31624830,0.765355,-1.0687429,0.7837207,1.2295505,-0.34376472,0.17073926,5.4089565,-1.6396561,-46.934547,
31624840,0.45034957,-0.8465622,0.9885341,1.1792166,-0.16666463,0.13878137,6.4858646,-1.9134998,-46.595055,9.0
31624850,0.039525025,-0.49322915,1.5622512,1.0969251,-0.014598271,0.13718346,3.7160015,-2.234127,-45.57688,
31624860,-0.17187595,-0.2956022,2.4725332,1.0026493,0.07168807,0.1662119,6.1769733,-1.9019556,-45.519524,
31624870,-0.22876856,-0.33752307,3.6253572,0.950984,0.068225965,0.21175191,7.104542,-4.8430777,-45.926674,
31624880,-0.37010178,-0.2674553,5.120734,0.9421956,-0.0721225,0.28312457,5.7192936,-4.709732,-45.49839,
31624890,-0.043118976,-0.24948925,5.8501577,0.9954588,-0.26094043,0.37713408,4.1825256,-4.8990164,-46.77253,13.0
31624900,0.41321966,-0.39621228,6.0693436,1.0215578,-0.35628152,0.42054355,6.1821117,-4.28598,-47.194206,
31624910,0.61084664,-0.38962474,6.3615923,0.9102377,-0.33231312,0.39018357,5.411621,-4.7144012,-45.50599,
31624920,0.8102703,-0.5597037,6.973038,0.61302924,-0.33231312,0.32546878,3.8726845,-4.440612,-45.392677,
31624930,1.201931,-0.85614413,8.550461,0.22926801,-0.33817208,0.276733,4.1804943,-5.1614065,-44.60285,
31624940,1.7115691,-1.4304601,11.369341,-0.05382577,-0.2281836,0.24930245,5.103344,-4.276843,-45.518715,16.0
31624950,2.0487328,-1.8119401,13.906153,-0.1331879,-0.07904672,0.21175191,4.338146,-6.07827,-46.909782,
31624960,2.2757041,-2.2772617,15.729111,-0.058619455,0.06636175,0.15023294,4.489851,-4.889715,-46.455482,
31624970,1.7888234,-2.1293411,17.073574,0.102767974,0.22428708,0.058886603,4.488632,-4.873501,-45.372337,
31624980,1.1019197,-2.0365162,18.001822,0.2511059,0.20457971,-0.0068934197,4.026037,-3.7081804,-45.86164,
31624990,0.937031,-2.4110093,17.677633,0.2590954,-0.09156355,0.013080271,5.566641,-5.4514275,-45.64837,17.0
31625000,1.4935803,-2.6683238,16.489075,0.033792157,-0.43377948,0.07486555,2.7971878,-5.1986322,-45.720177,
31625010,2.2709134,-2.942606,15.838105,-0.41042274,-0.49023837,0.09643714,5.102997,-4.27221,-45.20925,
31625020,2.5350146,-3.324086,17.155022,-0.87354606,-0.25268465,0.08977924,3.8753128,-5.4886894,-46.46383,
31625030,2.4787211,-3.6660407,19.955334,-1.1790104,0.006973315,0.09989924,2.7952728,-5.173153,-44.018105,
31625040,2.4859076,-3.7169445,22.444836,-1.2288114,0.116162814,0.11348136,4.334421,-4.7261105,-45.223106,
31625050,2.588314,-4.105012,24.172573,-1.0735493,0.13240811,0.09377398,4.02503,-2.9711351,-45.8702,
31625060,2.2786984,-3.7588654,24.623524,-0.8117608,0.09219439,0.027195012,4.02503,-2.9711351,-45.8702,
31625070,1.6067669,-3.1318488,23.027534,-0.6415849,-0.030310908,-0.022872373,4.0244713,-3.687334,-44.469032,
31625080,1.2127106,-2.8845158,21.113548,-0.71748495,-0.10967304,-0.0151492115,4.6386127,-1.9253016,-45.557518,
31625090,1.1570158,-2.878527,20.499107,-0.92387974,5.817339E-4,0.045570806,2.6387444,-1.9556513,-45.60691,15.0
31625100,1.4522585,-3.3905606,21.27105,-1.0314714,0.21789551,0.11108452,4.175377,-1.0409021,-45.114983,
31625110,1.9930377,-4.1157913,21.667503,-0.94145656,0.29672498,0.117742404,3.2523327,-0.9098158,-45.294228,
31625120,2.0074108,-4.260718,20.512283,-0.7566334,0.2413313,0.028526593,5.2521744,-0.73437405,-45.401283,
31625130,1.5893997,-3.494165,18.390488,-0.6160186,0.13453862,-0.034323953,4.637268,-0.3153839,-46.350014,
31625140,2.0271733,-2.9084702,16.250725,-0.5782017,0.06503017,-0.038318694,2.33045,-0.5047598,-46.869484,12.0
31625150,2.9021218,-2.635985,14.399021,-0.59418064,0.08127544,-0.096375555,2.7901726,-2.065981,-43.280388,
31625160,3.2392855,-2.6910808,12.1448765,-0.6631565,0.16196917,-0.20876086,4.327856,-0.29689026,-44.81028,
31625170,3.0638165,-2.7240188,9.832641,-0.889525,0.31563342,-0.34191877,4.17144,2.3402414,-45.773308,
31625180,2.30445,-2.7234197,8.979851,-1.2381325,0.5289524,-0.5001104,4.0199947,0.7140913,-45.913002,
31625190,1.2630156,-2.767137,9.809883,-1.5308137,0.7265588,-0.6593673,5.0942154,1.7785101,-44.815254,9.0
31625200,0.10060974,-2.740787,11.583735,-1.6647706,0.7611799,-0.7866663,6.0188274,1.6265793,-46.028603,
31625210,-1.0210731,-2.4748888,12.9371805,-1.6008546,0.5776883,-0.8575063,7.2487373,2.089799,-45.84861,
31625220,-2.0756824,-1.9880077,13.277338,-1.3542461,0.29219764,-0.8476526,5.397852,3.863121,-43.748497,
31625230,-2.7188685,-1.2867315,12.69344,-1.010166,-0.04495828,-0.74219155,6.3215733,4.7361035,-45.438026,
31625240,-2.8476255,-0.75852835,11.541216,-0.6541017,-0.3605426,-0.53925884,6.630947,3.994462,-46.040794,7.0
31625250,-2.4859083,-0.40699196,10.008109,-0.3478385,-0.58664477,-0.27587247,4.0180435,2.7662363,-46.710625,
31625260,-1.7972082,-0.35968122,8.287557,-0.10762158,-0.6175374,-0.001567103,6.324898,3.6787615,-47.128105,
31625270,-0.84799975,-0.45609924,6.338237,0.04471111,-0.43537736,0.23438877,3.7073402,4.104463,-45.650505,
31625280,0.26949096,-0.6070144,4.9129267,0.07693533,-0.13044567,0.37899828,6.4755745,3.8678818,-44.495552,
31625290,1.1228802,-0.8741102,4.608102,0.078533225,0.22215652,0.41202146,5.2460766,3.9780831,-45.76554,6.0
31625300,1.3708122,-0.88309324,5.459096,0.1299322,0.5084461,0.36701405,4.937708,3.982679,-45.154198,
31625310,1.095931,-0.650133,6.296914,0.2865259,0.5870093,0.30922353,5.3971195,5.899052,-45.62925,
31625320,0.66654146,-0.4237603,6.304101,0.5240797,0.47728717,0.27273825,4.4772434,3.9617777,-46.093987,
31625330,0.31320843,-0.08899218,5.6669035,0.7626987,0.29113236,0.26741195,5.092615,3.8260236,-45.922356,
31625340,-0.020361936,0.17690594,4.841661,0.93500507,0.0754165,0.28605404,5.2497025,1.3247204,-45.73472,
31625350,-0.18684769,0.20684943,4.2116504,1.0401999,-0.12032567,0.3108214,4.632635,3.075026,-46.38938,
31625360,0.10899392,0.12540314,3.6127808,1.0963924,-0.29236573,0.34304565,6.1749153,0.73056126,-46.94294,
31625370,0.6467788,-0.29440445,3.1396737,1.1395357,-0.37279314,0.34783936,5.2529526,1.5708961,-48.98754,
31625380,1.0282588,-0.76032495,2.9204874,1.1674988,-0.33923733,0.29910356,6.6357,0.89192295,-46.469063,
31625390,1.0605978,-0.88488984,2.467143,1.1387367,-0.27984887,0.20855612,6.022169,-0.44409752,-46.46885,
31625400,0.65276754,-0.7764944,2.3707252,1.0553799,-0.17998043,0.099632934,6.17572,0.1409254,-46.93609,
31625410,0.116180345,-0.5980314,3.0109167,1.0359387,-0.01859301,0.034385543,4.3295956,-0.3200531,-46.357613,
31625420,-0.27787584,-0.5016134,3.7666905,1.1150346,0.09166176,0.029591855,6.637457,-0.14457226,-46.766533,
31625430,-0.52221465,-0.1692407,3.98408,1.2263546,0.07674807,0.06527819,4.331354,-1.3565474,-46.655098,
31625440,-0.64198864,-0.08779443,3.662487,1.3395388,-0.008739322,0.13159083,6.334282,-2.814186,-47.516975,8.0
31625450,-0.63659877,-0.17582828,2.9785779,1.4271569,-0.073720396,0.20536032,5.408207,-1.3402052,-46.6285,
31625460,-0.31859902,-0.2956022,2.0185897,1.4050527,-0.1546804,0.2570256,5.257374,-2.5403442,-47.85647,
31625470,0.030541983,-0.30578297,1.5502737,1.2726936,-0.22205833,0.26315087,6.793537,-1.9088306,-46.587456,
31625480,0.28027064,-0.66211045,1.6634601,1.1408672,-0.19622569,0.23864982,5.4141483,-4.3138666,-48.296318,
31625490,0.7042703,-1.1819291,2.0533242,1.0500536,-0.07798145,0.16914137,7.720215,-3.825038,-47.470802,12.0
31625500,0.976756,-1.0603586,3.2426794,1.0063777,0.055709116,0.06607713,5.7189465,-4.705099,-45.18891,
31625510,0.3042254,-0.67408776,4.671582,1.079881,0.15504494,-0.0300629,5.4166756,-6.663145,-47.65,
31625520,-0.54437286,-0.3015909,5.0973783,1.250323,0.14678916,-0.038052376,4.6441154,-5.3272905,-46.2918,
31625530,-0.68929935,0.09366307,4.358972,1.3869431,0.038398586,0.024265539,4.9525127,-5.47698,-46.74668,
31625540,-0.6138417,0.6482163,3.4858205,1.3866768,-0.15308252,0.12120451,5.1083794,-7.9620686,-45.475914,17.0
31625550,-0.5042486,1.0863892,2.8504198,1.2391378,-0.35947734,0.22746454,5.56892,-6.494873,-46.410057,
31625560,0.025751047,1.1051539,2.4719343,0.95977247,-0.46334052,0.30123407,6.184023,-7.0612717,-45.459602,
31625570,0.69408953,0.8093123,3.0660129,0.5957186,-0.35148787,0.28818458,5.570732,-7.8215523,-46.394646,
31625580,0.9342363,0.40986624,4.69913,0.16801535,-0.15228356,0.19284347,4.9534187,-7.5152283,-45.020653,
31625590,1.0851514,-0.2896135,6.861049,-0.24690476,-0.0060761627,0.09617083,4.6455994,-7.662674,-44.71708,
31625600,1.2809818,-1.1112626,9.434392,-0.5161501,0.1891334,0.019471852,5.4169216,-7.968981,-46.24198,23.0
31625610,1.0815581,-1.5843695,13.351,-0.58352804,0.3622387,-0.024736583,4.953108,-6.787447,-45.648155,
31625620,0.8491968,-1.5214883,17.197538,-0.36328483,0.34519446,-0.06308607,4.4923134,-7.817049,-45.028633,
31625630,0.78092563,-1.2579856,19.730759,0.11182271,0.14013126,-0.058825016,4.1845856,-7.5315323,-45.34913,
31625640,1.0647899,-1.541251,20.563786,0.7139629,-0.17971411,-0.02926395,4.951643,-5.465399,-45.973015,
31625650,1.5061567,-2.0359173,18.857607,1.2026525,-0.4010226,-0.013018684,4.494171,-7.5523434,-47.043587,
31625660,2.2433653,-2.0413072,16.247732,1.4015905,-0.44336683,-0.048705015,5.2602215,-7.4989777,-44.239388,
31625670,2.865591,-1.4089007,13.427056,1.2455294,-0.37279314,-0.19810823,4.3387966,-7.6789246,-45.498344,
31625680,2.8997264,-0.7004381,11.66039,0.76802504,-0.28730574,-0.40530196,3.263895,-9.747412,-44.727303,
31625690,2.395478,0.24817142,11.3525715,0.0713427,-0.2718594,-0.607702,5.2636013,-8.846506,-45.616585,
31625700,1.9056028,0.89315397,12.9898815,-0.6591618,-0.39702785,-0.7584368,5.4157867,-8.388046,-44.68952,26.0
31625710,1.6235352,1.1033573,15.642275,-1.2591715,-0.48677632,-0.85271263,3.1080818,-7.5525074,-45.68519,
31625720,1.2737952,1.0302951,18.893538,-1.6242905,-0.4295184,-0.86203367,5.722515,-7.0682755,-45.471,
31625730,0.7156489,0.2667364,21.077614,-1.7177674,-0.13017935,-0.81702626,2.6457863,-7.9832077,-44.453575,
31625740,-0.47430512,-0.12791869,22.87183,-1.6573136,0.26583236,-0.6921241,4.0287724,-5.336628,-46.307,
31625750,-1.8421234,0.20864603,24.499557,-1.4951273,0.48527664,-0.4316672,3.4139423,-6.221157,-45.693,
31625760,-2.1984508,0.32183242,25.158312,-1.254644,0.4511882,-0.05403134,3.4103699,-3.8579788,-45.410927,
31625770,-0.74020326,-0.13750061,24.056993,-1.0285419,0.266365,0.2618193,3.4114685,-4.1620626,-46.02642,
31625780,1.766665,-1.1549801,22.17654,-0.8578334,0.081009135,0.35396463,4.1799355,-5.8776054,-43.201683,
31625790,3.7764716,-2.1413183,19.87269,-0.65969443,0.05810596,0.21121928,3.8712196,-3.1185627,-45.717552,
31625800,4.6735783,-2.667126,17.395765,-0.49670905,0.03440385,-0.103299774,4.4850636,-2.5103235,-45.090263,22.0
31625810,4.08968,-2.4227872,14.613417,-0.5007038,-0.17039305,-0.46362513,5.1025944,-3.9773922,-45.21267,
31625820,2.4619527,-1.9502789,11.201057,-0.72494173,-0.38371208,-0.7312726,3.7179165,-2.2596064,-47.278954,
31625830,0.5377845,-1.4669912,8.519918,-1.1417261,-0.42499104,-0.81995577,4.1769238,-2.7982283,-44.320778,
31625840,-1.2145079,-0.3692632,7.221569,-1.6623737,-0.32991627,-0.6897273,4.641243,-2.9733782,-46.62867,
31625850,-1.8409257,0.60988873,7.670721,-2.1382804,-0.12245619,-0.3552346,4.1775475,-1.5039759,-46.50245,19.0
31625860,-0.8078755,0.30506405,9.542189,-2.3651814,0.17368706,-0.023937635,4.0240307,-1.3658495,-46.97216,
31625870,0.90788597,-0.5177828,11.522052,-2.2794278,0.41896397,0.13478662,4.4807777,0.875453,-45.43911,
31625880,2.3972747,-1.2214546,13.22883,-1.9545224,0.5598451,0.10549188,4.6361427,0.13379383,-45.890953,
31625890,3.1111274,-1.6173075,14.115756,-1.4509189,0.58594406,-0.07959766,3.8643723,1.8933449,-45.775764,
31625900,2.8398395,-1.6568328,13.546231,-0.87035024,0.49193457,-0.32274404,4.634796,1.7437115,-46.68345,13.0
31625910,2.117004,-1.1633642,11.649013,-0.49937224,0.30098605,-0.4830662,4.0173645,1.7621679,-44.84185,
31625920,1.4510608,-0.5219749,8.891816,-0.2671448,0.025082793,-0.61009884,4.9372425,3.6994429,-44.377113,
31625930,1.1330609,-0.106958255,5.93879,-0.18618476,-0.39463103,-0.73100626,4.017576,2.4829998,-45.93354,
31625940,0.87315154,0.2469737,3.8068147,-0.324669,-0.77919114,-0.8236842,4.017174,2.7778177,-45.93696,
31625950,0.3617169,0.3122505,2.7246573,-0.5523691,-0.974667,-0.87428415,3.0938358,2.6233501,-45.49386,9.0
31625960,-0.39285883,0.18828447,2.5689511,-0.76462287,-0.8966364,-0.8561747,3.249054,1.7389135,-45.634514,
31625970,-1.2863724,-0.14947799,3.0809848,-0.94518507,-0.60395527,-0.75497466,3.0934887,2.627983,-45.18438,
31625980,-2.4385977,-0.2818282,4.355978,-1.055706,-0.13870148,-0.6071694,4.015362,4.1044993,-45.95237,
31625990,-3.3949924,-0.26146662,6.5346656,-1.0399935,0.35345027,-0.4162209,2.632162,3.4869032,-46.443916,
31626000,-3.8926532,-0.26685646,8.72533,-0.84398496,0.61230934,-0.19784191,2.629078,5.119984,-45.68908,8.0
31626010,-3.763297,-0.19319548,10.048235,-0.49484485,0.48660824,0.03731502,5.551176,4.7406445,-44.373894,
31626020,-2.7877383,-0.33752304,9.913488,-0.043173127,0.067427024,0.24930245,3.0916195,4.2448497,-45.512688,
31626030,-1.9660894,-0.42495805,8.377987,0.42634177,-0.40981102,0.38485724,1.0917797,4.0694075,-45.405617,
31626040,-0.9857398,-0.70283353,6.6664166,0.8013145,-0.76827216,0.5049657,4.320717,4.4294662,-44.24613,
31626050,0.22277912,-0.9010594,4.8991528,1.0654999,-0.8585533,0.58272994,3.3986874,4.691746,-45.510216,7.0
31626060,1.1234791,-1.0603588,2.6090753,1.1717598,-0.7203353,0.5507721,3.7096195,3.0610185,-46.412178,
31626070,1.8810492,-1.0214322,0.9885341,1.0295472,-0.4952984,0.4282667,2.0159225,3.6342392,-45.841896,
31626080,2.0529246,-1.0513756,0.74838734,0.7541766,-0.25774467,0.23305719,2.7854137,2.9181318,-45.19541,
31626090,1.4887896,-0.9783135,1.8610871,0.5128944,-0.033773016,0.02293396,2.019556,1.8491163,-46.904472,
31626100,0.23236102,-0.66929686,4.2481813,0.4154228,0.1241523,-0.12061031,1.7104111,2.298256,-46.143547,8.0
31626110,-0.7952993,-0.27703726,5.8537507,0.5219492,0.115896516,-0.12513769,3.403267,1.5915232,-45.783745,
31626120,-1.1749825,0.01960286,6.1569786,0.7456545,0.045589115,-0.008491313,2.1710033,3.4752665,-46.76478,
31626130,-0.89890367,-0.05605435,6.1603723,1.0330093,0.061301753,0.16860874,3.8643723,1.8933449,-45.775764,
31626140,0.014372513,-0.42795238,5.34531,1.3102441,0.15397969,0.2953751,4.1738014,0.86151886,-46.065636,
31626150,0.77613467,-0.6345624,4.428441,1.4934695,0.28580603,0.30602774,4.3255577,1.7598886,-45.29844,9.0
31626160,0.83602166,-0.6878618,3.8241818,1.6101159,0.4676998,0.24876982,3.0974064,0.2601719,-45.775932,
31626170,0.8000895,-0.6974437,2.8079002,1.63728,0.5926019,0.159554,3.4077702,-0.20518017,-47.619987,
31626180,0.3479429,-0.23152314,2.0485332,1.4700336,0.5960641,0.059152924,2.7895794,-0.7555132,-44.378944,
31626190,-0.21319795,0.24038613,2.2641263,1.1816136,0.5270882,0.00535711,2.791895,-1.0758114,-46.077568,
31626200,-0.52760446,0.46855545,3.4660578,0.895324,0.42721978,-0.0028986817,4.0267124,-2.704113,-47.730415,13.0
31626210,-0.67253095,0.48173058,5.2991977,0.71875656,0.28207764,0.019205537,2.6400185,-2.2620506,-46.377144,
31626220,-0.53538984,0.2643409,7.1191626,0.7182239,0.15025125,0.07593082,3.7185192,-2.7018337,-47.273827,
31626230,-0.47909608,0.009821314,7.6958737,0.86150193,0.082873344,0.14117819,2.9471703,-2.250432,-45.905357,
31626240,-0.56593215,-0.08240461,7.210789,0.9693599,0.1023144,0.24291088,4.3318844,-3.2450714,-44.77604,
31626250,-0.22637306,-0.37585074,7.9384155,0.9563104,0.20378076,0.37447092,4.948942,-3.113802,-46.464622,17.0
31626260,0.26350227,-0.96873164,9.517036,0.87561667,0.2905997,0.4663499,4.9503517,-4.145666,-46.452644,
31626270,1.0540102,-1.862844,10.384799,0.7653619,0.3891366,0.47034463,5.5652313,-4.4195642,-45.660347,
31626280,1.6924052,-2.5826855,11.709497,0.65936816,0.66157776,0.40722775,6.182358,-5.591814,-45.786186,
31626290,2.1768909,-2.5754988,13.476164,0.6367313,0.8922073,0.2735372,4.3347034,-5.308797,-44.752068,
31626300,1.670247,-1.9951942,14.402615,0.6905271,0.91883886,0.06421292,4.9483204,-4.4080553,-44.28295,21.0
31626310,0.42100498,-1.2711607,14.591857,0.71103346,0.70978093,-0.08305976,3.8748531,-4.9036856,-46.78013,
31626320,-0.46112996,-0.6932516,13.363576,0.6087681,0.3891366,-0.08838608,6.489416,-6.013157,-44.690315,
31626330,-0.38327694,-0.6776811,12.547317,0.29398277,0.21017234,0.019738171,6.3327885,-4.096859,-44.561638,
31626340,0.11138938,-1.0459858,13.989994,-0.116676316,0.24106497,0.12999293,5.565542,-5.1473436,-45.03286,
31626350,0.12516338,-1.3723698,16.55555,-0.39098167,0.40032184,0.19603926,6.643839,-5.4397182,-45.93122,23.0
31626360,-0.1706782,-1.12324,19.379221,-0.44344592,0.5196314,0.25755826,6.3350697,-5.1403036,-45.323326,
31626370,-0.46292657,-0.8884831,20.8746,-0.3513006,0.41017553,0.3339909,5.567299,-6.18384,-45.330345,
31626380,-0.2754804,-0.7824832,20.91592,-0.28871638,0.032273322,0.4240057,5.5678024,-5.177456,-47.04438,
31626390,0.20181869,-0.6986414,19.658895,-0.3193427,-0.27931625,0.520412,6.027746,-5.1496058,-45.64039,
31626400,1.1025187,-1.1897146,18.370726,-0.46847957,-0.2817131,0.6226773,5.256752,-3.8345966,-45.674797,
31626410,1.9924388,-1.9604597,18.344975,-0.700707,-0.07265513,0.6820658,6.488823,-4.702691,-45.788857,
31626420,2.4188342,-2.2916346,19.376825,-0.8911229,0.18487233,0.6820658,5.409342,-3.6709557,-44.7443,
31626430,2.382303,-2.1419172,20.599716,-0.93905973,0.3419987,0.63945526,5.410862,-5.283189,-44.106544,
31626440,2.116405,-1.4017143,20.882385,-0.9020418,0.30791026,0.59258366,7.8724594,-3.656765,-46.230843,
31626450,2.1966534,-0.7040313,19.938566,-0.8413218,0.14652283,0.57207733,6.3319016,-3.0719433,-45.03782,21.0
31626460,2.8506193,-0.9160311,18.091053,-0.8343976,-0.038300388,0.52200997,7.409502,-3.355053,-45.31727,
31626470,3.7531157,-1.844878,16.279472,-0.8746113,-0.113401465,0.37473726,4.6413803,-3.698842,-45.846443,
31626480,4.013624,-2.9096684,15.865053,-0.90417236,-0.03270775,0.10495924,6.4864597,-3.2239685,-45.496513,
31626490,2.9458394,-3.0216568,15.971054,-0.8293376,0.020555425,-0.2348598,5.0995636,-2.6344957,-44.14495,
31626500,1.1174903,-2.6521544,15.348229,-0.6743418,-0.114999354,-0.50596935,5.0995636,-2.6344957,-44.14495,16.0
31626510,-0.72163826,-2.1419172,13.275542,-0.5981754,-0.424991,-0.58666307,6.1797943,-3.965683,-45.495552,
31626520,-1.9702814,-1.247206,10.907612,-0.7142892,-0.69397,-0.44338512,5.714056,-0.8770952,-45.5429,
31626530,-2.073886,-0.1848113,9.025963,-0.9885945,-0.74536896,-0.09131556,4.9449043,-1.0338621,-45.405464,
31626540,-0.5401808,-0.3542914,8.006088,-1.2639651,-0.36240682,0.31162035,6.177387,-1.3285322,-46.609505,
31626550,1.4816031,-1.5664034,8.84211,-1.4213579,0.32282394,0.5739416,5.0970364,-0.2852173,-44.791283,14.0
31626560,2.8398395,-2.565318,10.172798,-1.3989872,0.9103167,0.6200142,7.2511444,-0.54734993,-44.734657,
31626570,3.273421,-3.1019053,11.124402,-1.2541114,1.2069926,0.46555096,6.634573,1.3410988,-46.009987,
31626580,2.6595798,-3.008482,11.823883,-1.0389282,1.1737031,0.1712719,7.4029846,-0.084257126,-43.49813,
31626590,1.7690604,-2.690482,11.58074,-0.7744765,0.8309547,-0.14457874,7.7129555,0.6134472,-46.439034,
31626600,0.7797279,-2.0353184,10.804008,-0.52387327,0.25677758,-0.41701984,5.711897,0.4542179,-45.248833,9.0
31626610,-0.54796606,-1.1076694,9.199037,-0.28631952,-0.3528194,-0.5829346,7.4031944,0.6365738,-44.589836,
