Date created: 2021-10-22-21-50-16-583000000
Timestamp,acc_x,acc_y,acc_z,gyro_x,gyro_y,gyro_z,mag_x,mag_y,mag_z,light
31615327,,,,-0.021601545,0.049051225,0.042641334,,,,
31615329,0.9378295,-1.1453983,10.171001,,,,3.8678417,-1.7710352,-44.340355,
31615332,0.8899199,-1.1453983,10.115906,-0.0152099645,0.041061748,0.03731502,,,,
31615334,0.885129,-1.1813303,10.103929,,,,,,,
31615337,0.885129,-1.219658,10.089556,-0.01361207,0.03307227,0.02985817,,,,
31615339,0.9090837,-1.174144,10.053624,,,,3.253687,-1.651494,-45.59513,
31615342,0.8947109,-1.1430027,10.044042,,,,,,,
31615343,,,,-0.012546807,0.022952268,0.022401327,,,,
31615344,0.82284653,-1.1765393,10.015296,,,,,,,
31615347,0.8060781,-1.1382117,9.981759,,,,,,,
31615348,,,,-0.012546807,0.014962792,0.012813954,,,,
31615349,0.7773324,-1.1837258,9.93385,,,,2.638279,-2.2388878,-44.82981,
31615352,0.7581686,-1.1477937,9.873962,,,,,,,
31615353,,,,-0.0066878567,0.013897527,0.004291847,,,,
31615354,0.710259,-1.0855112,9.806889,,,,,,,
31615357,0.60725343,-1.0711384,9.797307,,,,,,,
31615358,,,,-0.0029594346,0.020289108,-0.0020997338,,,,
31615359,0.56892574,-1.0687429,9.761374,,,,2.637125,-1.644618,-44.5272,
31615362,0.52820265,-1.0567654,9.78533,,,,,,,
31615363,,,,-0.0029594346,0.031474378,-0.00689342,,,,
31615364,0.5018524,-1.0136468,9.816471,,,,,,,
31615367,0.44436085,-0.97531927,9.861985,,,,,,,
31615368,,,,-8.289082E-4,0.04265964,-0.008491315,,,,
31615369,0.4132197,-1.0160424,9.861985,,,,2.1767807,-1.3776503,-45.934624,
31615372,0.3557282,-1.0088558,9.821261,,,,,,,
31615373,,,,7.6898735E-4,0.04479017,-0.0036976296,,,,
31615374,0.35093725,-0.9968785,9.835635,,,,,,,
31615377,0.35093725,-1.0280197,9.814075,,,,,,,
31615378,,,,7.6898735E-4,0.04212701,0.0021613198,,,,
31615379,0.34854174,-1.0184379,9.747002,,,,3.09791,-1.4832573,-44.053307,
31615382,0.3605191,-1.0232288,9.701488,,,,,,,
31615383,,,,-0.004024699,0.04212701,0.011216059,,,,
31615384,0.37249655,-1.0304152,9.653579,,,,,,,
31615387,0.40603328,-1.0663474,9.687115,,,,,,,
31615388,,,,-0.012546807,0.041061748,0.017075008,,,,
31615389,0.43717444,-1.0256243,9.672743,,,,3.4068012,-1.4948015,-45.128853,
31615392,0.44196546,-1.0184379,9.660765,,,,,,,
31615393,,,,-0.022666808,0.04319227,0.017075008,,,,
31615394,0.46352476,-1.0399971,9.723048,,,,,,,
31615397,0.4874795,-1.0543699,9.71586,,,,,,,
31615398,,,,-0.029591022,0.050649118,0.017075008,,,,
31615399,0.46831566,-1.0184379,9.749398,,,,2.1778965,-2.6950674,-45.30027,
31615402,0.46352476,-1.0256243,9.768562,,,,,,,
31615403,,,,-0.030123653,0.06289964,0.017075008,,,,
31615404,0.46352476,-1.0471836,9.85959,,,,,,,
31615407,0.47550213,-1.0831157,9.871567,,,,,,,
31615408,,,,-0.03118892,0.07461755,0.016542377,,,,
31615409,0.49706143,-1.0567654,9.8931265,,,,4.1753216,-0.7507162,-45.42788,
31615412,0.49227053,-1.0543699,9.93385,,,,,,,
31615413,,,,-0.037580498,0.081541754,0.015477113,,,,
31615414,0.544971,-1.0447881,9.9602,,,,,,,
31615417,0.5832986,-1.0639518,9.984155,,,,,,,
31615418,,,,-0.039711025,0.07941123,0.016009746,,,,
31615419,0.55215746,-1.0639518,9.972177,,,,3.4053898,-0.4629383,-45.14083,
31615422,0.5329936,-1.0639518,10.012901,,,,,,,
31615423,,,,-0.039711025,0.078878604,0.016542377,,,,
31615424,0.5425755,-1.0471836,10.063206,,,,,,,
31615427,0.54976195,-1.059161,10.070392,,,,,,,
31615428,,,,-0.039711025,0.0772807,0.015477113,,,,
31615429,0.55215746,-1.0663474,10.137465,,,,1.8674049,-0.6360092,-45.33184,
31615432,0.5809032,-1.0567654,10.159025,,,,,,,
31615433,,,,-0.037580498,0.07515018,0.016009746,,,,
31615435,0.5210162,-1.0304152,10.118301,,,,,,,
31615437,0.5545529,-1.0543699,10.175793,,,,,,,
31615438,,,,-0.037580498,0.0772807,0.019205535,,,,
31615439,,,,,,,3.1014996,-2.1099539,-46.52221,
31615440,0.5377846,-1.0304152,10.1901655,,,,,,,
31615442,0.52820265,-1.0088558,10.245262,,,,,,,
31615443,,,,-0.033852078,0.07142176,0.023466589,,,,
31615445,0.56413484,-0.9968785,10.264426,,,,,,,
31615447,0.53538907,-1.0016695,10.288381,,,,,,,
31615448,,,,-0.027993126,0.06769333,0.026662381,,,,
31615449,,,,,,,3.098606,-1.4925222,-44.67225,
31615450,0.5545529,-0.9872966,10.259635,,,,,,,
31615452,0.59527606,-0.9537598,10.293171,,,,,,,
31615453,,,,-0.020536283,0.059703857,0.030923435,,,,
31615455,0.6192308,-0.9849011,10.297962,,,,,,,
31615457,0.6144399,-0.999274,10.242866,,,,,,,
31615458,,,,-0.008818385,0.050649118,0.036249753,,,,
31615459,,,,,,,2.790329,-1.054965,-44.68499,
31615460,0.6336037,-0.994483,10.281194,,,,,,,
31615462,0.6144399,-1.0208333,10.305149,,,,,,,
31615463,,,,0.003432146,0.04265964,0.03784765,,,,
31615465,0.6407901,-1.0567654,10.223702,,,,,,,
31615467,0.66234946,-1.0615565,10.216516,,,,,,,
31615468,,,,0.007160568,0.029876482,0.036782388,,,,
31615469,,,,,,,4.02306,-2.6554708,-44.48101,
31615470,0.6455811,-1.0663474,10.149443,,,,,,,
31615472,0.6575585,-1.109466,10.113511,,,,,,,
31615473,,,,0.01621531,0.015495423,0.033053964,,,,
31615475,0.6216263,-1.0352061,10.079974,,,,,,,
31615477,0.56413484,-1.0256243,9.976968,,,,,,,
31615478,,,,0.022074258,0.0011143655,0.035184488,,,,
31615479,,,,,,,5.1001205,-1.9182978,-45.54612,
31615480,0.54976195,-1.0088558,9.936245,,,,,,,
31615482,0.5162253,-1.0352061,9.809285,,,,,,,
31615483,,,,0.02260689,-0.006342479,0.039445546,,,,
31615485,0.5018524,-1.0376016,9.718257,,,,,,,
31615487,0.48987502,-1.0304152,9.682323,,,,,,,
31615488,,,,0.015150045,-0.0010161615,0.04423923,,,,
31615489,,,,,,,4.48324,-2.0518818,-44.01226,
31615490,0.47310662,-1.0016695,9.612856,,,,,,,
31615492,0.46352476,-0.9896921,9.58411,,,,,,,
31615493,,,,0.007160568,0.014962792,0.048500285,,,,
31615495,0.46112925,-1.0280197,9.588901,,,,,,,
31615497,0.37968302,-0.9777148,9.620042,,,,,,,
31615498,,,,-0.004024699,0.03573543,0.056489762,,,,
31615499,,,,,,,2.9469223,-0.94459724,-47.313362,
31615500,0.3605191,-1.0040649,9.605669,,,,,,,
31615502,0.30781865,-1.0328107,9.598483,,,,,,,
31615503,,,,-0.018405756,0.05384491,0.06447923,,,,
31615505,0.27667743,-1.0304152,9.624833,,,,,,,
31615507,0.29344577,-1.0304152,9.632019,,,,,,,
31615508,,,,-0.021068914,0.06769333,0.07886029,,,,
31615509,,,,,,,3.2540894,-1.9463129,-45.591713,
31615510,0.23595428,-1.0352061,9.660765,,,,,,,
31615512,0.2503271,-1.0423926,9.63681,,,,,,,
31615513,,,,-0.02639523,0.08207439,0.09324135,,,,
31615515,0.29823667,-1.0783247,9.643997,,,,,,,
31615517,0.29105026,-1.0352061,9.65837,,,,,,,
31615518,,,,-0.03438471,0.09379229,0.10762241,,,,
31615519,,,,,,,4.1789455,-3.4040794,-45.397057,
31615520,0.31500506,-1.0711384,9.679929,,,,,,,
31615522,0.29105026,-1.114257,9.665556,,,,,,,
31615523,,,,-0.040243655,0.10604282,0.11774241,,,,23.0
31615525,0.34614623,-1.1406072,9.672743,,,,,,,
31615527,0.38686943,-1.1190479,9.770957,,,,,,,
31615528,,,,-0.041308925,0.120423876,0.1225361,,,,
31615529,,,,,,,4.022814,-1.3496351,-45.88903,
31615530,0.4204061,-1.1525846,9.806889,,,,,,,
31615532,0.42280155,-1.1789348,9.838031,,,,,,,
31615533,,,,-0.038645763,0.13214178,0.124134,,,,
31615535,0.44436085,-1.1980988,9.85959,,,,,,,
31615537,0.44675636,-1.1669575,9.917081,,,,,,,
31615538,,,,-0.033852078,0.14119653,0.124134,,,,
31615539,,,,,,,4.4830494,-1.036233,-45.107384,
31615540,0.44915187,-1.1573756,10.022482,,,,,,,
31615542,0.4204061,-1.1885167,10.067997,,,,,,,
31615543,,,,-0.022666808,0.13800073,0.1225361,,,,
31615545,0.434779,-1.1980988,10.082369,,,,,,,
31615548,0.41561514,-1.1765393,10.106324,-0.015742596,0.11829335,0.12040557,,,,
31615549,,,,,,,2.9448528,-1.9301348,-44.206703,
31615550,0.43238348,-1.1933078,10.089556,,,,,,,
31615553,0.3820784,-1.1861213,10.06081,-0.012546807,0.08527018,0.11294872,,,,
31615555,0.3772875,-1.1980988,10.003319,,,,,,,
31615558,0.35812366,-1.1621665,9.993737,-0.009351016,0.041061748,0.109220296,,,,
31615559,,,,,,,2.9460697,-1.9463491,-45.289833,
31615560,0.35093725,-1.1597711,9.967386,,,,,,,
31615563,0.26949096,-1.1453983,9.871567,-0.011481543,-0.006875111,0.108155034,,,,
31615565,0.22876784,-1.1334207,9.780539,,,,,,,
31615568,0.2431407,-1.0639518,9.679929,,,,,,,
31615569,,,,-0.02319944,-0.051083546,0.11348135,5.5619526,-1.770834,-46.000618,
31615570,0.22876784,-1.0543699,9.629623,,,,,,,
31615573,0.21918592,-1.0256243,9.550572,,,,,,,
31615574,,,,-0.040243655,-0.08463935,0.120938204,,,,
31615575,0.27428192,-0.97052824,9.521827,,,,,,,
31615578,0.35093725,-0.9585508,9.452359,,,,,,,
31615579,,,,-0.05675524,-0.097955145,0.13318872,3.0990086,-1.7873411,-44.66883,
31615580,0.31260955,-0.9609463,9.428404,,,,,,,
31615583,0.3820784,-0.9154322,9.397263,,,,,,,
31615584,,,,-0.07433209,-0.09955304,0.14224347,,,,
31615585,0.72463185,-0.9513644,9.497873,,,,,,,
31615588,1.2324734,-1.1190479,9.624833,,,,,,,
31615589,,,,-0.08604999,-0.08517198,0.13691714,3.2555008,-2.978176,-45.57972,
31615590,1.5534675,-1.0855112,9.706279,,,,,,,
31615593,1.5917951,-1.0160424,9.763771,,,,,,,
31615594,,,,-0.08445209,-0.06919303,0.10389398,,,,
31615595,1.5390946,-0.98250556,9.861985,,,,,,,
31615598,1.431298,-0.994483,9.854799,,,,,,,
31615599,,,,-0.079658404,-0.06546461,0.07140345,2.9472332,-1.6723766,-46.68586,
31615600,1.3929703,-0.96334183,9.725443,,,,,,,
31615603,1.4049478,-0.9872966,9.6487875,,,,,,,
31615604,,,,-0.07859314,-0.070790924,0.053826604,,,,
31615605,1.4145298,-0.9968785,9.627228,,,,,,,
31615608,1.380993,-0.9920876,9.6751375,,,,,,,
31615609,,,,-0.07646262,-0.059605654,0.039978176,2.6410255,-2.999096,-46.368584,
31615610,1.4193206,-0.944178,9.691906,,,,,,,
31615613,1.3522472,-0.92501414,9.713466,,,,,,,
31615614,,,,-0.07699525,-0.035637226,0.021868696,,,,
31615615,1.4121343,-0.93459606,9.802098,,,,,,,
31615618,1.4145298,-0.92501414,9.818867,,,,,,,
31615619,,,,-0.06794051,-0.012201428,0.004291847,3.4071484,-1.4994345,-45.438316,
31615620,1.3905749,-0.93220055,9.871567,,,,,,,
31615623,1.3618292,-0.89626837,9.878754,,,,,,,
31615624,,,,-0.059418403,0.004310156,-0.0116871055,,,,
31615625,1.2588236,-0.8699181,9.8931265,,,,,,,
31615628,1.2013321,-0.8699181,9.897918,,,,,,,
31615629,,,,-0.052494187,0.015495423,-0.018611321,3.100071,-2.8145704,-44.347374,
31615630,1.1773773,-0.893873,9.8931265,,,,,,,
31615633,1.1773773,-0.84835887,9.938641,,,,,,,
31615634,,,,-0.048233137,0.022952268,-0.020209214,,,,
31615635,1.155818,-0.85554516,10.027273,,,,,,,
31615638,1.1270722,-0.85554516,10.075183,,,,,,,
31615639,,,,-0.037047867,0.028811216,-0.024470268,3.71525,-1.9346762,-45.270836,
31615640,1.0911402,-0.8627317,10.09195,,,,,,,
31615643,1.0815581,-0.8986639,10.115906,,,,,,,
31615644,,,,-0.022134177,0.034137536,-0.028198691,,,,
31615645,1.0384396,-0.8723136,10.139861,,,,,,,
31615648,1.0144848,-0.88668644,10.137465,,,,,,,
31615649,,,,-0.005622594,0.029876482,-0.030861849,2.791647,-2.5197906,-44.048927,
31615650,1.0360441,-0.89626837,10.10872,,,,,,,
31615653,1.040835,-0.9034549,10.156629,,,,,,,
31615654,,,,0.0044974093,0.021354374,-0.029796584,,,,
31615656,1.0695808,-0.9130367,10.142256,,,,,,,
31615658,1.0719763,-0.9777148,10.089556,,,,,,,
31615659,,,,0.010888991,0.011767001,-0.032992374,2.331047,-1.8152285,-45.770958,
31615661,1.0887446,-0.9920876,10.036855,,,,,,,
31615663,1.1318632,-1.0016695,10.0656,,,,,,,
31615664,,,,0.019411098,0.0032448927,-0.03831869,,,,
31615666,1.1797727,-0.97052824,10.048833,,,,,,,
31615668,1.1845638,-0.96334183,9.972177,,,,,,,
31615669,,,,0.025270049,-0.0058098473,-0.04950396,4.1746445,-1.7547846,-43.55909,
31615671,1.1893548,-0.9920876,10.056019,,,,,,,
31615673,1.2133095,-1.0088558,10.06081,,,,,,,
31615674,,,,0.03272689,-0.016995113,-0.06228712,,,,
31615676,1.1725863,-0.9896921,10.036855,,,,,,,
31615678,1.1534225,-0.944178,10.063206,,,,,,,
31615679,,,,0.04444479,-0.028713012,-0.07560292,4.1763287,-1.4877615,-45.41932,
31615681,1.1126994,-0.93938696,10.005713,,,,,,,
31615683,1.1318632,-0.9178277,9.909895,,,,,,,
31615684,,,,0.051901635,-0.046289857,-0.08945134,,,,
31615686,1.160609,-0.9369916,9.8931265,,,,,,,
31615688,1.1438407,-0.93459606,9.842822,,,,,,,
31615689,,,,0.049238473,-0.06280144,-0.102234505,4.1763287,-1.4877615,-45.41932,
31615691,1.151027,-0.9010594,9.699093,,,,,,,
31615693,1.1438407,-0.9130367,9.655973,,,,,,,
31615694,,,,0.042314265,-0.07558461,-0.1155503,,,,
31615696,1.100722,-0.9010594,9.612856,,,,,,,
31615698,1.0983264,-0.8603362,9.445172,,,,,,,
31615699,,,,0.03166163,-0.086237244,-0.12460504,4.946205,-1.4853535,-46.01925,
31615701,1.1126994,-0.87950015,9.349353,,,,,,,
31615703,1.0839536,-0.8675227,9.303839,,,,,,,
31615704,,,,0.017280573,-0.08410672,-0.13472505,,,,
31615706,1.0719763,-0.84117234,9.222393,,,,,,,
31615708,1.0312531,-0.8148221,9.172088,,,,,,,
31615709,,,,-0.0034920669,-0.06652987,-0.140584,4.6369934,-1.6142683,-44.477806,
31615711,0.985739,-0.79565835,9.196042,,,,,,,
31615713,0.935434,-0.79805374,9.200832,,,,,,,
31615714,,,,-0.025862599,-0.035637226,-0.1421819,,,,
31615716,0.8563832,-0.74295783,9.246346,,,,,,,
31615718,0.8132646,-0.76451707,9.3253975,,,,,,,
31615719,,,,-0.047700502,0.0032448927,-0.13845347,3.0988712,-1.0618773,-45.451057,
31615721,0.83003294,-0.7908673,9.380494,,,,,,,
31615723,0.7821233,-0.7669126,9.500268,,,,,,,
31615724,,,,-0.057820506,0.03893122,-0.1336598,,,,
31615726,0.7342138,-0.75972605,9.58411,,,,,,,
31615728,0.72702736,-0.76451707,9.63681,,,,,,,
31615729,,,,-0.06367946,0.061834384,-0.12780084,2.9471703,-2.250432,-45.905357,
31615731,0.71984094,-0.7333758,9.775748,,,,,,,
31615733,0.6695359,-0.75733066,9.823658,,,,,,,
31615734,,,,-0.068473145,0.067160696,-0.12353977,,,,
31615736,0.67432684,-0.7836809,9.88594,,,,,,,
31615738,0.6934907,-0.7836809,9.964991,,,,,,,
31615739,,,,-0.06367946,0.061301757,-0.122474514,2.947178,-1.3821917,-46.998756,
31615741,0.68390876,-0.8244041,9.962595,,,,,,,
31615743,0.68869966,-0.8723136,10.010505,,,,,,,
31615744,,,,-0.05568998,0.03893122,-0.1256703,,,,
31615746,0.72463185,-0.88908195,10.041646,,,,,,,
31615748,0.66714036,-0.9417825,10.024878,,,,,,,
31615749,,,,-0.04610261,0.013364895,-0.12939873,3.2554455,-2.6879902,-45.892616,
31615751,0.6479766,-0.92501414,10.029669,,,,,,,
31615753,0.6359992,-0.9537598,10.056019,,,,,,,
31615754,,,,-0.03438471,-0.011136165,-0.13472505,,,,
31615756,0.6383947,-0.98250556,10.010505,,,,,,,
31615758,0.56892574,-0.9513644,10.003319,,,,,,,
31615759,,,,-0.02319944,-0.035637226,-0.13951874,2.6407146,-2.2713156,-46.996086,
31615761,0.57132125,-0.9585508,9.955409,,,,,,,
31615763,0.57132125,-1.0016695,9.9602,,,,,,,
31615764,,,,-0.014677334,-0.0553446,-0.14484505,,,,
31615766,0.5593439,-0.994483,9.9194765,,,,,,,
31615769,0.544971,-0.97531927,9.897918,-0.0050899624,-0.07132355,-0.14484505,3.1014996,-2.1099539,-46.52221,
31615771,0.5329936,-1.0112513,9.905104,,,,,,,
31615774,0.5162253,-1.0304152,9.873962,-2.9627638E-4,-0.080378294,-0.14377978,,,,
31615776,0.5114343,-1.0136468,9.797307,,,,,,,
31615779,0.5114343,-1.0208333,9.770957,0.0066279364,-0.086237244,-0.14111663,3.2526264,-0.6242628,-45.916588,
31615781,0.49466592,-1.0639518,9.730234,,,,,,,
31615784,0.48268855,-1.0519744,9.653579,0.008758464,-0.08676988,-0.13685557,,,,
31615786,0.48508406,-1.1022795,9.624833,,,,,,,
31615789,0.5210162,-1.0903022,9.540991,,,,4.17795,-1.7987947,-46.49903,
31615790,,,,0.0066279364,-0.08410672,-0.13632295,,,,
31615791,0.56413484,-1.0543699,9.464335,,,,,,,
31615794,0.60725343,-1.0950931,9.38289,,,,,,,
31615795,,,,-0.0024268033,-0.0819762,-0.13685557,,,,
31615796,0.6192308,-1.1166525,9.294257,,,,,,,
31615799,0.63120824,-1.114257,9.279883,,,,3.1024513,-2.5568142,-46.826515,
31615800,,,,-0.01734049,-0.078780405,-0.140584,,,,
31615801,0.69828165,-1.1070704,9.224788,,,,,,,
31615804,0.66234946,-1.0926976,9.231975,,,,,,,
31615805,,,,-0.035982605,-0.06759514,-0.14804085,,,,
31615806,0.6120444,-1.0639518,9.217602,,,,,,,
31615809,0.59527606,-1.0543699,9.28228,,,,2.7915478,-1.0711794,-45.76812,
31615810,,,,-0.05728787,-0.053214073,-0.1554977,,,,
31615811,0.5377846,-1.0567654,9.3517475,,,,,,,
31615814,0.44196546,-1.0160424,9.327794,,,,,,,
31615815,,,,-0.0727342,-0.037235122,-0.15816084,,,,
31615816,0.434779,-1.0040649,9.358934,,,,,,,
31615819,0.374892,-1.0064604,9.397263,,,,4.3307495,-0.91432,-46.660225,
31615820,,,,-0.08391946,-0.020723537,-0.15070401,,,,
31615821,0.30063218,-0.9609463,9.430799,,,,,,,
31615824,0.24553618,-0.9585508,9.46194,,,,,,,
31615825,,,,-0.092441574,-4.8352976E-4,-0.13845347,,,,
31615826,0.17367181,-0.97052824,9.526618,,,,,,,
31615829,0.15211254,-0.9058503,9.493082,,,,3.8707619,-2.5335598,-46.03385,
31615830,,,,-0.09936578,0.036268063,-0.12407241,,,,
31615831,0.08983007,-0.87950015,9.529014,,,,,,,
31615834,0.099411994,-0.8818954,9.576922,,,,,,,
31615835,,,,-0.10096368,0.0905965,-0.10116924,,,,
31615836,0.073061705,-0.9034549,9.61046,,,,,,,
31615839,0.06827077,-0.84117234,9.720652,,,,3.4033203,1.3013382,-45.470848,
31615840,,,,-0.09670263,0.14332706,-0.07347239,,,,
31615841,0.09222555,-0.8651272,9.864381,,,,,,,
31615844,0.11857581,-0.9513644,9.938641,,,,,,,
31615845,,,,-0.08977841,0.1843397,-0.04950396,,,,
31615846,0.14013514,-0.9561553,9.941036,,,,,,,
31615849,0.16888088,-0.9585508,9.967386,,,,0.6402054,-2.5825863,-46.11364,
31615850,,,,-0.07912578,0.20564498,-0.031394478,,,,
31615851,0.20720854,-0.994483,9.883545,,,,,,,
31615854,0.30542314,-1.0376016,9.909895,,,,,,,
31615855,,,,-0.07539735,0.2077755,-0.02127448,,,,
31615856,0.38926488,-1.0663474,9.897918,,,,,,,
31615859,0.45394284,-1.0711384,9.871567,,,,2.9460697,-1.9463491,-45.289833,
31615860,,,,-0.07060367,0.18806812,-0.024470268,,,,
31615861,0.4659202,-1.0926976,9.8404255,,,,,,,
31615864,0.5425755,-1.0831157,9.8404255,,,,,,,
31615865,,,,-0.07433209,0.1523818,-0.03831869,,,,
31615866,0.55215746,-1.1046749,9.74221,,,,,,,
31615869,0.57371676,-1.1477937,9.687115,,,,2.332264,-1.8314419,-46.854073,
31615870,,,,-0.07859314,0.11136913,-0.056960803,,,,
31615871,0.58569413,-1.1190479,9.763771,,,,,,,
31615874,0.57850766,-1.1118615,9.799703,,,,,,,22.0
31615875,,,,-0.08019104,0.06982386,-0.08039661,,,,
31615876,0.55215746,-1.0663474,9.797307,,,,,,,
31615879,0.5186207,-1.0831157,9.830844,,,,4.332506,-1.9508171,-46.95771,
31615880,,,,-0.07699525,0.03253964,-0.09797345,,,,
31615882,0.47310662,-0.9872966,9.821261,,,,,,,
31615884,0.41082418,-0.9537598,9.809285,,,,,,,
31615885,,,,-0.065277345,0.0011143655,-0.11075661,,,,
31615887,0.37249655,-0.98250556,9.739816,,,,,,,
31615889,0.29823667,-0.9130367,9.63681,,,,2.944395,-1.3451309,-44.523018,
31615890,,,,-0.051961556,-0.007940374,-0.11288714,,,,
31615892,0.2431407,-0.8747091,9.646392,,,,,,,
31615894,0.154508,-0.8579407,9.550572,,,,,,,
31615895,,,,-0.036515236,0.008038579,-0.10596293,,,,
31615897,0.08743459,-0.84596336,9.440381,,,,,,,
31615899,0.09701651,-0.8220086,9.215206,,,,3.8667793,-0.743804,-44.66181,
31615900,,,,-0.025862599,0.045855433,-0.09051661,,,,
31615902,0.13534415,-0.8244041,9.016381,,,,,,,
31615904,0.1329487,-0.84356785,8.95889,,,,,,,
31615905,,,,-0.027460495,0.09858598,-0.07293976,,,,
31615907,0.1329487,-0.8267995,8.846302,,,,,,,
31615909,0.19283566,-0.84835887,8.812766,,,,3.4053268,-1.0409937,-44.360313,
31615910,,,,-0.04556998,0.15504496,-0.059091326,,,,
31615912,0.20481306,-0.7836809,8.724133,,,,,,,
31615914,0.13773966,-0.6854663,8.465422,,,,,,,
31615915,,,,-0.06794051,0.20298181,-0.048971325,,,,
31615917,0.14971703,-0.6974437,8.4270935,,,,,,,
31615919,0.11857581,-0.62318385,8.556449,,,,5.100588,-1.6350603,-46.323204,
31615920,,,,-0.09670263,0.25731024,-0.03778606,,,,
31615922,0.044315994,-0.63276577,8.719342,,,,,,,
31615924,0.020361215,-0.6447432,8.824743,,,,,,,
31615925,,,,-0.12173632,0.29246393,-0.026600795,,,,
31615927,0.03233859,-0.6136019,8.853489,,,,,,,
31615929,-0.003593579,-0.61839294,8.966076,,,,4.6390266,-1.3518782,-46.6475,
31615930,,,,-0.1350521,0.29512706,-0.01594816,,,,
31615932,-0.008384541,-0.6567205,9.0595,,,,,,,
31615934,-0.010780022,-0.6471387,9.248743,,,,,,,
31615935,,,,-0.14250895,0.2786155,-0.0031649978,,,,
31615937,0.015570253,-0.6423477,9.40924,,,,,,,
31615939,0.015570253,-0.62318385,9.471521,,,,5.253584,-1.7662382,-45.389305,
31615940,,,,-0.1382479,0.24612498,0.0074876375,,,,
31615942,0.025152147,-0.5920427,9.579319,,,,,,,
31615944,0.03233859,-0.5896472,9.682323,,,,,,,
31615945,,,,-0.11534474,0.20085129,0.018672904,,,,
31615947,0.06108433,-0.58006525,9.708674,,,,,,,
31615949,0.05629337,-0.5656924,9.670347,,,,3.2526798,-0.91444874,-45.60369,
31615950,,,,-0.08604999,0.1523818,0.03252133,,,,
31615952,0.06827077,-0.53934216,9.629623,,,,,,,
31615954,0.08983007,-0.5632969,9.58411,,,,,,,
31615955,,,,-0.05302682,0.12575018,0.04690239,,,,
31615957,0.104202926,-0.5585059,9.459545,,,,,,,
31615959,0.10899392,-0.61120653,9.277489,,,,2.793213,-2.540637,-45.441536,
31615960,,,,-0.021601545,0.13214178,0.060218185,,,,
31615962,0.10899392,-0.58725166,9.131364,,,,,,,
31615964,0.14732155,-0.57287884,9.002008,,,,,,,
31615965,,,,0.0044974093,0.16676284,0.07300134,,,,
31615967,0.16408992,-0.5992291,8.875048,,,,,,,
31615969,0.154508,-0.61839294,8.776834,,,,3.4043827,0.27410698,-45.14939,
31615970,,,,0.023139521,0.22215655,0.08471924,,,,
31615972,0.17127633,-0.61120653,8.640291,,,,,,,
31615974,0.21918592,-0.63276577,8.465422,,,,,,,
31615975,,,,0.028998472,0.27755022,0.09537187,,,,
31615977,0.29823667,-0.673489,8.362416,,,,,,,
31615979,0.32937795,-0.71900296,8.173173,,,,3.867941,-0.46983242,-46.057823,
31615980,,,,0.018878467,0.3238892,0.10123083,,,,
31615982,0.48029304,-0.75014424,8.048608,,,,,,,
31615984,0.5545529,-0.81242657,7.943207,,,,,,,
31615985,,,,-0.0018941717,0.36170605,0.09537187,,,,
31615987,0.5809032,-0.8507544,7.9048796,,,,,,,
31615989,0.6240218,-0.85554516,7.914461,,,,4.4815826,0.2858162,-45.43226,
31615990,,,,-0.032786813,0.38354397,0.081523456,,,,
31615992,0.655163,-0.92980504,7.916857,,,,,,,
31615995,0.59527606,-0.9609463,7.9959073,-0.06474472,0.3856745,0.05915292,,,,
31615997,0.57371676,-0.9537598,8.11089,,,,,,,
31615999,,,,,,,5.253273,-1.0384579,-46.016777,
31616000,0.5090388,-0.9010594,8.25941,-0.085517354,0.36543447,0.03731502,,,,
31616002,0.40124232,-0.8986639,8.379184,,,,,,,
31616005,0.3030277,-0.87950015,8.484585,-0.09137631,0.33400923,0.02399922,,,,
31616007,0.209604,-0.8723136,8.568427,,,,,,,
31616009,,,,,,,5.7155304,-1.330904,-46.311424,
31616010,0.154508,-0.8531499,8.712155,-0.081788935,0.2983229,0.014944481,,,,
31616012,0.08503914,-0.8220086,8.795997,,,,,,,
31616015,0.039525032,-0.80044925,8.795997,-0.053559452,0.2615713,0.016542377,,,,
31616017,-0.003593579,-0.7669126,8.903794,,,,,,,
31616019,,,,,,,5.405981,-0.5869465,-45.553917,
31616020,-0.04910767,-0.75014424,8.915771,,,,,,,
31616021,,,,-0.022134177,0.22535235,0.024531854,,,,
31616022,-0.0682715,-0.74535334,8.855884,,,,,,,
31616024,,,,,,,,,,20.0
31616025,-0.099412724,-0.75493515,8.877444,,,,,,,
31616026,,,,0.017813204,0.1960576,0.03731502,,,,
31616027,-0.101808205,-0.7285849,8.83672,,,,,,,
31616029,,,,,,,5.2535305,-1.4760523,-45.702187,
31616030,-0.12576298,-0.7357713,8.822348,,,,,,,
31616031,,,,0.055097427,0.17208917,0.056489762,,,,
31616032,-0.099412724,-0.70463014,8.752879,,,,,,,
31616035,-0.06348054,-0.7166076,8.748088,,,,,,,
31616036,,,,0.092914276,0.15930602,0.0740666,,,,
31616037,-0.073062465,-0.6854663,8.719342,,,,,,,
31616039,,,,,,,7.1017227,-2.7793503,-45.950645,
31616040,-0.044316724,-0.67109346,8.65706,,,,,,,
31616041,,,,0.1270027,0.1609039,0.08791503,,,,
31616042,-0.073062465,-0.7285849,8.666641,,,,,,,
31616045,-0.027548373,-0.74535334,8.68341,,,,,,,
31616046,,,,0.16322167,0.16889338,0.10016556,,,,
31616047,0.025152147,-0.80763566,8.606754,,,,,,,
31616049,,,,,,,4.0204334,-1.6073923,-43.409874,
31616050,0.06108433,-0.84596336,8.585196,,,,,,,
31616051,,,,0.19624485,0.17741548,0.10602451,,,,
31616052,0.053897917,-0.8196131,8.556449,,,,,,,
31616055,0.08743459,-0.84835887,8.451048,,,,,,,
31616056,,,,0.22127853,0.17635022,0.106557146,,,,
31616057,0.14253059,-0.9154322,8.398348,,,,,,,
31616059,,,,,,,5.4063835,-0.8817644,-45.5505,
31616060,0.21199948,-0.9585508,8.381579,,,,,,,
31616061,,,,0.23992065,0.17208917,0.10229609,,,,
31616062,0.25272262,-1.0136468,8.28097,,,,,,,
31616065,0.22637233,-1.0352061,8.230664,,,,,,,
31616066,,,,0.25483432,0.16676284,0.093773976,,,,
31616067,0.23355877,-1.0280197,8.2354555,,,,,,,
31616069,,,,,,,6.175354,-1.5909224,-44.43981,
31616070,0.27428192,-1.0879067,8.228269,,,,,,,
31616071,,,,0.26282382,0.1609039,0.07832766,,,,
31616072,0.23116332,-1.0711384,8.20671,,,,,,,
31616075,0.2215814,-1.0711384,8.249828,,,,,,,
31616076,,,,0.265487,0.15557759,0.06607713,,,,
31616077,0.19283566,-1.1190479,8.2354555,,,,,,,
31616079,,,,,,,5.406988,-1.3239918,-45.545357,
31616080,0.10659844,-1.0663474,8.25462,,,,,,,
31616081,,,,0.26815012,0.14545758,0.05862029,,,,
31616082,0.09462103,-1.0926976,8.240247,,,,,,,
31616085,0.053897917,-1.0783247,8.266597,,,,,,,
31616086,,,,0.26708487,0.13160916,0.053293973,,,,
31616087,0.049106926,-1.1070704,8.271388,,,,,,,
31616089,,,,,,,7.4068203,-2.0167894,-44.559013,
31616090,0.08264366,-1.1477937,8.302529,,,,,,,
31616091,,,,0.26229116,0.1140323,0.049565546,,,,
31616092,0.10899392,-1.1909122,8.312111,,,,,,,
31616095,0.14013514,-1.1933078,8.292947,,,,,,,
31616096,,,,0.2511059,0.08686807,0.045304492,,,,
31616097,0.14971703,-1.174144,8.383975,,,,,,,
31616099,,,,,,,5.5583534,-2.0123768,-42.43833,
31616100,0.20241755,-1.1717485,8.383975,,,,,,,
31616101,,,,0.24045327,0.056508068,0.038912915,,,,
31616102,0.24553618,-1.1980988,8.407929,,,,,,,
31616105,0.24553618,-1.1621665,8.470212,,,,,,,
31616106,,,,0.2356596,0.027745953,0.030923435,,,,
31616108,0.2718864,-1.1597711,8.515726,,,,,,,
31616109,,,,,,,6.3310966,-2.4823084,-45.04467,
31616110,0.26949096,-1.1334207,8.549263,,,,,,,
31616111,,,,0.23672485,0.0059080506,0.018672904,,,,
31616113,0.27428192,-1.1310253,8.60915,,,,,,,
31616115,0.2862593,-1.1957033,8.597173,,,,,,,
31616116,,,,0.24151854,-0.004211952,0.011748692,,,,
31616118,0.25751355,-1.150189,8.616336,,,,,,,
31616119,,,,,,,5.4063835,-0.8817644,-45.5505,
31616120,0.24553618,-1.1597711,8.63071,,,,,,,
31616121,,,,0.25217116,-0.0015487933,0.0106834285,,,,
31616123,0.31740057,-1.1957033,8.692992,,,,,,,
31616125,0.33177346,-1.1980988,8.781625,,,,,,,
31616126,,,,0.265487,0.013364895,0.009085532,,,,
31616128,0.29584128,-1.1980988,8.827139,,,,,,,
31616129,,,,,,,5.2527695,-2.0448408,-44.302742,
31616130,0.31740057,-1.2436129,8.872653,,,,,,,
31616131,,,,0.28040066,0.045855433,0.0053571104,,,,
31616133,0.32937795,-1.2148671,8.903794,,,,,,,
31616135,0.31260955,-1.2220535,8.915771,,,,,,,
31616136,,,,0.30277118,0.099118605,5.6342455E-4,,,,
31616138,0.2886548,-1.2028896,8.949307,,,,,,,
31616139,,,,,,,4.330593,-1.9253378,-45.25564,
31616140,0.2814684,-1.2052851,9.064291,,,,,,,
31616141,,,,0.33046806,0.16569759,-0.004762893,,,,
31616143,0.27428192,-1.2100761,9.1337595,,,,,,,
31616145,0.2215814,-1.1382117,9.270302,,,,,,,
31616146,,,,0.36082807,0.22854814,-0.007426052,,,,
31616148,0.1880447,-1.1238389,9.392472,,,,,,,
31616149,,,,,,,4.020241,-0.59174347,-44.504982,
31616150,0.19523114,-1.1765393,9.4835,,,,,,,
31616151,,,,0.39598176,0.27328917,-0.0063607884,,,,
31616153,0.16648537,-1.2052851,9.550572,,,,,,,
31616155,0.12576225,-1.1837258,9.708674,,,,,,,
31616156,,,,0.42740703,0.2919313,-0.005295525,,,,
31616158,0.09701651,-1.1789348,9.756584,,,,,,,
31616159,,,,,,,5.253639,-2.0564222,-45.07641,
31616160,0.08743459,-1.1909122,9.826053,,,,,,,
31616161,,,,0.45403862,0.2871376,-0.0042302613,,,,
31616163,0.03473407,-1.174144,9.838031,,,,,,,
31616165,0.027547628,-1.150189,9.955409,,,,,,,
31616166,,,,0.47960493,0.25358182,-0.0042302613,,,,
31616168,0.053897917,-1.1717485,10.053624,,,,,,,
31616169,,,,,,,6.332651,-3.371395,-45.343864,
31616170,-0.008384541,-1.1789348,10.113511,,,,,,,
31616171,,,,0.4955839,0.1992534,-0.0020997338,,,,
31616173,0.020361215,-1.1430027,10.185375,,,,,,,
31616175,0.03712955,-1.1573756,10.240471,,,,,,,22.0
31616176,,,,0.51049757,0.12788074,0.0016286881,,,,
31616178,0.046711475,-1.1286298,10.159025,,,,,,,
31616179,,,,,,,5.4095535,-2.9501238,-45.836006,
31616180,0.09222555,-1.1190479,10.20933,,,,,,,
31616181,,,,0.51316077,0.04212701,3.0792784E-5,,,,
31616183,0.15211254,-1.0855112,10.245262,,,,,,,
31616185,0.23834974,-1.0639518,10.20933,,,,,,,
31616186,,,,0.5046386,-0.03936565,-0.007958684,,,,
31616188,0.30542314,-0.999274,10.113511,,,,,,,
31616189,,,,,,,5.716007,-2.9292412,-44.745262,
31616190,0.3988468,-1.0304152,10.077578,,,,,,,
31616191,,,,0.4923881,-0.11020567,-0.018611321,,,,
31616193,0.44675636,-1.0783247,9.921872,,,,,,,
31616195,0.5018524,-1.1669575,9.847611,,,,,,,
31616196,,,,0.47161546,-0.15547936,-0.028198691,,,,
31616198,0.5305981,-1.1597711,9.787725,,,,,,,
31616199,,,,,,,6.486002,-2.6389637,-45.812828,
31616200,0.61683536,-1.1477937,9.643997,,,,,,,
31616201,,,,0.43699437,-0.17678462,-0.03778606,,,,
31616203,0.6479766,-1.1525846,9.6224375,,,,,,,
31616205,0.60725343,-1.164562,9.586505,,,,,,,
31616206,,,,0.38639438,-0.16240358,-0.048971325,,,,
31616208,0.61683536,-1.1214434,9.464335,,,,,,,
31616209,,,,,,,6.79352,-3.6453114,-44.400642,
31616210,0.57132125,-1.0903022,9.490685,,,,,,,
31616211,,,,0.32514173,-0.10807515,-0.06175449,,,,
31616213,0.54976195,-1.1262343,9.50985,,,,,,,
31616215,0.4659202,-1.0567654,9.538596,,,,,,,
31616216,,,,0.25856277,-0.032974068,-0.06708081,,,,
31616218,0.4204061,-1.0208333,9.679929,,,,,,,
31616219,,,,,,,6.4853992,-2.1967363,-45.81797,
31616221,0.38447392,-0.97531927,9.845217,0.1871901,0.04265964,-0.06388502,,,,
31616223,0.33416885,-0.9896921,10.089556,,,,,,,
31616225,,,,,,,,,,23.0
31616226,0.29105026,-1.0376016,10.312335,0.11741534,0.09965124,-0.05269975,,,,
31616228,0.2431407,-1.0471836,10.654889,,,,,,,
31616229,,,,,,,7.56411,-4.6655025,-44.36965,
31616231,0.14732155,-1.1070704,10.963904,0.05403216,0.13160916,-0.03725343,,,,
31616233,0.13534415,-1.1310253,11.304063,,,,,,,
31616236,0.06587529,-1.1453983,11.675363,0.0039647776,0.14226179,-0.022872372,,,,
31616238,0.017965704,-1.2268444,11.938865,,,,,,,
31616239,,,,,,,6.0241737,-2.7864275,-45.358315,
31616241,0.029943138,-1.3106862,12.293396,,,,,,,
31616242,,,,-0.027460495,0.13480495,-0.007426052,,,,
31616243,0.0083838105,-1.3490138,12.549712,,,,,,,
31616246,-0.044316724,-1.3753641,12.784469,,,,,,,
31616247,,,,-0.041308925,0.11296704,0.005889742,,,,
31616248,-0.046712205,-1.389737,13.004853,,,,,,,
31616249,,,,,,,6.0234604,-1.7638302,-45.98922,
31616251,-0.053898618,-1.3729686,13.201282,,,,,,,
31616252,,,,-0.039178394,0.093259655,0.019738168,,,,
31616253,-0.053898618,-1.3609912,13.443226,,,,,,,
31616256,-0.044316724,-1.3514093,13.804943,,,,,,,
31616257,,,,-0.02000365,0.08207439,0.030390805,,,,
31616258,-0.001198113,-1.3825506,14.123542,,,,,,,
31616259,,,,,,,7.4074802,-2.7492018,-44.24099,
31616261,-0.00598906,-1.3585957,14.437348,,,,,,,
31616262,,,,0.017280573,0.061834384,0.034651857,,,,
31616263,0.041920513,-1.3729686,14.6409645,,,,,,,
31616266,0.013174772,-1.4184828,14.741575,,,,,,,
31616267,,,,0.06628269,0.034670167,0.03252133,,,,
31616268,0.0107792765,-1.4160873,14.897281,,,,,,,
31616269,,,,,,,6.025173,-4.391713,-44.256355,
31616271,-0.032339334,-1.3681778,14.94519,,,,,,,
31616272,,,,0.122741655,-0.0052772155,0.025064485,,,,
31616273,-0.073062465,-1.3681778,14.957168,,,,,,,
31616276,-0.058689594,-1.32985,14.9643545,,,,,,,
31616277,,,,0.1738743,-0.056409866,0.018140273,,,,
31616278,-0.08024889,-1.3154771,14.866139,,,,,,,
31616279,,,,,,,5.561796,-2.7818499,-44.596046,
31616281,-0.1688816,-1.2603811,14.796671,,,,,,,
31616282,,,,0.20956065,-0.10700989,0.019738168,,,,
31616283,-0.2575143,-1.2028896,14.700851,,,,,,,
31616286,-0.27188718,-1.1070704,14.619406,,,,,,,
31616287,,,,0.23086591,-0.16666463,0.030390805,,,,
31616288,-0.3054239,-0.9896921,14.5691,,,,,,,
31616289,,,,,,,6.485033,-3.928585,-43.321693,
31616291,-0.35333344,-0.9178277,14.494841,,,,,,,
31616292,,,,0.23938802,-0.2348415,0.050098177,,,,
31616293,-0.3389606,-0.8220086,14.482862,,,,,,,
31616296,-0.31500578,-0.70463014,14.430162,,,,,,,
31616297,,,,0.23352908,-0.30887732,0.08205608,,,,
31616298,-0.25990978,-0.6902572,14.236129,,,,,,,
31616299,,,,,,,3.8708515,-4.8504114,-43.221275,
31616301,-0.180859,-0.66869795,14.1259365,,,,,,,
31616302,,,,0.21222378,-0.37652156,0.115079254,,,,
31616303,-0.044316724,-0.6543251,13.970231,,,,,,,
31616306,0.049106926,-0.6136019,13.843271,,,,,,,
31616307,,,,0.17280903,-0.42658892,0.14650452,,,,
31616308,0.17127633,-0.6040201,13.819316,,,,,,,
31616309,,,,,,,5.2537117,-3.3599415,-43.513664,
31616311,0.2814684,-0.5848563,13.668401,,,,,,,
31616312,,,,0.12061113,-0.46014476,0.17366873,,,,
31616313,0.3988468,-0.5225737,13.608514,,,,,,,
31616316,0.49945688,-0.4842461,13.565394,,,,,,,
31616317,,,,0.063086905,-0.47718897,0.194974,,,,
31616318,0.600067,-0.48185065,13.507904,,,,,,,
31616319,,,,,,,6.026123,-4.8385735,-44.560677,
31616321,0.68390876,-0.44352302,13.479157,,,,,,,
31616322,,,,-0.0013615399,-0.4761237,0.2098877,,,,
31616323,0.8036827,-0.4578959,13.443226,,,,,,,
31616326,0.86836064,-0.4626868,13.383339,,,,,,,
31616327,,,,-0.06580998,-0.46067736,0.21947506,,,,
31616328,1.0312531,-0.48664162,13.335429,,,,,,,
31616329,,,,,,,4.179203,-3.841673,-45.08245,
31616331,1.1270722,-0.5082009,13.318661,,,,,,,
31616332,,,,-0.1382479,-0.43670896,0.22906244,,,,
31616334,1.1893548,-0.52976024,13.3402195,,,,,,,
31616336,1.3378744,-0.553715,13.347406,,,,,,,
31616337,,,,-0.2069574,-0.40262052,0.2285298,,,,
31616339,1.4336935,-0.6064155,13.4192705,,,,4.951359,-4.8827114,-46.444084,
31616341,1.4720211,-0.61839294,13.524672,,,,,,,
31616342,,,,-0.27619952,-0.36480364,0.21787716,,,,
31616344,1.5582584,-0.5920427,13.64205,,,,,,,
31616346,1.6253318,-0.5992291,13.860039,,,,,,,
31616347,,,,-0.344909,-0.33337837,0.20030032,,,,
31616349,1.656473,-0.61599743,13.982208,,,,5.562912,-4.099267,-43.961708,
31616351,1.6876142,-0.6016246,14.085214,,,,,,,
31616352,,,,-0.3997701,-0.31793207,0.17526664,,,,
31616354,1.6780324,-0.63276577,14.154683,,,,,,,
31616356,1.7139645,-0.6830708,14.209779,,,,,,,
31616357,,,,-0.451968,-0.32219312,0.15076557,,,,
31616359,1.7283374,-0.67588437,14.262479,,,,5.561384,-3.3552723,-43.506065,
31616361,1.7954106,-0.76451707,14.372671,,,,,,,
31616362,,,,-0.5073617,-0.34296575,0.12999293,,,,
31616364,1.876857,-0.8723136,14.353508,,,,,,,
31616366,1.9079983,-0.9034549,14.387044,,,,,,,
31616367,,,,-0.56808174,-0.36533627,0.105491884,,,,
31616369,1.9535122,-0.9465735,14.41579,,,,5.4097996,-4.2559595,-44.427986,
31616371,1.9966309,-1.0112513,14.451722,,,,,,,
31616372,,,,-0.6330628,-0.3823805,0.079392925,,,,
31616374,2.0493314,-1.114257,14.363089,,,,,,,
31616376,2.051727,-1.2268444,14.387044,,,,,,,
31616377,,,,-0.6916523,-0.3861089,0.057022393,,,,
31616379,2.0493314,-1.3657823,14.377461,,,,4.949482,-4.1340847,-45.678978,
31616381,2.0541224,-1.4759742,14.3175745,,,,,,,
31616382,,,,-0.75716597,-0.36959735,0.03731502,,,,
31616384,2.0397494,-1.6676124,14.27206,,,,,,,
31616386,2.0445404,-1.8281094,14.351111,,,,,,,
31616387,,,,-0.8274734,-0.3349763,0.017075008,,,,
31616389,2.0541224,-2.0125616,14.379858,,,,4.6398144,-3.6779957,-44.453835,
31616391,2.001422,-2.1562903,14.439745,,,,,,,
31616392,,,,-0.8823344,-0.28597414,-0.0015671025,,,,
31616394,2.006213,-2.3766744,14.540355,,,,,,,
31616396,1.9439304,-2.5467534,14.624197,,,,,,,
31616397,,,,-0.92387974,-0.21726465,-0.026068164,,,,
31616399,1.8960209,-2.7192276,14.755948,,,,6.1770306,-2.1921406,-45.206627,
31616401,1.8888345,-2.8222334,14.902072,,,,,,,
31616402,,,,-0.94198924,-0.15015304,-0.059091326,,,,
31616404,1.7930152,-2.9491935,14.988309,,,,,,,
31616406,1.721151,-3.1025043,15.165575,,,,,,,
31616407,,,,-0.9355976,-0.09635725,-0.10063661,,,,
31616409,1.6444956,-3.2366512,15.227857,,,,4.0241394,-1.9462214,-46.346382,
31616411,1.5606539,-3.3037243,15.3212805,,,,,,,
31616412,,,,-0.9079008,-0.06439935,-0.14963873,,,,
31616414,1.4720211,-3.3636112,15.414705,,,,,,,
31616416,1.4049478,-3.4163117,15.448241,,,,,,,
31616417,,,,-0.8626271,-0.06439935,-0.20449981,,,,
31616419,1.2612191,-3.4234984,15.472196,,,,4.0241394,-1.9462214,-46.346382,
31616421,1.0983264,-3.4330804,15.445846,,,,,,,
31616422,,,,-0.80670077,-0.091030926,-0.26255667,,,,
31616424,0.8995019,-3.4282894,15.3644,,,,,,,
31616425,,,,,,,,,,20.0
31616426,0.70546806,-3.4043345,15.256603,,,,,,,
31616427,,,,-0.7454481,-0.14962041,-0.3174177,,,,
31616429,0.5090388,-3.2797697,15.124852,,,,4.1760178,-0.75998116,-46.046806,
31616431,0.38686943,-3.1911368,14.909259,,,,,,,
31616432,,,,-0.6873913,-0.23324358,-0.36056092,,,,
31616434,0.20481306,-3.112086,14.636174,,,,,,,
31616436,0.049106926,-2.9635665,14.312784,,,,,,,
31616437,,,,-0.6383891,-0.33444363,-0.38985565,,,,
31616439,-0.08024889,-2.7575552,13.977417,,,,4.4831314,-1.4715109,-44.638054,
31616441,-0.31740126,-2.5491486,13.706728,,,,,,,
31616442,,,,-0.60483336,-0.44043738,-0.40530196,,,,
31616444,-0.4491526,-2.290437,13.397712,,,,,,,
31616447,-0.5928813,-2.0077705,12.992876,-0.5861912,-0.5336479,-0.39624724,,,,
31616449,-0.6863049,-1.7466632,12.597622,,,,3.404171,-0.4467249,-44.0577,
31616452,-0.74140096,-1.50472,12.219136,-0.58832175,-0.6098142,-0.36109355,,,,
31616454,-0.7150507,-1.2939179,11.720877,,,,,,,
31616457,-0.6192316,-1.150189,11.16273,-0.6176165,-0.6662732,-0.31475458,,,,
31616459,-0.52101696,-1.0304152,10.578233,,,,4.945261,-0.1702528,-46.808327,
31616462,-0.3677063,-1.0399971,9.988946,-0.6873913,-0.68811107,-0.26468718,,,,
31616464,-0.19044091,-1.0471836,9.339771,,,,,,,
31616467,-0.06108506,-1.164562,8.772043,,,,,,,
31616468,,,,-0.7939176,-0.6630774,-0.22580509,,,,
31616469,0.10899392,-1.2939179,8.230664,,,,3.0953007,1.301301,-45.16897,
31616472,0.2551181,-1.4280646,7.854574,,,,,,,
31616473,,,,-0.9292061,-0.5853132,-0.20130402,,,,
31616474,0.41801065,-1.5574205,7.4808793,,,,,,,
31616475,,,,,,,,,,16.0
31616477,0.49227053,-1.6771944,7.267682,,,,,,,
31616478,,,,-1.0794083,-0.4564163,-0.18639034,,,,
31616479,0.60964894,-1.7873865,7.135931,,,,3.0967102,0.2694378,-45.15699,
31616482,0.6767223,-1.8520643,7.152699,,,,,,,
31616483,,,,-1.224284,-0.28757206,-0.18532507,,,,
31616484,0.6791178,-1.9742337,7.2748685,,,,,,,
31616487,0.73900473,-2.0221434,7.425783,,,,,,,
31616488,,,,-1.3531809,-0.12032568,-0.19491245,,,,
31616489,0.68869966,-2.1011941,7.6988683,,,,4.3264465,0.7349739,-44.822258,
31616492,0.65995395,-2.2089908,8.012676,,,,,,,
31616493,,,,-1.4565115,0.010701737,-0.20822823,,,,
31616494,0.6192308,-2.2760642,8.405535,,,,,,,
31616497,0.5617394,-2.3814652,8.798393,,,,,,,
31616498,,,,-1.5214926,0.10870598,-0.22047876,,,,
31616499,0.53538907,-2.5084255,9.205624,,,,5.249958,0.88712597,-45.420113,
31616502,0.49466592,-2.599454,9.665556,,,,,,,
31616503,,,,-1.5491894,0.1625018,-0.2327293,,,,
31616504,0.46352476,-2.685691,9.986549,,,,,,,
31616507,0.41082418,-2.7671373,10.3554535,,,,,,,
31616508,,,,-1.5332105,0.17475234,-0.251904,,,,
31616509,0.38926488,-2.8198378,10.736335,,,,4.3242855,2.066288,-44.528206,
31616512,0.31260955,-2.8174424,11.102843,,,,,,,
31616513,,,,-1.4719578,0.16037127,-0.27427456,,,,
31616514,0.29105026,-2.8940976,11.452583,,,,,,,
31616517,0.27428192,-2.8940976,11.828672,,,,,,,
31616518,,,,-1.3537135,0.12628284,-0.2987756,,,,
31616519,0.2000221,-2.9180524,12.116131,,,,3.7105618,1.7459173,-45.623116,
31616522,0.154508,-2.9108658,12.475451,,,,,,,
31616523,,,,-1.1939241,0.07248702,-0.32487458,,,,
31616524,0.073061705,-2.9084706,12.750932,,,,,,,
31616525,,,,,,,,,,13.0
31616527,0.013174772,-2.8390017,13.047972,,,,,,,
31616528,,,,-0.991524,0.0016469973,-0.3419188,,,,
31616529,-0.101808205,-2.8198378,13.297102,,,,3.247507,3.4962416,-46.42872,
31616532,-0.23835048,-2.8102558,13.452807,,,,,,,
31616533,,,,-0.74651337,-0.07984567,-0.35629985,,,,
31616534,-0.37728822,-2.776719,13.510299,,,,,,,
31616537,-0.5521581,-2.7216232,13.450412,,,,,,,
31616538,,,,-0.47540382,-0.16346884,-0.35789773,,,,
31616539,-0.6647457,-2.6329904,13.201282,,,,5.245865,3.2572517,-44.673836,
31616542,-0.7581693,-2.5539396,12.827588,,,,,,,
31616543,,,,-0.20269635,-0.25135309,-0.34671247,,,,
31616544,-0.8803387,-2.460516,12.3892145,,,,,,,
31616547,-0.961785,-2.3503242,12.041871,,,,,,,
31616548,,,,0.03272689,-0.34562892,-0.32487458,,,,
31616549,,,,,,,3.2481842,1.750495,-44.860847,
31616550,-0.98573977,-2.2137816,11.627453,,,,,,,
31616552,-1.0312538,-2.070053,11.174707,,,,,,,
31616553,,,,0.23406169,-0.45002475,-0.29078615,,,,
31616555,-0.9833443,-1.9335107,10.717171,,,,,,,
31616557,-1.0552087,-1.761036,10.257238,,,,,,,
31616558,,,,0.40716702,-0.5453658,-0.2460451,,,,
31616559,,,,,,,3.0940819,1.3175154,-44.08584,
31616560,-1.0647905,-1.6244938,9.689511,,,,,,,
31616562,-1.0096946,-1.5095109,9.018777,,,,,,,
31616563,,,,0.54352075,-0.61460793,-0.19331454,,,,
31616565,-0.9713669,-1.4376466,8.324088,,,,,,,
31616567,-0.90908444,-1.3322455,7.6629357,,,,,,,
31616568,,,,0.6330029,-0.65402263,-0.13951874,,,,
31616569,,,,,,,2.63035,4.813585,-46.459328,
31616570,-0.84201103,-1.2124716,7.05688,,,,,,,
31616572,-0.66714114,-1.0950931,6.5035243,,,,,,,
31616573,,,,0.6692218,-0.66840374,-0.094777666,,,,
31616575,-0.5832994,-0.948969,6.010056,,,,,,,
31616576,,,,,,,,,,9.0
31616577,-0.44436163,-0.8196131,5.5237737,,,,,,,
31616578,,,,0.65910184,-0.6641427,-0.06228712,,,,
31616579,,,,,,,3.4011059,2.9228377,-45.489677,
31616580,-0.31261033,-0.69983923,5.12852,,,,,,,
31616582,-0.20481378,-0.58006525,4.682961,,,,,,,
31616583,,,,0.6164913,-0.6444353,-0.036188163,,,,
31616585,-0.12336751,-0.50341,4.3859215,,,,,,,
31616587,-0.025152892,-0.4099863,4.0601363,,,,,,,
31616588,,,,0.54778177,-0.60182476,-0.014350263,,,,
31616589,,,,,,,3.4015636,2.3378334,-45.173363,
31616590,0.03233859,-0.34051743,3.8972437,,,,,,,
31616592,0.13773966,-0.31177166,3.7798655,,,,,,,
31616593,,,,0.48173544,-0.5315173,0.0032265834,,,,
31616595,0.18564922,-0.3093762,3.6792552,,,,,,,
31616597,0.2215814,-0.26625755,3.6361368,,,,,,,
31616598,,,,0.42101544,-0.4431005,0.020803431,,,,
31616599,,,,,,,2.6315498,3.0608902,-45.355644,
31616600,0.25990906,-0.25188467,3.5858319,,,,,,,
31616602,0.29823667,-0.25188467,3.6433234,,,,,,,
31616603,,,,0.37254596,-0.3403026,0.0319887,,,,
31616605,0.31500506,-0.2423028,3.7319558,,,,,,,
31616607,0.33416885,-0.19199774,3.722374,,,,,,,
31616608,,,,0.34378386,-0.23058045,0.046369758,,,,
31616609,,,,,,,3.2477818,2.0453138,-44.864265,
31616610,0.31740057,-0.19918418,3.7295604,,,,,,,
31616612,0.31979603,-0.1967887,3.7654927,,,,,,,
31616613,,,,0.32780486,-0.10647725,0.06447923,,,,
31616615,0.29584128,-0.22792992,3.7175832,,,,,,,
31616617,0.30063218,-0.31895813,3.7056055,,,,,,,
31616618,,,,0.31928277,0.035202798,0.088980295,,,,
31616619,,,,,,,3.7114315,1.7343359,-46.396782,
31616620,0.26230454,-0.3357264,3.7295604,,,,,,,
31616622,0.25751355,-0.34051743,3.7511199,,,,,,,
31616623,,,,0.31182593,0.19232918,0.11827504,,,,
31616625,0.24074522,-0.36926314,3.7894473,,,,,,,
31616626,,,,,,,,,,10.0
31616627,0.14971703,-0.36926314,3.8469388,,,,,,,
31616628,,,,0.30223855,0.35691237,0.15129821,,,,
31616629,,,,,,,3.2474346,2.0499458,-44.554802,
31616630,0.101807475,-0.38363603,4.014622,,,,,,,
31616632,0.073061705,-0.36447218,4.1272097,,,,,,,
31616633,,,,0.29851013,0.52362615,0.18272348,,,,
31616635,-0.01796645,-0.28781685,4.2948933,,,,,,,
31616637,-0.073062465,-0.3093762,4.450599,,,,,,,
31616638,,,,0.31076065,0.6791546,0.21574664,,,,
31616639,,,,,,,1.558075,1.6970196,-46.759438,
31616640,-0.111390114,-0.34291288,4.5703735,,,,,,,
31616642,-0.15211326,-0.36926314,4.639842,,,,,,,
31616643,,,,0.3331312,0.8091168,0.25143299,,,,
31616645,-0.16169517,-0.42675462,4.6973333,,,,,,,
31616647,-0.07545793,-0.4602913,4.7308702,,,,,,,
31616648,,,,0.34697962,0.88102204,0.27753195,,,,
31616649,,,,,,,4.017887,1.7552195,-45.306038,
31616650,-0.010780022,-0.4842461,4.618283,,,,,,,
31616652,0.075457215,-0.5417377,4.567978,,,,,,,
31616653,,,,0.34058803,0.8959357,0.2887172,,,,
31616655,0.1880447,-0.5632969,4.4865313,,,,,,,
31616657,0.29584128,-0.61120653,4.4865313,,,,,,,
31616658,,,,0.32034802,0.8613147,0.28126037,,,,
31616659,,,,,,,4.3237457,3.0865707,-45.31385,
31616660,0.36770558,-0.66630244,4.4697633,,,,,,,
31616662,0.46112925,-0.7285849,4.4673676,,,,,,,
31616663,,,,0.30010805,0.7915399,0.25622666,,,,
31616665,0.5018524,-0.7860763,4.5631866,,,,,,,
31616667,0.56413484,-0.76451707,4.6110964,,,,,,,
31616668,,,,0.29637963,0.7036557,0.22267085,,,,
31616669,,,,,,,3.4022598,2.3285685,-45.792305,
31616670,0.62881273,-0.8100312,4.635051,,,,,,,
31616673,0.6527675,-0.8148221,4.7524295,0.30863014,0.6029883,0.18751717,,,,
31616675,0.655163,-0.8339859,4.8314805,,,,,,,
31616678,0.6383947,-0.8507544,4.9320903,,,,,,,
31616679,,,,0.3432512,0.4884724,0.14916767,3.865368,0.28805923,-44.67379,
31616680,0.66234946,-0.79326284,4.958441,,,,,,,
31616683,0.6407901,-0.8339859,4.9871864,,,,,,,
31616684,,,,0.386927,0.37022817,0.11667715,,,,
31616685,0.6791178,-0.8148221,4.9776044,,,,,,,
31616688,0.71744543,-0.8052403,4.9105315,,,,,,,
31616689,,,,0.43699437,0.25358182,0.08525187,4.636261,0.42166138,-46.358574,
31616690,0.7437957,-0.79805374,4.7045197,,,,,,,
31616693,0.770146,-0.7333758,4.4913225,,,,,,,
31616694,,,,0.48652914,0.14599022,0.057022393,,,,
31616695,0.7557731,-0.6567205,4.2757297,,,,,,,
31616698,0.7677505,-0.66390705,4.0888824,,,,,,,
31616699,,,,0.5222155,0.06662807,0.038912915,5.0963593,1.4605303,-46.359154,
31616700,0.74140024,-0.63276577,3.9020348,,,,,,,
31616703,0.7342138,-0.5896472,3.6888373,,,,,,,
31616704,,,,0.5515102,0.021887004,0.027195012,,,,
31616705,0.68390876,-0.61120653,3.5546906,,,,,,,
31616708,0.6144399,-0.6375568,3.5187583,,,,,,,
31616709,,,,0.57601124,0.012299633,0.016009746,4.3255024,2.0500746,-45.611336,
31616710,0.68390876,-0.5585059,3.3702385,,,,,,,
31616713,0.655163,-0.5105964,3.2241147,,,,,,,
31616714,,,,0.5962513,0.036268063,0.0016286881,,,,
31616715,0.6503721,-0.47226873,3.0444536,,,,,,,
31616718,0.6144399,-0.43873206,2.905516,,,,,,,
31616719,,,,0.6116976,0.09592281,-0.005295525,4.3283787,-0.30383873,-45.274467,
31616720,0.5258072,-0.40519533,2.7665782,,,,,,,
31616723,0.48029304,-0.40279987,2.7809508,,,,,,,
31616724,,,,0.6218176,0.17741548,-0.007426052,,,,
31616725,0.44915187,-0.41717276,2.7977192,,,,,,,
31616726,,,,,,,,,,12.0
31616728,0.32698244,-0.42915013,2.905516,,,,,,,
31616729,,,,0.6330029,0.26583233,-0.0095565785,4.326557,0.15460396,-44.19648,
31616730,0.2503271,-0.46747777,2.9510298,,,,,,,
31616733,0.13055322,-0.4602913,3.0612218,,,,,,,
31616734,,,,0.6420576,0.36277133,-0.0116871055,,,,
31616735,0.03712955,-0.46987328,3.1905777,,,,,,,
31616738,-0.013175502,-0.553715,3.3630524,,,,,,,
31616739,,,,0.65910184,0.45757976,-0.014882896,5.0979614,-0.5869827,-45.252052,
31616740,-0.06348054,-0.6447432,3.5091763,,,,,,,
31616743,-0.16648611,-0.659116,3.7846563,,,,,,,
31616744,,,,0.68520075,0.541203,-0.0116871055,,,,
31616745,-0.22876856,-0.70223475,3.9547353,,,,,,,
31616748,-0.2694917,-0.6878618,4.2445884,,,,,,,
31616749,,,,0.7230177,0.59659666,-0.004762893,4.3282585,-0.5917072,-44.806847,
31616750,-0.25272334,-0.6974437,4.5176725,,,,,,,
31616753,-0.33177415,-0.75014424,4.876994,,,,,,,
31616754,,,,0.7794766,0.6045862,0.0016286881,,,,
31616755,-0.3389606,-0.74774873,5.1740336,,,,,,,
31616758,-0.31500578,-0.85554516,5.353695,,,,,,,
31616759,,,,0.855643,0.55664927,0.008020269,5.560854,-1.4667501,-45.385124,
31616760,-0.24793239,-0.9130367,5.499819,,,,,,,
31616763,-0.25990978,-0.9872966,5.4902368,,,,,,,
31616764,,,,0.94299453,0.4581124,0.01441185,,,,
31616765,-0.26470074,-1.0543699,5.3273444,,,,,,,
31616768,-0.18804543,-1.1238389,5.039887,,,,,,,
31616769,,,,1.013302,0.32442185,0.017075008,5.0978413,-0.8748522,-44.78443,
31616770,-0.09462176,-1.1453983,4.6949377,,,,,,,
31616773,-0.07066698,-1.2004942,4.4625764,,,,,,,
31616774,,,,1.0532494,0.18913339,0.012281323,,,,
31616775,-0.039525762,-1.2364264,4.2445884,,,,,,,
31616776,,,,,,,,,,14.0
31616778,-0.039525762,-1.2148671,3.9691083,,,,,,,
31616779,,,,1.0639019,0.07461755,0.0010960563,4.9449043,-1.0338621,-45.405464,
31616780,-0.09462176,-1.1980988,3.856521,,,,,,,
31616783,-0.13534491,-1.1525846,3.787052,,,,,,,
31616784,,,,1.0505861,-0.01859301,-0.008491315,,,,
31616786,-0.16409063,-1.0998842,3.727165,,,,,,,
31616788,-0.25990978,-1.0328107,3.6984193,,,,,,,
31616789,,,,1.0292809,-0.097955145,-0.00689342,4.484001,-1.4830923,-45.41172,
31616791,-0.27907363,-0.9657372,3.7367468,,,,,,,
31616793,-0.2694917,-0.88668644,3.767888,,,,,,,
31616794,,,,1.0042472,-0.15547936,0.005889742,,,,
31616796,-0.21439569,-0.893873,3.7822611,,,,,,,
31616798,-0.180859,-0.98011005,3.8852665,,,,,,,
31616799,,,,0.98240936,-0.18104568,0.024531854,5.560854,-1.4667501,-45.385124,
31616801,-0.09462176,-1.0208333,4.007436,,,,,,,
31616803,-0.025152892,-1.0280197,4.0960684,,,,,,,
31616804,,,,0.9674956,-0.15494673,0.034651857,,,,
31616806,0.05629337,-1.1286298,4.2445884,,,,,,,
31616808,0.11138937,-1.1717485,4.3763394,,,,,,,
31616809,,,,0.9760177,-0.06546461,0.039445546,5.408663,-1.92521,-46.312187,
31616811,0.075457215,-1.1310253,4.536836,,,,,,,
31616813,-0.008384541,-1.0615565,4.745243,,,,,,,
31616814,,,,0.99519247,0.08047649,0.048500285,,,,
31616816,0.0011973679,-1.0184379,4.956045,,,,,,,
31616818,-0.09701724,-1.0280197,5.087796,,,,,,,
31616819,,,,1.023422,0.25091866,0.07193608,4.9472675,-2.5125856,-45.697807,
31616821,-0.20481378,-1.0064604,5.3153667,,,,,,,
31616823,-0.22637309,-0.994483,5.5237737,,,,,,,
31616824,,,,1.0511187,0.4144366,0.10495924,,,,
31616826,-0.16409063,-1.0352061,5.665107,,,,,,,18.0
31616828,-0.14253134,-1.0280197,5.8232083,,,,,,,
31616829,,,,1.0857399,0.5529209,0.13531925,5.10178,-4.2559958,-44.12612,
31616831,-0.17127708,-0.9849011,5.9621463,,,,,,,
31616833,-0.19523187,-0.92022324,6.0843153,,,,,,,
31616834,,,,1.1166326,0.662643,0.1528961,,,,
31616836,-0.2575143,-0.7812855,6.177739,,,,,,,
31616838,-0.39645207,-0.6375568,6.273558,,,,,,,
31616839,,,,1.1400683,0.73188514,0.15928768,6.179392,-3.670864,-45.49897,
31616841,-0.5042486,-0.37884507,6.4340553,,,,,,,
31616843,-0.5904858,-0.13690174,6.5729933,,,,,,,
31616844,,,,1.1432642,0.7297546,0.16248347,,,,
31616846,-0.65995467,0.03796819,6.721513,,,,,,,
31616848,-0.72702813,0.25595674,6.7790046,,,,,,,
31616849,,,,1.1097083,0.62589145,0.16727716,6.6406155,-3.081172,-45.958626,
31616851,-0.7677513,0.34698492,6.788586,,,,,,,
31616853,-0.73421454,0.43561763,6.7646313,,,,,,,
31616854,,,,1.0271504,0.4245566,0.17952769,,,,
31616856,-0.74140096,0.40687189,6.70714,,,,,,,
31616858,-0.7054688,0.24397933,6.7430725,,,,,,,
31616859,,,,0.8891988,0.14865337,0.19444138,6.639452,-3.3551445,-44.5626,
31616861,-0.5521581,-0.024314255,6.795773,,,,,,,
31616863,-0.3054239,-0.38363603,6.8341002,,,,,,,
31616864,,,,0.7001145,-0.17039305,0.2082898,,,,
31616866,0.027547628,-0.84356785,6.922733,,,,,,,
31616868,0.324587,-1.3562002,7.126349,,,,,,,
31616869,,,,0.47374597,-0.49103737,0.2082898,6.17898,-4.2442865,-44.40899,
31616871,0.59527606,-1.8376914,7.365896,,,,,,,
31616873,0.8563832,-2.355115,7.679704,,,,,,,
31616874,,,,0.23938802,-0.72805846,0.17260347,,,,
31616876,1.050417,-2.7886965,8.019862,,,,,,,23.0
31616878,1.2396598,-3.1528094,8.417512,,,,,,,
31616879,,,,0.018878467,-0.81114906,0.0975024,5.100975,-3.666359,-44.132973,
31616881,1.3115242,-3.447453,8.8894205,,,,,,,
31616883,1.3402699,-3.6247187,9.5170355,,,,,,,
31616884,,,,-0.17446685,-0.6982311,0.0010960563,,,,
31616886,1.4624393,-3.7612607,10.20933,,,,,,,
31616888,1.6492866,-3.6893966,11.050143,,,,,,,
31616889,,,,-0.31401637,-0.42818683,-0.11927872,6.3384476,-6.487831,-46.70051,
31616891,1.5798178,-3.6295097,11.984379,,,,,,,
31616893,1.3067331,-3.4450576,13.139,,,,,,,
31616894,,,,-0.35715955,-0.082508825,-0.2513714,,,,
31616896,0.9689708,-3.2606058,14.28883,,,,,,,
31616899,0.58569413,-3.011476,15.522501,-0.27673215,0.2652997,-0.3408535,6.336012,-6.4554043,-44.53425,
31616901,0.29584128,-2.8437927,16.933437,,,,,,,
31616904,0.077852696,-2.7192276,18.361143,-0.09670263,0.50551665,-0.36109355,,,,
31616906,-0.23355952,-2.6449678,19.714588,,,,,,,
31616909,-0.66714114,-2.5587306,20.90035,0.13552481,0.5433335,-0.32593986,3.7210464,-5.051113,-46.627495,
31616911,-1.071977,-2.4221883,22.00227,,,,,,,
31616914,-1.297152,-2.2041998,22.888597,,,,,,,
31616915,,,,0.376807,0.37715238,-0.23752297,,,,
31616916,-1.5247225,-1.991002,23.149704,,,,,,,
31616919,-1.8960216,-1.8616463,23.0467,,,,5.255123,-4.3918047,-43.501686,
31616920,,,,0.61009973,0.1140323,-0.10489767,,,,
31616921,-2.1906655,-1.6316804,22.761639,,,,,,,
31616924,-2.4062586,-1.4687877,22.306496,,,,,,,
31616925,,,,0.81196713,-0.113401465,0.06234871,,,,
31616926,-2.5499873,-1.3801551,21.705233,,,,,,,
31616927,,,,,,,,,,25.0
31616929,-2.4206314,-1.2651721,20.907536,,,,5.719349,-4.999917,-45.185493,
31616930,,,,0.94778824,-0.25827733,0.26368353,,,,
31616931,-2.0852642,-1.2148671,19.970903,,,,,,,
31616934,-1.6636603,-1.2484037,19.04146,,,,,,,
31616935,,,,0.98613775,-0.2966268,0.4660836,,,,
31616936,-1.131864,-1.3202682,18.143154,,,,,,,
31616939,-0.60725415,-1.3801551,17.369415,,,,4.335573,-5.3203783,-45.525734,
31616940,,,,0.90411246,-0.22259095,0.63066685,,,,
31616941,-0.07785343,-1.449624,16.748985,,,,,,,
31616944,0.42519706,-1.545443,16.140535,,,,,,,
31616945,,,,0.72141975,-0.06333408,0.7462479,,,,
31616946,0.935434,-1.6388667,15.553642,,,,,,,
31616949,1.4001569,-1.6484486,15.151202,,,,3.8732243,-5.4608936,-44.607033,
31616950,,,,0.4774744,0.15184917,0.8021742,,,,
31616951,1.8816481,-1.6963582,14.985914,,,,,,,
31616954,2.3128343,-1.7849909,15.069756,,,,,,,
31616955,,,,0.19517958,0.38620713,0.80110896,,,,
31616956,2.6937153,-1.7873865,15.429077,,,,,,,
31616959,3.0362687,-1.8712283,15.9153595,,,,5.7223244,-6.0526257,-46.56611,
31616960,,,,-0.09137631,0.55718195,0.7419869,,,,
31616961,3.278212,-1.9742337,16.497461,,,,,,,
31616964,3.4674547,-2.0053751,17.081959,,,,,,,
31616965,,,,-0.35929006,0.6045862,0.6317321,,,,
31616966,3.6063924,-1.9311153,17.608961,,,,,,,
31616969,3.6303473,-1.7873865,18.14076,,,,6.3372307,-6.4716187,-45.617393,
31616970,,,,-0.60003966,0.52735454,0.48738885,,,,
31616971,3.6495113,-1.6963582,18.627043,,,,,,,
31616974,3.613579,-1.5741888,18.952826,,,,,,,
31616975,,,,-0.807766,0.36170605,0.3238709,,,,
31616976,3.5417144,-1.4352511,19.09416,,,,,,,
31616977,,,,,,,,,,28.0
31616979,3.4602683,-1.325059,19.206747,,,,5.719944,-6.3103848,-44.086952,
31616980,,,,-0.985665,0.16356707,0.15129821,,,,
31616981,3.26863,-1.169353,19.453482,,,,,,,
31616984,3.062619,-1.0160424,19.774475,,,,,,,
31616985,,,,-1.1443893,-0.025517223,-0.009023948,,,,
31616986,2.8685853,-0.80044925,20.184101,,,,,,,
31616989,2.597896,-0.61839294,20.574566,,,,4.953455,-6.79208,-45.95762,
31616990,,,,-1.2679598,-0.19755727,-0.140584,,,,
31616991,2.372721,-0.45070943,20.9267,,,,,,,
31616994,2.09245,-0.28542146,21.202179,,,,,,,
31616995,,,,-1.351583,-0.33976996,-0.23699035,,,,
31616996,1.776247,-0.13211077,21.37705,,,,,,,
31616999,1.546281,-0.009941369,21.480057,,,,6.3346024,-5.42354,-44.54624,
31617000,,,,-1.3904651,-0.43244788,-0.29451457,,,,
31617001,1.2731965,0.081086814,21.434542,,,,,,,
31617004,1.0599989,0.11941446,21.393818,,,,,,,
31617005,,,,-1.4016504,-0.4644058,-0.31102616,,,,
31617007,0.8468013,0.12660089,21.295605,,,,,,,
31617009,0.6719314,-0.01233685,21.166248,,,,5.5649815,-3.1137285,-47.06835,
31617010,,,,-1.3952588,-0.4361763,-0.29451457,,,,
31617012,0.5401801,-0.23272088,21.04887,,,,,,,
31617014,0.47550213,-0.43633655,20.957842,,,,,,,
31617015,,,,-1.3776821,-0.35468367,-0.2604261,,,,
31617017,0.37249655,-0.74535334,20.816507,,,,,,,
31617019,0.23834974,-1.0352061,20.679966,,,,4.0248184,-3.691967,-44.778496,
31617020,,,,-1.3526484,-0.23217833,-0.22900087,,,,
31617022,0.075457215,-1.3370365,20.574566,,,,,,,
31617024,-0.07545793,-1.5909572,20.332623,,,,,,,
31617025,,,,-1.3174946,-0.09156356,-0.1959777,,,,
31617027,-0.3054239,-1.8736237,20.136192,,,,,,,25.0
31617029,-0.4922712,-2.1299398,19.92539,,,,4.9486675,-4.4126883,-44.592415,
31617030,,,,-1.282341,0.036800694,-0.15603031,,,,
31617032,-0.79889244,-2.3670924,19.716984,,,,,,,
31617034,-1.1127001,-2.5180075,19.412758,,,,,,,
31617035,,,,-1.2668946,0.1273481,-0.102234505,,,,
31617037,-1.3690164,-2.565917,19.132488,,,,,,,
31617039,-1.572632,-2.5970583,18.840239,,,,4.6382656,-1.9206686,-45.24804,
31617040,,,,-1.2791451,0.16889338,-0.02127448,,,,
31617042,-1.8313438,-2.671318,18.488104,,,,,,,
31617044,-1.9247674,-2.7839055,18.207832,,,,,,,
31617045,,,,-1.3249514,0.16356707,0.08471924,,,,
31617047,-1.9343493,-2.8126514,18.006613,,,,,,,
31617049,-1.8505075,-2.7839055,17.805391,,,,5.410074,-2.9570732,-46.300194,
31617050,,,,-1.3915304,0.12521756,0.20562665,,,,
31617052,-1.6995924,-2.8198378,17.587404,,,,,,,
31617054,-1.3714119,-2.7934875,17.371809,,,,,,,
31617055,,,,-1.4527831,0.066095434,0.32440352,,,,
31617057,-0.9234573,-2.7168322,17.19215,,,,,,,
31617059,-0.37728822,-2.7144365,17.161007,,,,5.100178,-2.2084827,-45.233223,
31617060,,,,-1.5076442,-0.012734059,0.42240778,,,,
31617062,0.19283566,-2.7024593,17.175383,,,,,,,
31617064,0.7725414,-2.7336006,17.161007,,,,,,,
31617065,,,,-1.5348084,-0.10434672,0.4809973,,,,
31617067,1.4552529,-2.78151,17.036444,,,,,,,
31617069,2.061309,-2.8917022,16.875946,,,,6.1770763,-0.60075283,-47.237007,
31617070,,,,-1.5198947,-0.19223095,0.49750885,,,,
31617072,2.6937153,-2.9899168,16.655561,,,,,,,
31617074,3.3165398,-3.0977132,16.416016,,,,,,,
31617075,,,,-1.4783494,-0.25348362,0.46874672,,,,
31617077,3.934573,-3.2749786,16.126162,,,,,,,20.0
31617079,4.478347,-3.4067302,15.79319,,,,5.4039497,-0.8493357,-43.38424,
31617080,,,,-1.4144336,-0.2683973,0.3973741,,,,
31617082,5.012539,-3.5552497,15.450637,,,,,,,
31617084,5.4964247,-3.722933,15.14162,,,,,,,
31617085,,,,-1.337202,-0.23537412,0.28552142,,,,
31617087,5.910843,-3.8738482,14.770321,,,,,,,
31617089,6.200696,-4.0271587,14.348717,,,,2.9442024,-0.32948303,-45.61814,
31617090,,,,-1.2466545,-0.15707725,0.13425398,,,,
31617092,6.2845373,-4.163701,13.843271,,,,,,,
31617094,6.3156786,-4.257125,13.273147,,,,,,,
31617095,,,,-1.1678251,-0.035104595,-0.03725343,,,,
31617097,6.1983004,-4.3481526,12.734164,,,,,,,
31617099,5.9779167,-4.312221,12.1856,,,,5.5587845,0.2975254,-45.71514,
31617100,,,,-1.1140293,0.13533759,-0.21728298,,,,
31617102,5.59943,-4.2403564,11.646617,,,,,,,
31617104,5.077216,-4.1014185,11.217826,,,,,,,
31617105,,,,-1.0911261,0.3404008,-0.3855946,,,,
31617107,4.5478153,-3.8858254,10.9136,,,,,,,
31617109,3.9681098,-3.7181423,10.702798,,,,5.4064484,-0.30371094,-46.331017,
31617110,,,,-1.0953871,0.5550514,-0.5299378,,,,
31617112,3.3093534,-3.4977582,10.693215,,,,,,,
31617114,2.6505966,-3.282165,10.844131,,,,,,,
31617115,,,,-1.1103008,0.74093986,-0.6407252,,,,
31617117,1.9271619,-3.0090806,10.98786,,,,,,,
31617119,,,,,,,5.093731,2.508607,-45.288002,
31617120,1.2995467,-2.8437927,11.18908,-1.1118987,0.86344516,-0.71103257,,,,
31617122,0.6048579,-2.6785047,11.4118595,,,,,,,
31617125,0.0107792765,-2.4413521,11.546007,-1.0953871,0.90712106,-0.7445884,,,,
31617127,-0.49706215,-2.235341,11.593916,,,,,,,14.0
31617129,,,,,,,5.093731,2.508607,-45.288002,
31617130,-1.0120901,-1.9790248,11.706504,-1.062364,0.866641,-0.745121,,,,
31617132,-1.4169259,-1.7227086,11.792741,,,,,,,
31617135,-1.7283381,-1.4927425,11.912515,-1.0224167,0.74147254,-0.7222178,,,,
31617137,-1.9750724,-1.2268444,11.986774,,,,,,,
31617139,,,,,,,6.1706657,2.0896711,-44.792076,
31617140,-2.2265978,-1.0328107,11.998752,-0.96808815,0.5491924,-0.6801399,,,,
31617142,-2.3870947,-0.84356785,11.931679,,,,,,,
31617145,-2.578733,-0.6543251,11.941261,,,,,,,
31617146,,,,-0.89351976,0.31909552,-0.62368095,,,,
31617147,-2.734439,-0.52736473,11.898142,,,,,,,
31617149,,,,,,,6.479208,2.082759,-45.558144,
31617150,-2.8015125,-0.39561346,11.8478365,,,,,,,
31617151,,,,-0.7944502,0.081541754,-0.54644936,,,,
31617152,-2.8709812,-0.30458525,11.711295,,,,,,,
31617155,-2.9380548,-0.16804296,11.598707,,,,,,,
31617156,,,,-0.6671512,-0.14695725,-0.45323884,,,,
31617157,-2.9332638,-0.007545918,11.426233,,,,,,,
31617159,,,,,,,5.7085533,2.5248938,-44.808617,
31617160,-2.8877497,0.11701898,11.208243,,,,,,,
31617161,,,,-0.51322067,-0.3472268,-0.34990826,,,,
31617162,-2.899727,0.20325622,10.951928,,,,,,,
31617165,-2.7751622,0.31823918,10.674053,,,,,,,
31617166,,,,-0.3427785,-0.50169,-0.23059876,,,,
31617167,-2.63862,0.39968544,10.348267,,,,,,,
31617169,,,,,,,6.785471,3.1192918,-45.562523,
31617170,-2.4709365,0.3709397,9.948223,,,,,,,
31617171,,,,-0.16914055,-0.5949005,-0.10329977,,,,
31617172,-2.1738973,0.43082666,9.598483,,,,,,,
31617175,-1.9511176,0.47394526,9.306233,,,,,,,
31617176,,,,0.0023668825,-0.62366265,0.01760764,,,,
31617177,-1.7211516,0.45478147,9.004404,,,,,,,11.0
31617179,,,,,,,3.7099037,2.4783306,-45.94114,
31617180,-1.5295134,0.5002955,8.695387,,,,,,,
31617181,,,,0.16748273,-0.59330267,0.12626451,,,,
31617182,-1.2899655,0.5458096,8.393557,,,,,,,
31617185,-0.9977172,0.55299604,8.065376,,,,,,,
31617186,,,,0.31715226,-0.52299523,0.2200077,,,,
31617187,-0.82045174,0.6104876,7.746778,,,,,,,
31617189,,,,,,,5.4014034,2.513276,-45.280403,
31617190,-0.57850844,0.62965137,7.4497385,,,,,,,
31617191,,,,0.45403862,-0.42019737,0.29457617,,,,
31617192,-0.37489277,0.6320469,7.135931,,,,,,,
31617195,-0.19762734,0.68474734,6.826914,,,,,,,
31617196,,,,0.5797397,-0.30408365,0.35476354,,,,
31617197,0.017965704,0.6631881,6.53227,,,,,,,
31617199,,,,,,,4.6321144,3.0819745,-45.925194,
31617200,0.15929896,0.65839714,6.1992984,,,,,,,
31617201,,,,0.692125,-0.19223095,0.4042983,,,,
31617202,0.3030277,0.6152785,5.861536,,,,,,,
31617205,0.44675636,0.56257796,5.5405416,,,,,,,
31617206,,,,0.78373766,-0.09848778,0.44637623,,,,
31617207,0.6264173,0.5218549,5.2099657,,,,,,,
31617209,,,,,,,5.246727,2.37743,-44.354103,
31617210,0.71984094,0.5242503,4.9272995,,,,,,,
31617211,,,,0.8492514,-0.023386694,0.47140992,,,,
31617212,0.83242834,0.4715498,4.6110964,,,,,,,
31617215,0.92345667,0.48592266,4.357176,,,,,,,
31617216,,,,0.88653564,0.029876482,0.47886676,,,,
31617217,1.0049028,0.5218549,4.0793004,,,,,,,
31617219,,,,,,,5.095085,1.7669287,-45.58892,
31617220,0.99532104,0.5002955,3.8469388,,,,,,,
31617221,,,,0.8966556,0.05491017,0.47034463,,,,
31617222,1.0863491,0.5673689,3.5738544,,,,,,,
31617225,1.1941457,0.5242503,3.336702,,,,,,,
31617226,,,,0.88120925,0.045855433,0.44584358,,,,
31617227,1.2492416,0.5386232,3.0181034,,,,,,,
31617229,,,,,,,4.636051,-0.29916954,-45.26687,
31617230,1.3139197,0.5434141,2.6947138,,,,,,,
31617231,,,,0.8359356,0.009636473,0.40696147,,,,
31617233,1.325897,0.55539155,2.4623523,,,,,,,
31617235,1.3905749,0.5601825,2.196454,,,,,,,
31617236,,,,0.7608345,-0.03936565,0.35795936,,,,
31617238,1.4576483,0.59371924,2.0096068,,,,,,,
31617239,,,,,,,4.174204,0.56670094,-46.062218,
31617240,1.4792076,0.71109766,1.8395277,,,,,,,
31617241,,,,0.6702871,-0.08517198,0.30150038,,,,
31617243,1.5534675,0.7661936,1.7461041,,,,,,,
31617245,1.6157498,0.72307503,1.6646578,,,,,,,
31617246,,,,0.57920706,-0.122988835,0.24610665,,,,
31617248,1.5917951,0.65839714,1.6598668,,,,,,,
31617249,,,,,,,3.8696804,-0.49299526,-47.605156,
31617250,1.5582584,0.5865328,1.7029854,,,,,,,
31617251,,,,0.49505123,-0.15015304,0.1864519,,,,
31617253,1.4097388,0.30147082,1.6550759,,,,,,,
31617255,1.2875694,0.43561763,1.7748499,,,,,,,
31617256,,,,0.42154807,-0.17252357,0.12519926,,,,
31617258,1.2851739,0.6536062,1.9281604,,,,,,,
31617259,,,,,,,5.0963593,1.4605303,-46.359154,
31617260,1.270801,0.73026145,2.0024204,,,,,,,
31617261,,,,0.36562175,-0.18956779,0.083121344,,,,
31617263,1.2228913,0.82368517,2.1078215,,,,,,,
31617265,1.1773773,0.8045213,2.1701038,,,,,,,
31617266,,,,0.32407644,-0.20235096,0.067675024,,,,
31617268,1.1677954,0.7494253,2.2371774,,,,,,,
31617269,,,,,,,5.4064484,-0.30371094,-46.331017,
31617270,1.0983264,0.7063067,2.3449738,,,,,,,
31617271,,,,0.28412908,-0.2114057,0.06341397,,,,
31617273,0.99532104,0.6152785,2.4336066,,,,,,,
31617275,0.9042927,0.54820514,2.5294256,,,,,,,
31617276,,,,0.25483432,-0.22418886,0.06288134,,,,
31617278,0.7605641,0.4643634,2.610872,,,,,,,12.0
31617279,,,,,,,5.097559,-0.29216576,-45.25547,
31617280,0.6863043,0.47634077,2.6851318,,,,,,,
31617281,,,,0.23832275,-0.23111306,0.06607713,,,,
31617283,0.5593439,0.40687189,2.804906,,,,,,,
31617285,0.41561514,0.43082666,2.8935382,,,,,,,
31617286,,,,0.23406169,-0.2215257,0.07832766,,,,
31617288,0.3605191,0.45238596,2.9390526,,,,,,,
31617289,,,,,,,5.096899,0.44024658,-45.57351,
31617290,0.2862593,0.45238596,2.97738,,,,,,,
31617291,,,,0.24045327,-0.19595936,0.09963293,,,,
31617293,0.2215814,0.4931091,2.9725893,,,,,,,
31617295,0.20241755,0.44519955,2.9701939,,,,,,,
31617296,,,,0.25696486,-0.15015304,0.12839504,,,,
31617298,0.20720854,0.39489448,2.9797757,,,,,,,
31617299,,,,,,,4.63715,-0.60325146,-45.882393,
31617300,0.27667743,0.33500752,3.0492446,,,,,,,
31617301,,,,0.28040066,-0.091030926,0.1582224,,,,
31617303,0.36291462,0.18888333,3.0228944,,,,,,,
31617305,0.44915187,0.04036367,3.0684083,,,,,,,
31617306,,,,0.30703226,-0.0074077426,0.17952769,,,,
31617308,0.5210162,-0.077014774,3.1642275,,,,,,,
31617309,,,,,,,5.713516,0.14318657,-46.328545,
31617310,0.53538907,-0.218348,3.2911878,,,,,,,
31617311,,,,0.34751227,0.10817335,0.18591927,,,,
31617313,0.59288055,-0.3309355,3.5762498,,,,,,,
31617315,0.61683536,-0.42915013,3.8062158,,,,,,,
31617316,,,,0.41089544,0.23440708,0.17686453,,,,
31617318,0.6144399,-0.5632969,4.0912776,,,,,,,
31617319,,,,,,,4.9451237,0.55521107,-47.590553,
31617320,0.6455811,-0.6902572,4.3020797,,,,,,,
31617321,,,,0.48652914,0.3505208,0.15236346,,,,
31617323,0.68869966,-0.8148221,4.5799546,,,,,,,
31617325,0.6479766,-0.9465735,4.809921,,,,,,,
31617326,,,,0.5712176,0.43733978,0.11241609,,,,
31617328,0.6527675,-0.97292376,5.0470734,,,,,,,
31617329,,,,,,,6.327965,0.30919838,-45.696144,
31617330,0.56892574,-1.0160424,5.298599,,,,,,,
31617331,,,,0.6654934,0.48208085,0.06288134,,,,
31617333,0.48029304,-0.98011005,5.4734683,,,,,,,
31617335,0.3557282,-0.88429093,5.554915,,,,,,,
31617336,,,,0.7693566,0.4762219,0.014944481,,,,
31617338,0.2718864,-0.84835887,5.581265,,,,,,,
31617339,,,,,,,4.9419384,0.8870897,-45.118248,
31617340,0.209604,-0.76451707,5.67948,,,,,,,
31617341,,,,0.8748177,0.43041557,-0.019143952,,,,
31617343,0.09222555,-0.6878618,5.6315703,,,,,,,
31617346,0.07066625,-0.5848563,5.581265,0.9765504,0.34679237,-0.042579748,,,,
31617348,0.077852696,-0.50341,5.485446,,,,,,,
31617349,,,,,,,6.0200806,-0.41630173,-44.612038,
31617351,0.053897917,-0.4555004,5.3752537,1.0793482,0.22908077,-0.059091326,,,,
31617353,0.027547628,-0.43154564,5.2458982,,,,,,,
31617356,-0.00598906,-0.3453084,5.049469,1.1789504,0.093259655,-0.07240713,,,,
31617358,-0.044316724,-0.29260787,4.8314805,,,,,,,
31617359,,,,,,,4.947075,-1.4969349,-46.792915,
31617361,-0.09701724,-0.23032543,4.642237,1.2694978,-0.053214073,-0.07933134,,,,
31617363,-0.17846352,-0.045873553,4.323639,,,,,,,
31617366,-0.25990978,-0.06264192,4.0553455,,,,,,,
31617367,,,,1.3366095,-0.18424147,-0.094245024,,,,
31617368,-0.28865552,-0.11773792,3.822984,,,,,,,
31617369,,,,,,,6.6377964,-1.0174465,-45.982582,
31617371,-0.34135604,-0.11773792,3.6409278,,,,,,,
31617372,,,,1.3845463,-0.31367102,-0.09744082,,,,
31617373,-0.34375155,-0.13211077,3.4253347,,,,,,,
31617376,-0.3054239,-0.15846106,3.180996,,,,,,,
31617377,,,,1.4106452,-0.45215526,-0.077200815,,,,
31617378,-0.2024183,-0.19199774,2.910307,,,,,,,15.0
31617379,,,,,,,4.9459114,-1.7709074,-45.396904,
31617381,-0.13294941,-0.18720677,2.6204538,,,,,,,
31617382,,,,1.4165043,-0.58424795,-0.05056922,,,,
31617383,-0.029943839,-0.19439322,2.265923,,,,,,,
31617386,0.046711475,-0.18960229,1.8083866,,,,,,,
31617387,,,,1.3893399,-0.7115469,-0.036188163,,,,
31617388,0.104202926,-0.15127462,1.3772004,,,,,,,
31617389,,,,,,,5.7150097,-1.3239546,-45.847237,
31617391,0.2000221,-0.08899215,1.0178787,,,,,,,
31617392,,,,1.3158368,-0.8303238,-0.033525005,,,,
31617393,0.3533327,-0.06503737,0.71125746,,,,,,,
31617396,0.41801065,-0.024314255,0.5004553,,,,,,,
31617397,,,,1.195462,-0.93525225,-0.047373433,,,,
31617398,0.5809032,0.049945578,0.3782859,,,,,,,
31617399,,,,,,,4.4845963,-2.793559,-44.31318,
31617401,0.5377846,0.124205425,0.3998452,,,,,,,
31617402,,,,1.0644345,-1.0162123,-0.07293976,,,,
31617403,0.22637233,0.22960648,0.70646644,,,,,,,
31617406,0.41561514,0.2152336,0.74479413,,,,,,,
31617407,,,,0.9445924,-1.0566925,-0.08412502,,,,
31617408,0.66234946,0.12660089,0.70646644,,,,,,,
31617409,,,,,,,4.640236,-2.236333,-46.63723,
31617411,0.83003294,0.05234106,0.6753253,,,,,,,
31617412,,,,0.8401966,-1.0449746,-0.09797345,,,,
31617413,0.99532104,-0.06264192,0.68490714,,,,,,,
31617416,1.1270722,-0.20637062,0.71604836,,,,,,,
31617417,,,,0.7533777,-0.97040594,-0.13259453,,,,
31617418,1.2899649,-0.35968128,0.7208393,,,,,,,
31617419,,,,,,,4.4897327,-5.1775837,-45.987846,
31617421,1.3953658,-0.49143258,0.8286359,,,,,,,
31617422,,,,0.67614603,-0.827128,-0.1842598,,,,
31617423,1.4600438,-0.6040201,0.88612735,,,,,,,
31617426,1.495976,-0.723794,1.0418334,,,,,,,
31617427,,,,0.6148934,-0.6199342,-0.23858824,,,,
31617428,1.5271173,-0.84596336,1.2143079,,,,,,,21.0
31617429,,,,,,,3.2569103,-4.0100403,-45.56774,
31617431,1.5822133,-0.92022324,1.3556411,,,,,,,
31617432,,,,0.5728155,-0.35628155,-0.2865251,,,,
31617433,1.5917951,-1.0280197,1.6143528,,,,,,,
31617436,1.6157498,-1.1358162,1.9569062,,,,,,,
31617437,,,,0.560565,-0.035104595,-0.3317988,,,,
31617438,1.5726312,-1.1933078,2.4072564,,,,,,,
31617439,,,,,,,5.103409,-3.6987877,-46.299232,
31617441,1.5199307,-1.2364264,3.1402729,,,,,,,
31617442,,,,0.58826184,0.31909552,-0.379203,,,,
31617443,1.6373092,-1.2867314,4.4961133,,,,,,,
31617446,1.4145298,-1.1957033,6.6376715,,,,,,,
31617447,,,,0.69745135,0.6093799,-0.42980304,,,,
31617448,0.8491968,-0.944178,9.200832,,,,,,,
31617449,,,,,,,3.4108295,-4.4429827,-45.094612,
31617451,0.1880447,-0.56808794,11.009419,,,,,,,
31617452,,,,0.93074405,0.6397399,-0.45590198,,,,
31617453,-0.13294941,-0.36447218,10.884855,,,,,,,
31617456,-0.13055395,-0.43154564,9.442777,,,,,,,
31617457,,,,1.1912009,0.43201345,-0.43193355,,,,
31617459,-0.11857656,-0.52736473,8.137241,,,,3.41288,-5.193926,-46.014442,
31617461,-0.15211326,-0.40519533,7.411411,,,,,,,
31617462,,,,1.3557842,0.25251657,-0.41382405,,,,
31617464,-0.31021482,-0.1416927,7.1119757,,,,,,,
31617466,-0.48748025,0.17690594,7.1047893,,,,,,,
31617467,,,,1.4628431,0.15504496,-0.4058346,,,,
31617469,-0.5952768,0.5362277,7.1335354,,,,4.3332043,-4.709896,-44.13999,
31617471,-0.796497,0.8835721,7.1598854,,,,,,,
31617472,,,,1.5672389,0.04159438,-0.37440932,,,,
31617474,-0.93303925,1.168634,7.128744,,,,,,,
31617476,-1.0695815,1.3363175,7.095207,,,,,,,
31617477,,,,1.6306221,-0.15068567,-0.31315666,,,,
31617478,,,,,,,,,,26.0
31617479,-1.2037283,1.4105774,6.8484735,,,,3.416504,-7.847288,-45.98362,
31617481,-1.1701916,1.4057864,6.6448574,,,,,,,
31617482,,,,1.596001,-0.4526879,-0.23539245,,,,
31617484,-1.1701916,1.3458996,6.247208,,,,,,,
31617486,-1.0623951,1.2740351,5.60522,,,,,,,
31617487,,,,1.4255589,-0.8223343,-0.17094402,,,,
31617489,-0.8563839,1.127911,4.8722034,,,,3.2593822,-6.0691338,-45.234306,
31617491,-0.69109595,0.99855506,4.1152325,,,,,,,
31617492,,,,1.1102409,-1.1728061,-0.14537768,,,,
31617494,-0.46831644,0.893154,3.322329,,,,,,,
31617496,-0.20481378,0.81410325,2.6276402,,,,,,,
31617497,,,,0.6750808,-1.4060988,-0.15336716,,,,
31617499,0.027547628,0.74463433,2.0886576,,,,4.187771,-7.863411,-47.821434,
31617501,0.34614623,0.56976444,1.6718442,,,,,,,
31617502,,,,0.1536343,-1.4279367,-0.17680296,,,,
31617504,0.6383947,0.30147082,1.3221045,,,,,,,
31617506,0.96178424,-0.14887914,1.1232797,,,,,,,
31617507,,,,-0.4034985,-1.1930461,-0.19810823,,,,
31617509,1.44088,-0.75253975,1.3077315,,,,3.874754,-6.2048893,-45.06266,
31617511,1.8816481,-1.3058952,2.0982394,,,,,,,
31617512,,,,-0.94625026,-0.7275259,-0.23113139,,,,
31617514,2.3080432,-1.8185278,3.5067809,,,,,,,
31617516,2.7009017,-2.2425272,5.5980334,,,,,,,
31617517,,,,-1.3776821,-0.15494673,-0.30463454,,,,
31617519,2.9093082,-2.5587306,8.1588,,,,3.2585678,-6.3477383,-44.147743,
31617521,2.9763818,-2.8485837,10.880064,,,,,,,
31617522,,,,-1.6040504,0.36330396,-0.419683,,,,
31617524,2.8542123,-3.03064,13.282729,,,,,,,
31617526,2.6937153,-3.1671822,15.436264,,,,,,,
31617527,,,,-1.6429327,0.71004725,-0.55869985,,,,
31617528,,,,,,,,,,31.0
31617529,2.3655348,-3.351634,17.929956,,,,3.874443,-5.477108,-45.690163,
31617531,2.0253768,-3.4690123,20.723083,,,,,,,
31617532,,,,-1.5364063,0.8762284,-0.68120515,,,,
31617534,1.6852187,-3.516922,22.862247,,,,,,,
31617536,1.2803829,-3.552854,24.196527,,,,,,,
31617537,,,,-1.2423936,0.8783589,-0.7632305,,,,
31617539,0.78930986,-3.4953625,24.941523,,,,3.8726292,-4.150427,-45.705574,
31617541,0.28386384,-3.301329,25.45655,,,,,,,
31617542,,,,-0.77580816,0.77928936,-0.78453577,,,,
31617544,-0.26709622,-2.9947076,26.112911,,,,,,,
31617546,-0.9426212,-2.6880863,26.843533,,,,,,,
31617547,,,,-0.21654476,0.58860725,-0.7419252,,,,
31617549,-1.5366999,-2.3790698,27.147758,,,,4.025936,-5.009383,-44.144157,
31617551,-1.9990273,-2.0413074,27.037565,,,,,,,
31617552,,,,0.34378386,0.27914813,-0.63806206,,,,
31617554,-2.3415804,-1.6891718,26.817183,,,,,,,
31617556,-2.5907104,-1.4136918,26.366833,,,,,,,
31617557,,,,0.81303245,-0.07558461,-0.476142,,,,
31617559,-2.7655802,-1.1310253,25.669748,,,,4.9483204,-4.4080553,-44.28295,
31617561,-2.9141,-0.8603362,24.740301,,,,,,,
31617562,,,,1.1597757,-0.37652156,-0.27107877,,,,
31617564,-2.923682,-0.61120653,23.59766,,,,,,,
31617567,-2.8182807,-0.41238174,22.335241,1.3765569,-0.5640079,-0.041514482,,,,
31617569,-2.6697612,-0.32854,21.072824,,,,2.6426277,-5.046609,-45.261482,
31617572,-2.2625299,-0.2087661,19.705006,1.4383421,-0.60182476,0.19976768,,,,
31617574,-1.7091743,-0.19918418,18.39947,,,,,,,
31617577,-1.0839543,-0.29739884,17.062794,1.3461968,-0.5006247,0.4154836,,,,
31617579,-0.35093796,-0.42196366,15.953687,,,,4.1799526,-4.1411247,-45.388496,
31617582,0.5090388,-0.5992291,14.990705,1.1208935,-0.30408365,0.57207733,,,,
31617584,1.3522472,-0.84117234,14.284039,,,,,,,
31617587,2.1906648,-1.0711384,13.831293,,,,,,,
31617588,,,,0.8045103,-0.0553446,0.65676576,,,,
31617589,3.0290823,-1.3202682,13.6157,,,,4.185749,-7.2575607,-46.74514,
31617592,3.7597032,-1.555025,13.651632,,,,,,,
31617593,,,,0.45403862,0.19392708,0.66155946,,,,
31617594,4.463974,-1.7754089,13.800152,,,,,,,
31617597,5.07003,-1.8760191,14.097191,,,,,,,
31617598,,,,0.08172902,0.3941966,0.5864584,,,,
31617599,5.5371485,-1.9502789,14.537959,,,,3.1051712,-5.9217434,-45.08509,
31617602,5.8749104,-1.9550699,15.124852,,,,,,,
31617603,,,,-0.28365636,0.510843,0.43891937,,,,
31617604,6.1120634,-1.8808099,15.788399,,,,,,,
31617607,6.2438145,-1.8161322,16.542974,,,,,,,
31617608,,,,-0.62134486,0.5337462,0.24557403,,,,
31617609,6.3420286,-1.8017591,17.252035,,,,4.0305862,-6.663311,-46.291588,
31617612,6.3037014,-1.7107311,18.028172,,,,,,,
31617613,,,,-0.908966,0.47089556,0.028260278,,,,
31617614,6.181532,-1.6316804,18.768373,,,,,,,
31617617,5.97073,-1.5765843,19.410362,,,,,,,
31617618,,,,-1.1214861,0.35211867,-0.19544508,,,,
31617619,5.6281767,-1.4568104,20.02121,,,,3.258915,-6.352371,-44.457207,
31617622,5.288018,-1.3418274,20.617683,,,,,,,
31617623,,,,-1.2626336,0.21363445,-0.4042367,,,,
31617624,4.887974,-1.2076806,21.04887,,,,,,,
31617627,4.451997,-1.1070704,21.506407,,,,,,,
31617628,,,,-1.3350714,0.08313965,-0.5784073,,,,
31617629,4.0232058,-1.0256243,21.937592,,,,3.2591248,-5.6315384,-45.548912,
31617632,3.6399293,-0.87710464,22.313683,,,,,,,
31617633,,,,-1.3553114,-0.021256167,-0.7094347,,,,
31617634,3.158438,-0.8339859,22.706541,,,,,,,
31617637,2.7104836,-0.74535334,23.257502,,,,,,,
31617638,,,,-1.3249514,-0.081443556,-0.7983842,,,,
31617639,2.2337832,-0.6495341,23.88272,,,,3.719637,-4.01925,-46.639473,
31617642,1.6540775,-0.4626868,24.392958,,,,,,,
31617643,,,,-1.2322735,-0.113401465,-0.84365785,,,,
31617644,1.0815581,-0.26865306,24.563038,,,,,,,
31617647,0.48029304,0.025990784,24.558247,,,,,,,
31617648,,,,-1.0889956,-0.12245621,-0.82608104,,,,
31617649,-0.05150315,0.3493804,24.711555,,,,2.3324566,-2.8470907,-45.75898,
31617652,-0.5353898,0.6775609,24.75228,,,,,,,
31617653,,,,-0.91695553,-0.10434672,-0.74086,,,,
31617654,-0.9282483,0.90992236,24.838518,,,,,,,
31617657,-1.292361,1.1063516,24.797794,,,,,,,
31617658,,,,-0.73745865,-0.092096195,-0.59704936,,,,
31617659,-1.407344,1.2189391,24.689999,,,,2.9462643,-2.961998,-44.194725,
31617662,-1.4145304,1.1806115,24.443264,,,,,,,
31617663,,,,-0.5659512,-0.105411984,-0.42554197,,,,
31617664,-1.4265078,1.0584421,24.024054,,,,,,,
31617667,-1.2708018,0.838058,23.513819,,,,,,,
31617668,,,,-0.41468376,-0.1240541,-0.25723034,,,,
31617669,-1.0599997,0.5506006,22.919739,,,,3.8718777,-3.850975,-45.39953,
31617672,-0.7605648,0.2487703,22.15079,,,,,,,
31617673,,,,-0.2959069,-0.12991305,-0.1155503,,,,
31617674,-0.47550285,-0.06982833,21.2453,,,,,,,
31617677,-0.18325448,-0.36447218,20.49312,,,,,,,
31617678,,,,-0.22986056,-0.11872778,-0.02180711,,,,
31617679,,,,,,,3.7173576,-2.9758043,-45.8778,
31617680,0.14253059,-0.6878618,19.669073,,,,,,,
31617682,0.41561514,-0.98011005,18.835447,,,,,,,
31617683,,,,-0.2138816,-0.093161464,0.016009746,,,,
31617685,0.66234946,-1.2364264,18.104826,,,,,,,
31617687,0.8539877,-1.4208782,17.338274,,,,,,,
31617688,,,,-0.2458395,-0.07771514,0.0037592151,,,,
31617689,,,,,,,2.7943668,-3.1349049,-45.74415,
31617690,1.0312531,-1.540652,16.617235,,,,,,,
31617692,1.1390496,-1.5238837,16.023157,,,,,,,
31617693,,,,-0.3294627,-0.09262883,-0.044710275,,,,
31617695,1.1462362,-1.4711832,15.419496,,,,,,,
31617697,1.1965411,-1.2699631,14.985914,,,,,,,
31617698,,,,-0.44877222,-0.14642462,-0.09957135,,,,
31617699,,,,,,,2.7964344,-4.8991814,-45.41413,
31617700,1.1965411,-1.0687429,14.554728,,,,,,,
31617702,1.2803829,-0.92980504,14.130728,,,,,,,
31617703,,,,-0.589387,-0.23058045,-0.14484505,,,,
31617705,1.3546427,-0.77889,13.81692,,,,,,,
31617707,1.3714111,-0.63037026,13.529463,,,,,,,
31617708,,,,-0.7273387,-0.33018258,-0.17786823,,,,
31617709,,,,,,,2.025589,-3.4413967,-45.759727,
31617710,1.4217161,-0.5249692,13.311474,,,,,,,
31617712,1.431298,-0.5010145,13.026412,,,,,,,
31617713,,,,-0.8546376,-0.42978472,-0.1975756,,,,
31617715,1.4672302,-0.46747777,12.698232,,,,,,,
31617717,1.5223262,-0.45310488,12.396401,,,,,,,
31617718,,,,-0.9696861,-0.4963637,-0.1975756,,,,
31617719,,,,,,,3.2556553,-1.9671593,-46.984306,
31617720,1.5989815,-0.4578959,12.106549,,,,,,,
31617722,1.7307329,-0.5561105,11.929283,,,,,,,
31617723,,,,-1.0676904,-0.50382054,-0.1826619,,,,
31617725,1.8960209,-0.66390705,11.696922,,,,,,,
31617727,1.9846535,-0.74774873,11.502888,,,,,,,
31617728,,,,-1.149183,-0.43564367,-0.16774821,,,,
31617729,,,,,,,3.1028538,-2.8516312,-46.823097,27.0
31617730,2.0229812,-0.893873,11.342391,,,,,,,
31617732,2.09245,-1.049579,11.1411705,,,,,,,
31617733,,,,-1.2088376,-0.2902352,-0.1554977,,,,
31617735,2.1403596,-1.2124716,10.925578,,,,,,,
31617737,2.1643145,-1.3777596,10.762685,,,,,,,
31617738,,,,-1.246122,-0.086237244,-0.1475082,,,,
31617739,,,,,,,3.098524,-1.0572443,-45.14158,
31617740,2.212224,-1.5286747,10.6788435,,,,,,,
31617742,2.2385743,-1.6460532,10.659679,,,,,,,
31617743,,,,-1.2605029,0.1625018,-0.1475082,,,,
31617745,2.171501,-1.761036,10.772266,,,,,,,
31617747,2.0876594,-1.9191378,10.8968315,,,,,,,
31617748,,,,-1.250383,0.424024,-0.1640198,,,,
31617749,,,,,,,2.6403675,-2.2666826,-46.686623,
31617750,1.9487214,-1.9766291,11.095656,,,,,,,
31617752,1.7235464,-2.0580757,11.325623,,,,,,,
31617753,,,,-1.1976525,0.668502,-0.19704297,,,,
31617755,1.4456708,-2.0317254,11.58673,,,,,,,
31617757,1.1965411,-2.0173526,11.967611,,,,,,,
31617758,,,,-1.1156272,0.85918415,-0.22793561,,,,
31617759,,,,,,,2.329691,-1.0735502,-45.470055,
31617760,0.8899199,-1.9670473,12.214345,,,,,,,
31617762,0.6144399,-1.8975784,12.382029,,,,,,,
31617763,,,,-1.0027093,0.95505786,-0.2513714,,,,
31617765,0.36291462,-1.8664373,12.4419155,,,,,,,
31617767,0.104202926,-1.8329004,12.401193,,,,,,,
31617768,,,,-0.8791387,0.9401442,-0.26255667,,,,
31617769,,,,,,,2.9443588,0.68153477,-47.022728,
31617770,-0.111390114,-1.6652169,12.355678,,,,,,,
31617772,-0.3030284,-1.4687877,12.293396,,,,,,,
31617773,,,,-0.75450283,0.8352157,-0.26095876,,,,
31617775,-0.47789833,-1.389737,12.240696,,,,,,,
31617777,-0.6168361,-1.3130817,12.154458,,,,,,,
31617778,,,,-0.6293344,0.6589146,-0.24657772,,,,
31617779,,,,,,,3.4046764,0.55965996,-45.77175,23.0
31617780,-0.76535577,-1.2148671,11.972402,,,,,,,
31617782,-0.8707568,-1.1286298,11.732854,,,,,,,
31617783,,,,-0.5004375,0.4293503,-0.22846824,,,,
31617785,-0.9761579,-1.0519744,11.383114,,,,,,,
31617787,-1.0623951,-0.893873,11.019001,,,,,,,
31617788,,,,-0.3747364,0.17688286,-0.19704297,,,,
31617789,,,,,,,4.331005,-1.3519154,-46.34562,
31617790,-1.1366549,-0.75493515,10.604584,,,,,,,
31617793,-1.1797736,-0.6399523,10.113511,-0.25595954,-0.065997235,-0.14537768,,,,
31617795,-1.0839543,-0.58246076,9.6224375,,,,,,,
31617798,-1.0072991,-0.54413307,9.174483,-0.1563574,-0.27052784,-0.08625556,,,,
31617799,,,,,,,3.0962524,0.85444164,-45.473305,
31617800,-0.9210619,-0.52736473,8.702574,,,,,,,
31617803,-0.7725422,-0.52976024,8.304925,-0.06900577,-0.4175342,-0.027133426,,,,
31617805,-0.7150507,-0.57287884,7.952789,,,,,,,
31617808,-0.71025974,-0.44352302,7.603049,0.0060953046,-0.50169,0.026662381,,,,
31617809,,,,,,,4.3299446,-0.3246851,-46.667076,
31617810,-0.7078643,-0.30458525,7.2509136,,,,,,,
31617813,-0.65995467,-0.16085654,6.953874,,,,,,,
31617814,,,,0.06841322,-0.5331152,0.08791503,,,,
31617815,-0.6623502,0.01640886,6.6664166,,,,,,,
31617818,-0.7030733,0.17451046,6.4077053,,,,,,,
31617819,,,,0.11635008,-0.51766896,0.15662453,4.323818,1.7830515,-43.75112,
31617820,-0.6192316,0.29188892,6.1681576,,,,,,,
31617823,-0.5449717,0.4044764,5.9334,,,,,,,
31617824,,,,0.15097114,-0.4542858,0.24078034,,,,
31617825,-0.46112996,0.44519955,5.7273893,,,,,,,
31617828,-0.27188718,0.4715498,5.6291747,,,,,,,
31617829,,,,0.18239641,-0.3488247,0.32600144,3.249998,0.42381287,-44.845436,20.0
31617830,-0.22876856,0.42843118,5.5022144,,,,,,,
31617833,-0.14253134,0.45717692,5.360881,,,,,,,
31617834,,,,0.21648484,-0.21992779,0.4027004,,,,
31617835,-0.044316724,0.42843118,5.2411075,,,,,,,
31617838,0.0059883296,0.38052163,5.164452,,,,,,,
31617839,,,,0.25323644,-0.082508825,0.4730078,2.1746101,-0.91457653,-44.547157,
31617840,0.09462103,0.37573066,5.099774,,,,,,,
31617843,0.19523114,0.33261204,4.989582,,,,,,,
31617844,,,,0.28839013,0.052779645,0.53213,,,,
31617845,0.30781865,0.337403,4.972813,,,,,,,
31617848,0.3916604,0.38052163,5.0662374,,,,,,,
31617849,,,,0.32887015,0.1758176,0.5816647,5.4055786,-0.29212952,-45.55735,
31617850,0.48987502,0.4188493,5.0566554,,,,,,,
31617853,0.5305981,0.40208092,5.099774,,,,,,,
31617854,,,,0.37787226,0.26956075,0.61681837,,,,
31617855,0.6575585,0.3709397,5.157265,,,,,,,
31617858,0.7294228,0.38770807,5.236316,,,,,,,
31617859,,,,0.43273333,0.33294395,0.63226473,5.4055786,-0.29212952,-45.55735,
31617860,0.7773324,0.38052163,5.2890167,,,,,,,
31617863,0.82524204,0.35656685,5.2890167,,,,,,,
31617864,,,,0.4945186,0.36809763,0.63492787,,,,
31617865,0.91387475,0.34698492,5.25548,,,,,,,
31617868,1.0120893,0.38770807,5.15487,,,,,,,
31617869,,,,0.55896705,0.37289134,0.6264058,6.0217037,-0.727334,-45.69175,
31617870,1.0240668,0.34219396,5.0470734,,,,,,,
31617873,1.0863491,0.35417137,4.9225082,,,,,,,
31617874,,,,0.6186218,0.3638366,0.6093615,,,,
31617875,1.2516371,0.27991152,4.627865,,,,,,,
31617878,1.3426654,0.24637482,4.3978987,,,,,,,
31617879,,,,0.6697545,0.3419987,0.58379525,3.8679981,-0.76001835,-45.74494,
31617880,1.4384845,0.2607477,4.148769,,,,,,,
31617883,1.5750268,0.28470248,3.861312,,,,,,,
31617884,,,,0.70171237,0.32122603,0.53958684,,,,
31617885,1.601377,0.23439743,3.5403175,,,,,,,
31617888,1.6948006,0.227211,3.2408829,,,,,,,
31617889,,,,0.70703864,0.3041818,0.47354043,4.635931,-0.58703804,-44.799248,
31617890,1.7475013,0.24158387,2.900725,,,,,,,
31617893,1.7522922,0.25356126,2.4671433,,,,,,,
31617894,,,,0.67561346,0.27968076,0.39577618,,,,
31617895,1.7594786,0.27272508,2.0790756,,,,,,,
31617898,1.7834334,0.29907534,1.7365222,,,,,,,
31617899,,,,0.5994471,0.23653762,0.30629405,4.1773796,-3.383233,-44.004463,
31617900,1.7355238,0.32303014,1.4610422,,,,,,,
31617903,1.7307329,0.17211498,1.2502401,,,,,,,
31617904,,,,0.4801376,0.16995865,0.21042034,,,,
31617906,1.7019871,-0.07222381,1.0921385,,,,,,,
31617908,1.6133543,0.27991152,1.0490198,,,,,,,
31617909,,,,0.32407644,0.07834596,0.10282872,4.484459,-2.0680952,-45.095406,
31617911,1.5390946,0.5889282,1.0586019,,,,,,,
31617913,1.4217161,0.8284761,0.97955096,,,,,,,
31617914,,,,0.16801535,-0.0217888,0.014944481,,,,
31617916,1.3330834,0.9338771,0.9412234,,,,,,,
31617918,1.2731965,0.9650184,0.9148731,,,,,,,
31617919,,,,0.030596366,-0.10860778,-0.041514482,4.9453526,-2.4871063,-43.995735,
31617921,1.1797727,0.9698093,1.0250651,,,,,,,
31617923,1.0288576,0.9123179,1.0586019,,,,,,,
31617924,,,,-0.08391946,-0.1746541,-0.08412502,,,,
31617926,0.8180555,0.91471326,1.2861723,,,,,,,
31617928,0.4563383,0.98418224,1.5736297,,,,,,,
31617929,,,,-0.16541213,-0.22418886,-0.10170187,4.1759815,-1.4831285,-45.109856,
31617931,0.43238348,0.7542163,1.6910081,,,,,,,
31617933,0.6479766,0.32303014,1.6790307,,,,,,,
31617934,,,,-0.21228372,-0.25880992,-0.103832394,,,,
31617936,0.6240218,0.20325622,1.8443187,,,,,,,
31617938,0.5210162,0.28470248,2.019189,,,,,,,
31617939,,,,-0.24104583,-0.26040784,-0.11927872,4.3288536,-1.902175,-43.70832,
31617941,0.44915187,0.3853126,2.2539456,,,,,,,
31617943,0.3940559,0.4380131,2.440793,,,,,,,
31617944,,,,-0.24157846,-0.22578676,-0.11981135,,,,
31617946,0.41082418,0.53383225,2.5581713,,,,,,,
31617948,0.44436085,0.4260357,2.6563861,,,,,,,
31617949,,,,-0.2170774,-0.1629362,-0.0937124,3.7151947,-1.6444902,-45.583733,
31617951,0.47310662,0.29188892,2.804906,,,,,,,
31617953,0.6240218,0.025990784,2.8384423,,,,,,,
31617954,,,,-0.18991317,-0.08357409,-0.06814607,,,,
31617956,0.8036827,-0.27344403,2.7977192,,,,,,,
31617958,0.9426204,-0.53694665,2.7330413,,,,,,,
31617959,,,,-0.1702058,0.00857121,-0.07453765,3.712513,-0.30622864,-44.825478,
31617961,1.0336486,-0.7812855,2.546194,,,,,,,
31617963,1.1821682,-1.0399971,2.3833015,,,,,,,
31617964,,,,-0.17979318,0.096988074,-0.11821345,,,,
31617966,1.2588236,-1.1525846,2.2515502,,,,,,,
31617968,1.2827784,-1.2172625,2.1581266,,,,,,,
31617969,,,,-0.2271974,0.19073127,-0.1874556,4.1763287,-1.4877615,-45.41932,
31617971,1.2228913,-1.2747539,2.0934486,,,,,,,
31617973,1.100722,-1.2172625,2.0431435,,,,,,,
31617974,,,,-0.28152585,0.30844286,-0.26841563,,,,
31617976,0.9474114,-1.1286298,2.095844,,,,,,,
31617978,0.7485867,-0.999274,2.165313,,,,,,,
31617979,,,,-0.32147324,0.44213346,-0.3302009,5.1001205,-1.9182978,-45.54612,
31617981,0.5832986,-0.89626837,2.2970643,,,,,,,
31617983,0.41801065,-0.8651272,2.5629623,,,,,,,
31617984,,,,-0.34437642,0.56570405,-0.36801773,,,,
31617986,0.3102141,-0.7860763,2.8887477,,,,,,,
31617988,0.16648537,-0.7812855,3.2911878,,,,,,,
31617989,,,,-0.33052796,0.6658388,-0.3808009,5.2522297,-1.02456,-45.088387,
31617991,0.041920513,-0.7860763,3.763097,,,,,,,
31617993,-0.113785595,-0.76451707,4.3164525,,,,,,,
31617994,,,,-0.26661214,0.72655886,-0.37334406,,,,
31617996,-0.25990978,-0.75014424,4.934486,,,,,,,
31617998,-0.39884752,-0.774099,5.5477285,,,,,,,
31617999,,,,-0.14623737,0.739342,-0.34937564,4.481024,-0.43038273,-44.031105,
31618001,-0.6168361,-0.74295783,6.117852,,,,,,,
31618003,-0.7941015,-0.6926527,6.5993433,,,,,,,
31618004,,,,0.015150045,0.6972641,-0.3067651,,,,
31618006,-1.0072991,-0.6950482,6.980224,,,,,,,
31618008,-1.18696,-0.5992291,7.2197723,,,,,,,
31618009,,,,0.21701747,0.60352093,-0.2481756,5.5590954,-0.43025398,-45.08764,
31618011,-1.3282932,-0.5848563,7.262891,,,,,,,
31618013,-1.4839993,-0.53934216,7.327569,,,,,,,
31618014,,,,0.43859228,0.4895377,-0.17360716,,,,
31618016,-1.6109596,-0.53455114,7.2389364,,,,,,,
31618019,-1.6564738,-0.5058055,7.1311398,0.6644281,0.38727236,-0.08519029,5.4063835,-0.8817644,-45.5505,
31618021,-1.7019879,-0.49622348,6.992202,,,,,,,
31618024,-1.7187562,-0.50341,6.8077497,0.8849377,0.306845,0.004291847,,,,
31618026,-1.7067788,-0.5105964,6.450824,,,,,,,
31618029,-1.6492873,-0.52976024,5.945378,1.0868051,0.24612498,0.09217609,5.4097633,-2.2292929,-46.927696,
31618031,-1.5606546,-0.5465286,5.3680673,,,,,,,
31618034,-1.4384853,-0.57287884,4.6925426,1.2327462,0.19179654,0.1662119,,,,
31618036,-1.2444514,-0.6423477,4.028995,,,,,,,
31618039,-1.0599997,-0.62318385,3.4444985,,,,5.4073277,-2.196865,-44.76142,
31618040,,,,1.3019884,0.13320705,0.2184098,,,,
31618041,-0.80607885,-0.63037026,2.8600018,,,,,,,
31618044,-0.57850844,-0.61120653,2.2970643,,,,,,,
31618045,,,,1.292401,0.06556281,0.23598665,,,,
31618046,-0.34135604,-0.57766986,1.805991,,,,,,,
31618049,-0.12576298,-0.5561105,1.3939688,,,,5.4088573,-2.9408588,-45.217064,
31618050,,,,1.2194304,-0.026582487,0.22799718,,,,
31618051,0.029943138,-0.48185065,0.9508052,,,,,,,
31618054,0.20241755,-0.4626868,0.65137047,,,,,,,
31618055,,,,1.0942619,-0.1528162,0.19923507,,,,
31618056,0.32219148,-0.45070943,0.43817288,,,,,,,
31618059,0.3988468,-0.498619,0.47889602,,,,5.562319,-2.7887983,-45.06025,
31618060,,,,0.93926615,-0.30301836,0.15236346,,,,
31618061,0.47310662,-0.37644956,0.5483649,,,,,,,
31618064,0.53538907,-0.25428018,0.6010654,,,,,,,
31618065,,,,0.7954555,-0.46334052,0.10016556,,,,
31618066,0.6024625,-0.18002033,0.59627444,,,,,,,
31618069,0.66714036,-0.11534244,0.5507604,,,,5.25494,-2.5079165,-45.69021,
31618070,,,,0.67454815,-0.6076837,0.054359235,,,,
31618071,0.7581686,-0.13450626,0.6250202,,,,,,,
31618074,0.82284653,-0.15606555,0.7208393,,,,,,,
31618075,,,,0.5802723,-0.7051553,0.017075008,,,,
31618076,0.83721936,-0.19199774,0.869359,,,,,,,
31618079,0.8563832,-0.25907114,1.1663984,,,,4.63962,-2.6623468,-45.548958,
31618080,,,,0.5200849,-0.7397764,-0.017013421,,,,24.0
31618081,0.8971064,-0.31895813,1.415528,,,,,,,
31618084,0.88273346,-0.36447218,1.7844317,,,,,,,
31618085,,,,0.5067692,-0.68171954,-0.047373433,,,,
31618086,0.8084736,-0.39561346,2.15094,,,,,,,
31618089,0.6767223,-0.42435917,2.7546005,,,,4.6407757,-3.2566156,-45.85157,
31618090,,,,0.55257547,-0.5208647,-0.07560292,,,,
31618091,0.5090388,-0.40279987,3.3606567,,,,,,,
31618094,0.34375083,-0.3357264,3.95234,,,,,,,
31618095,,,,0.6452534,-0.28810468,-0.08412502,,,,
31618096,0.29584128,-0.3141671,4.80513,,,,,,,
31618099,0.3102141,-0.4602913,6.0891066,,,,4.9478607,-3.8230515,-44.599266,
31618100,,,,0.77308506,-0.05587723,-0.07240713,,,,
31618101,0.053897917,-0.36447218,7.600653,,,,,,,
31618104,-0.21679117,-0.12252888,9.049918,,,,,,,
31618105,,,,0.9291462,0.027213322,-0.05323238,,,,
31618106,-0.5521581,0.16732404,9.73742,,,,,,,
31618109,-0.7461919,0.45717692,9.172088,,,,4.4892483,-4.447488,-46.46061,
31618110,,,,1.1038493,-0.056942496,-0.01648079,,,,
31618111,-0.63120896,0.6991203,8.151613,,,,,,,
31618114,-0.49945763,0.8500354,7.409015,,,,,,,
31618115,,,,1.2476599,-0.086237244,0.025597116,,,,
31618116,-0.39405656,0.9266907,6.8796144,,,,,,,
31618119,-0.37728822,1.108747,6.4891515,,,,5.2590313,-4.878042,-46.436485,
31618120,,,,1.3818831,0.04745333,0.060750812,,,,
31618121,-0.4491526,1.3051764,6.15618,,,,,,,
31618124,-0.48268926,1.448905,5.7034345,,,,,,,
31618125,,,,1.5150411,0.24719025,0.10762241,,,,
31618126,-0.4946667,1.4992101,5.1237288,,,,,,,
31618129,-0.45633903,1.5183738,4.5320454,,,,4.3382015,-6.368456,-46.596886,
31618130,,,,1.5944031,0.40697977,0.17739716,,,,30.0
31618132,-0.27188718,1.5159785,3.9954586,,,,,,,
31618134,-0.025152892,1.4992101,3.4995947,,,,,,,
31618135,,,,1.5528579,0.4852766,0.23225823,,,,
31618137,0.20481306,1.448905,3.2049506,,,,,,,
31618139,0.46112925,1.4057864,3.0013351,,,,5.1025944,-3.9773922,-45.21267,
31618140,,,,1.3866769,0.4698303,0.24291086,,,,
31618142,0.6120444,1.3794361,2.804906,,,,,,,
31618144,0.7485867,1.2620577,2.6707587,,,,,,,
31618145,,,,1.1331441,0.3819461,0.20722453,,,,
31618147,0.7725414,1.1614476,2.5533805,,,,,,,
31618149,0.770146,1.0560466,2.5390077,,,,6.0284595,-6.172205,-45.009468,
31618150,,,,0.82475036,0.27222395,0.1363845,,,,
31618152,0.66714036,0.95064545,2.6132674,,,,,,,
31618154,0.53538907,0.8356626,2.7833464,,,,,,,
31618155,,,,0.4923881,0.18220916,0.058087658,,,,
31618157,0.42519706,0.64162874,3.180996,,,,,,,
31618159,0.3964513,0.40926737,3.6696737,,,,5.412409,-7.040518,-43.312325,
31618160,,,,0.16268905,0.11669545,-0.010621842,,,,
31618162,0.324587,0.17211498,4.323639,,,,,,,
31618164,0.2718864,-0.08420122,5.118938,,,,,,,
31618165,,,,-0.14037843,0.05757333,-0.07293976,,,,
31618167,0.2647,-0.31656262,6.0651517,,,,,,,
31618169,0.22397688,-0.45310488,7.061671,,,,4.1813087,-4.882803,-45.689415,
31618170,,,,-0.40083537,-0.014331955,-0.13046399,,,,
31618172,0.17127633,-0.5944381,8.041422,,,,,,,
31618174,0.18564922,-0.70463014,8.867862,,,,,,,
31618175,,,,-0.6005723,-0.10487936,-0.17733559,,,,
31618177,0.14732155,-0.71900296,9.598483,,,,,,,
31618179,0.11138937,-0.7812855,10.305149,,,,5.104286,-5.591942,-44.729652,
31618180,,,,-0.74811125,-0.1831762,-0.2076956,,,,35.0
31618182,0.14013514,-0.7908673,11.035769,,,,,,,
31618184,0.15211254,-0.7836809,11.910119,,,,,,,
31618185,,,,-0.8429197,-0.23430885,-0.2210114,,,,
31618187,0.19044018,-0.80763566,12.942571,,,,,,,
31618189,0.1329487,-0.75972605,14.008559,,,,4.3332043,-4.709896,-44.13999,
31618190,,,,-0.8871281,-0.27585417,-0.21888088,,,,
31618192,0.06587529,-0.76212156,15.084128,,,,,,,
31618194,0.025152147,-0.79565835,16.114183,,,,,,,
31618195,,,,-0.85517025,-0.2950289,-0.20982613,,,,
31618197,-0.1473223,-0.8315904,17.014883,,,,,,,
31618199,-0.22397761,-0.8148221,17.738317,,,,4.9496746,-5.1497335,-44.583855,
31618200,,,,-0.7433176,-0.2817131,-0.19118401,,,,
31618202,-0.4275933,-0.7860763,18.32042,,,,,,,
31618204,-0.5809039,-0.6782799,18.76598,,,,,,,
31618205,,,,-0.5728754,-0.22365622,-0.1475082,,,,
31618207,-0.69109595,-0.5848563,19.127695,,,,,,,
31618209,-0.7893106,-0.4842461,19.54451,,,,3.410307,-4.436034,-44.63041,
31618210,,,,-0.38538903,-0.13364147,-0.07773344,,,,
31618212,-0.8635704,-0.3453084,19.843945,,,,,,,
31618214,-0.9042935,-0.32135358,19.99486,,,,,,,
31618215,,,,-0.20642477,-0.044691965,0.011748692,,,,
31618217,-1.0096946,-0.2423028,19.963718,,,,,,,
31618219,-0.9785533,-0.20637062,19.712194,,,,3.7196732,-6.0459156,-44.13978,
31618220,,,,-0.072201565,0.012299633,0.114013985,,,,
31618222,-0.9761579,-0.26625755,19.271423,,,,,,,
31618224,-0.91627085,-0.31656262,18.86659,,,,,,,
31618225,,,,-0.033319447,0.041061748,0.2184098,,,,
31618227,-0.8108699,-0.43873206,18.466543,,,,,,,
31618229,-0.6791185,-0.58725166,18.068893,,,,3.7178612,-4.7192345,-44.15519,
31618230,,,,-0.09989841,0.0570407,0.3073593,,,,
31618232,-0.5305989,-0.6974437,17.829346,,,,,,,
31618234,-0.29344648,-0.829195,17.632917,,,,,,,
31618235,,,,-0.2458395,0.07142176,0.37713408,,,,
31618237,-0.022757411,-0.97531927,17.529911,,,,,,,
31618239,0.21679044,-1.1238389,17.357437,,,,4.179083,-4.1295433,-44.61483,
31618240,,,,-0.44877222,0.10444492,0.42134252,,,,
31618242,0.42998803,-1.2364264,17.249641,,,,,,,
31618244,0.67432684,-1.3873415,17.086748,,,,,,,
31618245,,,,-0.69325024,0.1726218,0.43678886,,,,
31618247,0.9833436,-1.5789797,17.026861,,,,,,,
31618249,,,,,,,4.48888,-6.1793365,-43.964333,
31618250,1.2468462,-1.7179176,17.01249,-0.9574355,0.266365,0.42453828,,,,
31618252,1.551072,-1.8927876,17.113098,,,,,,,
31618255,1.8648798,-2.046098,17.321507,-1.2344041,0.36649975,0.39151514,,,,
31618257,2.106823,-2.1275446,17.707178,,,,,,,
31618259,,,,,,,2.7951546,-5.4610233,-43.550484,
31618260,2.2433653,-2.2832506,18.19346,-1.5017852,0.4597103,0.33026248,,,,
31618262,2.3607438,-2.4173973,18.79712,,,,,,,
31618265,2.44219,-2.5084255,19.436712,,,,,,,
31618266,,,,-1.73348,0.5348114,0.2519656,,,,
31618267,2.4350035,-2.6258042,20.234407,,,,,,,
31618269,,,,,,,4.336113,-6.34066,-44.74009,
31618270,2.387094,-2.769533,21.00096,,,,,,,
31618271,,,,-1.9140421,0.5864767,0.16674452,,,,
31618272,2.3248115,-2.9204478,21.810633,,,,,,,
31618275,2.212224,-3.0593855,22.581976,,,,,,,
31618276,,,,-2.018438,0.6136409,0.077262394,,,,
31618277,2.0732863,-3.2198825,23.336552,,,,,,,
31618279,,,,,,,3.7161388,-2.959591,-44.794655,
31618280,1.951117,-3.3851707,24.083942,,,,,,,31.0
31618281,,,,-2.0450697,0.622163,-0.011154475,,,,
31618282,1.8121791,-3.485781,24.860075,,,,,,,
31618285,1.6373092,-3.552854,25.593092,,,,,,,
31618286,,,,-2.0109813,0.612043,-0.094777666,,,,
31618287,1.3690156,-3.5863907,26.359646,,,,,,,
31618289,,,,,,,5.5605793,-2.7656355,-43.512917,
31618290,1.0647899,-3.4690123,27.09266,,,,,,,
31618291,,,,-1.907118,0.5955314,-0.16934611,,,,
31618292,0.6216263,-3.286956,27.78256,,,,,,,
31618295,0.19283566,-3.116877,28.350288,,,,,,,
31618296,,,,-1.7366759,0.561443,-0.22047876,,,,
31618297,-0.20720926,-2.874934,28.807823,,,,,,,
31618299,,,,,,,5.0977516,-1.3078136,-44.160362,
31618300,-0.65516376,-2.6809,29.188705,,,,,,,
31618301,,,,-1.515101,0.48687452,-0.22580509,,,,
31618302,-0.93543476,-2.3742788,29.50491,,,,,,,
31618305,-1.2684063,-2.2329457,29.617496,,,,,,,
31618306,,,,-1.258905,0.36703238,-0.17893349,,,,
31618307,-1.622937,-2.1059852,29.581564,,,,,,,
31618309,,,,,,,4.480961,-1.0084381,-43.250587,
31618310,-1.8385302,-1.9454879,29.449814,,,,,,,
31618311,,,,-0.991524,0.21683022,-0.08146187,,,,
31618312,-1.9343493,-1.7778045,29.068932,,,,,,,
31618315,-1.907999,-1.674799,28.597021,,,,,,,
31618316,,,,-0.7422523,0.09272702,0.058087658,,,,
31618317,-1.8049934,-1.6628214,28.072414,,,,,,,
31618319,,,,,,,6.174347,-0.85387707,-44.44837,
31618320,-1.6301235,-1.6244938,27.430424,,,,,,,
31618321,,,,-0.5158838,0.022419637,0.21201822,,,,
31618322,-1.3426661,-1.6173074,26.666267,,,,,,,
31618325,-1.0192765,-1.6987537,25.892529,,,,,,,
31618326,,,,-0.32679957,0.01762595,0.34783933,,,,
31618327,-0.7006779,-1.840087,25.171488,,,,,,,
31618329,,,,,,,4.9424686,-1.0014343,-43.23919,
31618330,-0.30063292,-1.9430925,24.426495,,,,,,,25.0
31618331,,,,-0.18139108,0.08100913,0.45223516,,,,
31618332,0.05868885,-2.05568,23.717434,,,,,,,
31618335,0.3533327,-2.2521093,23.063467,,,,,,,
31618336,,,,-0.06367946,0.1859376,0.5225426,,,,
31618337,0.6336037,-2.3646967,22.42627,,,,,,,
31618339,,,,,,,6.019678,-0.12148285,-44.61547,
31618340,0.935434,-2.4820755,21.762722,,,,,,,
31618341,,,,0.03219426,0.30151868,0.5534352,,,,
31618342,1.1198859,-2.6114311,21.010542,,,,,,,
31618345,1.3282925,-2.6689227,20.27513,,,,,,,
31618346,,,,0.08918586,0.3910008,0.54225,,,,
31618347,1.5079534,-2.7288096,19.52295,,,,,,,
31618349,,,,,,,6.02141,-1.012887,-45.06939,
31618350,1.5893996,-2.7072504,18.785141,,,,,,,
31618351,,,,0.097707964,0.42615452,0.49591094,,,,
31618352,1.7139645,-2.6569452,18.025776,,,,,,,
31618355,1.7403147,-2.599454,17.278385,,,,,,,
31618356,,,,0.042314265,0.38993555,0.41708145,,,,
31618358,1.8121791,-2.5371714,16.521416,,,,,,,
31618359,,,,,,,5.5590954,-0.43025398,-45.08764,
31618360,1.8696704,-2.510821,15.833913,,,,,,,
31618361,,,,-0.06900577,0.28607234,0.3105551,,,,
31618363,1.8624842,-2.4796798,15.086524,,,,,,,
31618365,1.8241565,-2.4557252,14.418185,,,,,,,
31618366,,,,-0.21441424,0.1342723,0.18751717,,,,
31618368,1.7930152,-2.3886516,13.79057,,,,,,,
31618369,,,,,,,6.174082,-1.284523,-43.66958,
31618370,1.666055,-2.2856462,13.282729,,,,,,,
31618371,,,,-0.38751957,-0.042028807,0.060750812,,,,
31618373,1.5103489,-2.0293298,12.738955,,,,,,,
31618375,1.2468462,-1.7849909,12.250277,,,,,,,
31618376,,,,-0.579267,-0.23377623,-0.04044922,,,,
31618378,1.0144848,-1.499929,11.833464,,,,,,,
31618379,,,,,,,5.0970917,-0.5754013,-44.478386,
31618380,0.7797278,-1.1861213,11.46456,,,,,,,23.0
31618381,,,,-0.7800692,-0.4228605,-0.0937124,,,,
31618383,0.63120824,-0.87710464,11.150753,,,,,,,
31618385,0.55694836,-0.6375568,10.889646,,,,,,,
31618386,,,,-0.9920566,-0.58265,-0.09850608,,,,
31618388,0.59048504,-0.4411275,10.523137,,,,,,,
31618389,,,,,,,4.0232697,-1.9346399,-45.572716,
31618390,0.65995395,-0.27344403,10.324313,,,,,,,
31618391,,,,-1.2003156,-0.68385005,-0.06708081,,,,
31618393,0.73900473,-0.23751184,10.118301,,,,,,,
31618395,0.8971064,-0.19199774,9.857194,,,,,,,
31618396,,,,-1.387802,-0.6891764,-0.019676583,,,,
31618398,1.0480216,-0.1752294,9.605669,,,,,,,
31618399,,,,,,,4.3282585,-0.5917072,-44.806847,
31618400,1.2013321,-0.22313896,9.464335,,,,,,,
31618401,,,,-1.5406673,-0.5821174,0.04104344,,,,
31618403,1.3833885,-0.35489032,9.373308,,,,,,,
31618405,1.486394,-0.46987328,9.38289,,,,,,,
31618406,,,,-1.6567811,-0.3861089,0.110285565,,,,
31618408,1.5702357,-0.62797487,9.366121,,,,,,,
31618409,,,,,,,5.244236,2.7000442,-42.500725,
31618410,1.7451057,-0.83877695,9.440381,,,,,,,
31618411,,,,-1.7350779,-0.13630462,0.1715382,,,,
31618413,1.8960209,-1.1166525,9.612856,,,,,,,
31618415,2.0684953,-1.3562002,9.854799,,,,,,,
31618416,,,,-1.7766232,0.12628284,0.21414874,,,,
31618418,2.2960658,-1.6053301,10.216516,,,,,,,
31618419,,,,,,,5.093813,2.073329,-44.818672,
31618420,2.4397945,-1.8209232,10.674053,,,,,,,
31618421,,,,-1.7766232,0.36649975,0.22480139,,,,
31618423,2.5188453,-2.050889,11.160335,,,,,,,
31618425,2.6002915,-2.2616913,11.567566,,,,,,,
31618426,,,,-1.7265558,0.55718195,0.19710454,,,,
31618428,2.6386192,-2.4437475,11.785555,,,,,,,
31618429,,,,,,,4.017212,0.75115204,-43.437263,
31618430,2.662574,-2.510821,11.965215,,,,,,,
31618431,,,,-1.640802,0.6961989,0.1363845,,,,18.0
31618433,2.7032971,-2.6329904,12.056244,,,,,,,
31618435,2.6961107,-2.7551599,12.132899,,,,,,,
31618436,,,,-1.5268189,0.7670389,0.05595713,,,,
31618438,2.6505966,-2.8893065,12.140085,,,,,,,
31618439,,,,,,,4.4774914,2.655943,-44.685997,
31618440,2.6314328,-2.9803348,12.228718,,,,,,,
31618441,,,,-1.3883346,0.7622452,-0.045775536,,,,
31618443,2.6146646,-3.0378263,12.231113,,,,,,,
31618445,2.5356138,-3.0881314,12.255068,,,,,,,
31618446,,,,-1.2354692,0.6892746,-0.16188927,,,,
31618448,2.4110487,-3.112086,12.178412,,,,,,,
31618449,,,,,,,4.323223,3.0935197,-44.849648,
31618450,2.3008568,-3.112086,12.073011,,,,,,,
31618451,,,,-1.0719513,0.5598451,-0.28812298,,,,
31618453,2.1044276,-3.0785494,11.845442,,,,,,,
31618455,1.946326,-3.0234532,11.565171,,,,,,,
31618456,,,,-0.908966,0.387805,-0.41169354,,,,
31618458,1.7546877,-2.9947076,11.323227,,,,,,,
31618459,,,,,,,6.0132885,4.305421,-44.357353,
31618460,1.6253318,-2.9276342,11.042955,,,,,,,
31618461,,,,-0.75503546,0.19872077,-0.5262093,,,,
31618463,1.4456708,-2.8198378,10.698007,,,,,,,
31618466,1.1342587,-2.695273,10.379409,-0.6154859,0.00857121,-0.63007253,,,,
31618468,0.9498069,-2.5826852,10.067997,,,,,,,
31618469,,,,,,,5.397505,3.8677535,-43.43902,
31618471,0.7006771,-2.4533296,9.754189,-0.482328,-0.17199095,-0.7120978,,,,
31618473,0.46352476,-2.2808552,9.402053,,,,,,,
31618476,0.21199948,-2.1179626,9.114595,-0.3528985,-0.32219312,-0.76589364,,,,
31618478,-0.04910767,-1.9670473,8.781625,,,,,,,
31618479,,,,,,,6.1655865,4.1835093,-42.804512,
31618481,-0.36291534,-1.7442678,8.48698,-0.23465425,-0.4345784,-0.7882642,,,,12.0
31618483,-0.63839537,-1.5238837,8.18036,,,,,,,
31618486,-0.93303925,-1.3657823,7.7946873,-0.12120369,-0.5086142,-0.7738831,,,,
31618488,-1.2636154,-1.1238389,7.4593205,,,,,,,
31618489,,,,,,,5.090994,4.137056,-44.842644,
31618491,-1.5438863,-0.9465735,7.155094,,,,,,,
31618492,,,,-0.012014176,-0.54376787,-0.7222178,,,,
31618493,-1.7618749,-0.8675227,6.788586,,,,,,,
31618496,-1.9798634,-0.75014424,6.340632,,,,,,,
31618497,,,,0.07427216,-0.54163736,-0.63220304,,,,
31618498,-2.197852,-0.58246076,5.8926773,,,,,,,
31618499,,,,,,,4.4753857,3.697072,-44.079033,
31618501,-2.367931,-0.5129919,5.5141916,,,,,,,
31618502,,,,0.13605745,-0.5027552,-0.5182199,,,,
31618503,-2.4948912,-0.43154564,5.1908026,,,,,,,
31618506,-2.6314335,-0.35728577,4.8554354,,,,,,,
31618507,,,,0.17600484,-0.4175342,-0.38879037,,,,
31618508,-2.7248573,-0.22313896,4.5967236,,,,,,,
31618509,,,,,,,5.092266,3.8306565,-45.612877,
31618511,-2.8374448,-0.18002033,4.438622,,,,,,,
31618512,,,,0.19464694,-0.30461627,-0.25403455,,,,
31618513,-2.954823,-0.07461932,4.290102,,,,,,,
31618516,-3.0530376,0.05234106,4.1631417,,,,,,,
31618517,,,,0.19944063,-0.18157831,-0.11661556,,,,
31618518,-3.0913656,0.14336924,4.0361814,,,,,,,
31618519,,,,,,,4.628132,4.87173,-44.553123,
31618521,-3.1967666,0.26314318,3.961922,,,,,,,
31618522,,,,0.1903859,-0.06759514,0.02985817,,,,
31618523,-3.2159302,0.39489448,3.8996394,,,,,,,
31618526,-3.2087438,0.49790007,3.8205886,,,,,,,
31618527,,,,0.16322167,0.025082795,0.17846242,,,,
31618528,-3.1608343,0.64162874,3.6936283,,,,,,,
31618529,,,,,,,4.166439,3.9988017,-43.3164,
31618531,-3.019501,0.7637982,3.6241593,,,,,,,11.0
31618532,,,,0.13179639,0.09752071,0.32120773,,,,
31618533,-2.8015125,0.72307503,3.6002045,,,,,,,
31618536,-2.6122696,0.72307503,3.588227,,,,,,,
31618537,,,,0.08971849,0.15717548,0.45915937,,,,
31618538,-2.3463714,0.6943293,3.5786452,,,,,,,
31618539,,,,,,,5.3983746,3.856172,-44.212685,
31618541,-2.11401,0.6104876,3.6648827,,,,,,,
31618542,,,,0.057760585,0.21203655,0.5752731,,,,
31618543,-1.8912306,0.51945937,3.7535152,,,,,,,
31618546,-1.5822139,0.4404086,3.8493342,,,,,,,
31618547,,,,0.039651103,0.260506,0.6674184,,,,
31618548,-1.301943,0.29667988,3.9164078,,,,,,,
31618549,,,,,,,5.2460766,3.9780831,-45.76554,
31618551,-1.0456268,0.19606978,3.961922,,,,,,,
31618552,,,,0.04071637,0.29033342,0.7297363,,,,
31618553,-0.7725422,0.14097376,3.9451535,,,,,,,
31618556,-0.44436163,0.05713202,3.9355717,,,,,,,
31618557,,,,0.049771108,0.30151868,0.76329213,,,,
31618558,-0.2024183,-0.03389615,3.95234,,,,,,,
31618559,,,,,,,6.3260155,2.3613443,-46.493782,
31618561,0.051502436,-0.09617859,3.9499445,,,,,,,
31618562,,,,0.059891112,0.30098605,0.7691511,,,,
31618563,0.324587,-0.1536701,3.937967,,,,,,,
31618566,0.53538907,-0.24948928,3.95234,,,,,,,
31618567,,,,0.083326906,0.2898008,0.74784577,,,,
31618568,0.71984094,-0.33333102,3.942758,,,,,,,
31618569,,,,,,,5.707155,4.4249983,-45.91401,
31618571,0.9042927,-0.43633655,3.9451535,,,,,,,
31618572,,,,0.11368691,0.27328917,0.7057679,,,,
31618573,1.0360441,-0.45310488,3.8876622,,,,,,,
31618576,1.1725863,-0.5417377,3.772679,,,,,,,
31618577,,,,0.1435143,0.24505973,0.6493089,,,,
31618579,1.2085185,-0.6016246,3.6433234,,,,6.1695213,3.5521803,-45.582863,
31618581,1.2875694,-0.67588437,3.4948037,,,,,,,
31618582,,,,0.16535221,0.20990603,0.58379525,,,,
31618584,1.3977613,-0.74295783,3.3103516,,,,,,,
31618586,1.4576483,-0.7309804,3.1546457,,,,,,,
31618587,,,,0.17280903,0.17208917,0.5113573,,,,
31618589,1.5103489,-0.75253975,3.010917,,,,6.1695213,3.5521803,-45.582863,
31618591,1.5247217,-0.79805374,2.8552108,,,,,,,
31618592,,,,0.16748273,0.14226179,0.43678886,,,,
31618594,1.5534675,-0.8267995,2.7019,,,,,,,
31618596,1.5558629,-0.9178277,2.5941036,,,,,,,
31618597,,,,0.15469956,0.12628284,0.3606225,,,,
31618599,1.551072,-0.92261875,2.5629623,,,,5.399994,3.5451398,-45.292397,
31618601,1.5055579,-0.93459606,2.5533805,,,,,,,
31618602,,,,0.13445956,0.11776071,0.28658667,,,,
31618604,1.4097388,-0.9777148,2.5533805,,,,,,,
31618606,1.321106,-0.9465735,2.6324313,,,,,,,
31618607,,,,0.115284815,0.1209565,0.21361612,,,,
31618609,1.2684056,-0.93220055,2.697109,,,,6.322775,2.983409,-44.33436,
31618611,1.105513,-0.9034549,2.821674,,,,,,,
31618612,,,,0.10037113,0.12361966,0.14863504,,,,
31618614,0.88752437,-0.85554516,2.982171,,,,,,,
31618616,0.7222364,-0.8603362,3.2193236,,,,,,,
31618617,,,,0.09451217,0.1225544,0.09643714,,,,
31618619,0.5186207,-0.80763566,3.5283403,,,,7.55196,3.600987,-43.69187,
31618621,0.33656436,-0.7285849,3.8110068,,,,,,,
31618622,,,,0.10409954,0.11669545,0.067675024,,,,
31618624,0.18325374,-0.7381668,4.117628,,,,,,,
31618626,0.017965704,-0.6567205,4.4074807,,,,,,,
31618627,,,,0.1403185,0.10870598,0.05968555,,,,
31618629,-0.029943839,-0.66869795,4.702124,,,,6.3201447,4.031486,-43.263206,
31618631,-0.113785595,-0.6543251,5.0015593,,,,,,,10.0
31618632,,,,0.21222378,0.09272702,0.06341397,,,,
31618634,-0.22397761,-0.659116,5.2219434,,,,,,,
31618636,-0.26470074,-0.66630244,5.4471183,,,,,,,
31618637,,,,0.3112933,0.060236488,0.0740666,,,,
31618639,-0.28386456,-0.6040201,5.535751,,,,5.7085533,2.5248938,-44.808617,
31618641,-0.291051,-0.62078834,5.6100106,,,,,,,
31618642,,,,0.42580912,0.0032448927,0.093773976,,,,
31618644,-0.28626004,-0.5968336,5.60522,,,,,,,
31618646,-0.20481378,-0.57527435,5.5381465,,,,,,,
31618647,,,,0.5488471,-0.06919303,0.120938204,,,,
31618649,-0.16169517,-0.62797487,5.4806547,,,,6.476984,2.836018,-44.483574,
31618651,-0.09222628,-0.6016246,5.260271,,,,,,,
31618652,,,,0.67081976,-0.14802252,0.14384136,,,,
31618654,0.013174772,-0.608811,5.1045647,,,,,,,
31618656,0.06827077,-0.6040201,4.9296947,,,,,,,
31618657,,,,0.7879987,-0.22791728,0.16248347,,,,
31618659,0.08983007,-0.6351613,4.7045197,,,,6.1706657,2.0896711,-44.792076,
31618661,0.20241755,-0.62318385,4.4793453,,,,,,,
31618662,,,,0.89026403,-0.29556152,0.17526664,,,,
31618664,0.26949096,-0.70463014,4.290102,,,,,,,
31618666,0.30781865,-0.70223475,4.086487,,,,,,,
31618667,,,,0.97708297,-0.35415104,0.18006031,,,,
31618669,0.3557282,-0.70463014,3.8397524,,,,6.787842,2.5088081,-46.94828,
31618671,0.32698244,-0.6471387,3.6744642,,,,,,,
31618672,,,,1.0489882,-0.40528366,0.17686453,,,,
31618674,0.35812366,-0.6064155,3.4109619,,,,,,,
31618676,0.434779,-0.63037026,3.0779903,,,,,,,
31618677,,,,1.0990556,-0.43990472,0.16674452,,,,
31618679,0.47789764,-0.61599743,2.7857418,,,,5.709076,2.5179453,-45.272804,
31618681,0.5066433,-0.5417377,2.5437987,,,,,,,11.0
31618682,,,,1.1256872,-0.45694894,0.15236346,,,,
31618684,0.434779,-0.53934216,2.2970643,,,,,,,
31618686,0.34614623,-0.58246076,1.9952339,,,,,,,
31618687,,,,1.1187631,-0.45002475,0.13585189,,,,
31618689,0.40842873,-0.47466418,1.8467143,,,,4.1717873,2.3356094,-46.082756,
31618692,0.52820265,-0.36926314,1.6646578,1.0894682,-0.4276542,0.12040557,,,,
31618694,0.59048504,-0.34291288,1.4778105,,,,,,,
31618697,0.6647449,-0.29260787,1.2646129,1.0441946,-0.38770682,0.11348135,,,,
31618699,0.74140024,-0.28302595,1.1568165,,,,5.709755,0.77219963,-43.704933,
31618702,0.72702736,-0.278235,1.0178787,0.99572515,-0.32432362,0.109220296,,,,
31618704,0.7006771,-0.26146665,0.9172685,,,,,,,
31618707,0.60964894,-0.28781685,0.8765454,0.9355377,-0.24762465,0.105491884,,,,
31618709,0.51382977,-0.31895813,0.86217254,,,,5.0984116,0.70958614,-47.279,
31618712,0.47550213,-0.3309355,0.9508052,,,,,,,
31618713,,,,0.870024,-0.1693278,0.100698195,,,,
31618714,0.374892,-0.32374904,1.0274606,,,,,,,
31618717,0.26949096,-0.36926314,1.084952,,,,,,,
31618718,,,,0.809304,-0.092096195,0.0991003,,,,
31618719,0.18325374,-0.3524948,1.2765903,,,,5.5587845,0.2975254,-45.71514,
31618722,0.09222555,-0.32374904,1.5065562,,,,,,,
31618723,,,,0.7645629,-0.015397219,0.100698195,,,,
31618724,0.051502436,-0.32374904,1.7101719,,,,,,,
31618727,0.0011973679,-0.37884507,1.9113921,,,,,,,
31618728,,,,0.73473555,0.048518594,0.10282872,,,,
31618729,0.022756696,-0.35489032,2.1748948,,,,6.3289165,-0.13766003,-46.000465,
31618731,,,,,,,,,,15.0
31618732,0.041920513,-0.3500993,2.4671433,,,,,,,
31618733,,,,0.72514814,0.08686807,0.11135083,,,,
31618734,0.020361215,-0.37884507,2.7857418,,,,,,,
31618737,0.051502436,-0.41717276,3.0396626,,,,,,,
31618738,,,,0.7288766,0.098053336,0.11987294,,,,
31618739,-0.003593579,-0.44831392,3.4133573,,,,5.4051113,-0.57536507,-44.78025,
31618742,-0.073062465,-0.4411275,3.7798655,,,,,,,
31618743,,,,0.7672261,0.09219439,0.12732978,,,,
31618744,-0.08024889,-0.49622348,4.15356,,,,,,,
31618747,-0.15690422,-0.4938281,4.464972,,,,,,,
31618748,,,,0.8407293,0.064497545,0.14490661,,,,
31618749,-0.26709622,-0.48664162,4.7668023,,,,4.944639,-1.4645071,-44.626656,
31618752,-0.31021482,-0.5010145,5.068633,,,,,,,
31618753,,,,0.9397988,0.010701737,0.16994031,,,,
31618754,-0.39405656,-0.52976024,5.3417172,,,,,,,
31618757,-0.41801137,-0.5105964,5.4902368,,,,,,,
31618758,,,,1.0580431,-0.07132355,0.20243084,,,,
31618759,-0.37728822,-0.44352302,5.581265,,,,4.9427433,0.29745293,-45.111397,
31618762,-0.3605199,-0.40759084,5.6100106,,,,,,,
31618763,,,,1.1810809,-0.16666463,0.23598665,,,,
31618764,-0.40842944,-0.39082244,5.5980334,,,,,,,
31618767,-0.40842944,-0.3141671,5.5980334,,,,,,,
31618768,,,,1.3041189,-0.25454888,0.26741192,,,,
31618769,-0.3389606,-0.25907114,5.497423,,,,6.4855156,-1.9088678,-46.28559,
31618772,-0.31500578,-0.23272088,5.3848357,,,,,,,
31618773,,,,1.4111779,-0.3232584,0.2940435,,,,
31618774,-0.29584196,-0.13211077,5.334531,,,,,,,
31618777,-0.20481378,-0.108155996,5.1812205,,,,,,,
31618778,,,,1.5027905,-0.37918472,0.31534877,,,,
31618779,-0.14253134,-0.10096955,5.0949826,,,,4.638403,-2.6461325,-44.465813,
31618781,,,,,,,,,,18.0
31618782,-0.03713028,-0.04347807,5.0207233,,,,,,,
31618783,,,,1.5651085,-0.4260563,0.32280564,,,,
31618784,0.05868885,0.061922967,4.9201126,,,,,,,
31618787,0.13534415,0.1601376,4.7715936,,,,,,,
31618788,,,,1.6007948,-0.4644058,0.3073593,,,,
31618789,0.22876784,0.32063466,4.5991187,,,,3.870121,-2.8144789,-45.102043,
31618792,0.32219148,0.47634077,4.3380117,,,,,,,
31618793,,,,1.5949359,-0.50435317,0.27593404,,,,
31618794,0.42519706,0.63923335,3.9834812,,,,,,,
31618797,0.46831566,0.8308716,3.6720688,,,,,,,
31618798,,,,1.5315527,-0.54909426,0.22693191,,,,
31618799,0.5473665,1.008137,3.2840014,,,,6.0240173,-3.7974443,-43.953728,
31618802,0.59527606,1.1710294,3.037267,,,,,,,
31618803,,,,1.4031885,-0.6002269,0.17366873,,,,
31618804,0.6695359,1.2620577,2.8025103,,,,,,,
31618807,0.7126545,1.3267356,2.5941036,,,,,,,
31618808,,,,1.211441,-0.6604142,0.123601355,,,,
31618809,,,,,,,5.717537,-3.673235,-45.200905,
31618810,0.765355,1.3458996,2.4431884,,,,,,,
31618812,0.8108691,1.3219447,2.3186235,,,,,,,
31618813,,,,0.96589774,-0.7211343,0.08045819,,,,
31618815,0.9090837,1.2021707,2.2491546,,,,,,,
31618817,0.9258522,1.0296963,2.265923,,,,,,,
31618818,,,,0.67454815,-0.76853853,0.048500285,,,,
31618819,,,,,,,3.7154446,-2.950325,-44.175728,
31618820,0.99532104,0.8452444,2.390488,,,,,,,
31618822,1.0623944,0.60330117,2.5988946,,,,,,,
31618823,,,,0.35177332,-0.7834522,0.025597116,,,,
31618825,1.151027,0.30147082,3.0157077,,,,,,,
31618827,1.1941457,-0.0051504374,3.686442,,,,,,,
31618828,,,,0.023139521,-0.7317869,0.008020269,,,,
31618829,,,,,,,2.9469585,-2.971264,-44.813652,
31618830,1.2372643,-0.3093762,4.618283,,,,,,,
31618832,1.2396598,-0.58246076,5.8783045,,,,,,,25.0
31618833,,,,-0.26607952,-0.60608584,-0.015415527,,,,
31618835,1.1725863,-0.96334183,7.4736934,,,,,,,
31618837,1.0049028,-1.2268444,9.184065,,,,,,,
31618838,,,,-0.488187,-0.44895947,-0.03831869,,,,
31618839,,,,,,,6.180334,-4.985965,-44.709892,
31618840,0.9042927,-1.3130817,10.666866,,,,,,,
31618842,0.8539877,-1.3274544,11.88856,,,,,,,
31618843,,,,-0.62347543,-0.30248573,-0.06495028,,,,
31618845,0.9330385,-1.3753641,12.952153,,,,,,,
31618847,1.095931,-1.3777596,13.967835,,,,,,,
31618848,,,,-0.66608596,-0.13683724,-0.08625556,,,,
31618849,,,,,,,3.4085484,-3.399538,-44.332924,
31618850,1.1917503,-1.4184828,15.036219,,,,,,,
31618852,1.2444508,-1.5119064,16.133348,,,,,,,
31618853,,,,-0.5888543,0.09166176,-0.104365036,,,,
31618855,1.2779874,-1.5574205,17.232872,,,,,,,
31618857,1.1893548,-1.6652169,18.231789,,,,,,,
31618858,,,,-0.3795301,0.33134604,-0.107028194,,,,
31618859,,,,,,,2.794073,-3.4204578,-45.121788,
31618860,1.0528125,-1.7634317,19.345684,,,,,,,
31618862,0.9522023,-1.9023694,20.263153,,,,,,,
31618863,,,,-0.08498472,0.49060294,-0.08572292,,,,
31618865,0.83242834,-2.0293298,21.072824,,,,,,,
31618867,0.655163,-2.1131716,21.918428,,,,,,,
31618868,,,,0.24791011,0.52202827,-0.048971325,,,,
31618869,,,,,,,3.8704681,-2.8191118,-45.411507,
31618870,0.5018524,-2.1491039,22.584372,,,,,,,
31618872,0.44436085,-2.1323354,23.008371,,,,,,,
31618873,,,,0.57920706,0.43467662,-0.0042302613,,,,
31618875,0.31260955,-2.0676577,23.037117,,,,,,,
31618877,0.17606732,-1.9239286,22.64905,,,,,,,
31618878,,,,0.8844051,0.28127867,0.045837127,,,,
31618879,,,,,,,2.9478836,-3.2730312,-45.27442,
31618880,0.073061705,-1.7586406,22.114859,,,,,,,
31618882,-0.00598906,-1.5765843,21.544733,,,,,,,
31618883,,,,1.1187631,0.13214178,0.10868767,,,,
31618885,-0.044316724,-1.5238837,20.967424,,,,,,,
31618887,0.08024815,-1.610121,20.263153,,,,,,,
31618888,,,,1.250323,-0.0058098473,0.19390874,,,,
31618889,,,,,,,1.868,-1.9464769,-44.2333,
31618890,0.25990906,-1.729895,19.590023,,,,,,,
31618892,0.55694836,-1.9694427,18.86659,,,,,,,
31618893,,,,1.2705631,-0.13310882,0.2833909,,,,
31618895,0.99532104,-2.2281547,18.009008,,,,,,,
31618897,1.44088,-2.4389565,17.01249,,,,,,,
31618898,,,,1.1587105,-0.22791728,0.34464356,,,,
31618899,,,,,,,3.719078,-4.735449,-45.238304,
31618900,1.8816481,-2.6258042,15.946501,,,,,,,
31618902,2.34158,-2.7839055,15.108083,,,,,,,
31618903,,,,0.91742826,-0.25667942,0.35636145,,,,
31618905,2.7488112,-2.8725383,14.310389,,,,,,,
31618907,3.158438,-2.9779394,13.804943,,,,,,,
31618908,,,,0.5797397,-0.2114057,0.3169467,,,,
31618909,,,,,,,2.641758,-5.0350275,-44.487816,
31618910,3.5321329,-3.035431,13.539044,,,,,,,
31618912,3.769285,-3.0977132,13.479157,,,,,,,
31618913,,,,0.19517958,-0.11553199,0.23918244,,,,
31618915,4.0783024,-3.1743686,13.666005,,,,,,,
31618917,4.279522,-3.2294645,14.01335,,,,,,,
31618918,,,,-0.19097845,0.004842788,0.13798241,,,,
31618919,,,,,,,5.413086,-6.0364494,-45.181114,
31618920,4.3753414,-3.2294645,14.497236,,,,,,,
31618922,4.4424143,-3.1336453,15.1032915,,,,,,,
31618923,,,,-0.54145014,0.12468493,0.022933958,,,,
31618925,4.39211,-3.0138717,15.776422,,,,,,,
31618928,4.313059,-2.8821201,16.463924,,,,,,,
31618929,,,,-0.83706075,0.22695024,-0.09797345,4.1787357,-4.1249104,-44.305367,
31618930,4.1238155,-2.7383916,17.17059,,,,,,,
31618932,,,,,,,,,,29.0
31618933,3.8818724,-2.6210132,17.853302,,,,,,,
31618934,,,,-1.0799408,0.29672498,-0.20822823,,,,
31618935,3.6303473,-2.5443578,18.545593,,,,,,,
31618938,3.4219408,-2.5132165,19.209143,,,,,,,
31618939,,,,-1.2711557,0.33773765,-0.3041019,4.022438,-3.9497252,-42.29934,
31618940,3.2806075,-2.5419624,20.002047,,,,,,,
31618943,3.053037,-2.570708,20.409277,,,,,,,
31618944,,,,-1.4037809,0.36010817,-0.39038828,,,,
31618945,2.8518167,-2.6258042,20.797344,,,,,,,
31618948,2.561964,-2.700064,21.379446,,,,,,,
31618949,,,,-1.484741,0.39845765,-0.46602198,2.793808,-3.8511028,-44.34298,
31618950,2.2098286,-2.685691,21.966337,,,,,,,
31618953,1.8433204,-2.6497588,22.529276,,,,,,,
31618954,,,,-1.509242,0.4447966,-0.52407885,,,,
31618955,1.4935805,-2.6042447,23.02514,,,,,,,
31618958,1.0911402,-2.589872,23.499443,,,,,,,
31618959,,,,-1.4783494,0.46716714,-0.55710196,3.4088955,-3.404171,-44.642387,
31618960,0.710259,-2.5156121,23.846788,,,,,,,
31618963,0.36291462,-2.4269793,24.134245,,,,,,,
31618964,,,,-1.4154989,0.4597103,-0.56402624,,,,
31618965,-0.027548373,-2.33116,24.28037,,,,,,,
31618968,-0.42998877,-2.1323354,24.388168,,,,,,,
31618969,,,,-1.3441262,0.4314808,-0.5432536,4.483589,-2.0565138,-44.32174,
31618970,-0.7749377,-2.0245388,24.483986,,,,,,,
31618973,-1.122282,-2.0221434,24.412123,,,,,,,
31618974,,,,-1.2743515,0.38673976,-0.48732728,,,,
31618975,-1.3762027,-1.9526745,24.361816,,,,,,,
31618978,-1.577423,-1.8496689,24.273184,,,,,,,
31618979,,,,-1.205642,0.33241132,-0.3941167,4.02503,-2.9711351,-45.8702,
31618980,-1.7307336,-1.830505,24.165388,,,,,,,
31618982,,,,,,,,,,26.0
31618983,-1.8049934,-1.8113412,24.033636,,,,,,,
31618984,,,,-1.1545093,0.28021342,-0.27427456,,,,
31618985,-1.7259426,-1.8424824,23.810856,,,,,,,
31618988,-1.5486772,-1.9071602,23.590471,,,,,,,
31618989,,,,-1.1182903,0.23014602,-0.15389979,6.3296223,-2.0284986,-44.276146,
31618990,-1.2037283,-1.9550699,23.298223,,,,,,,
31618993,-0.79889244,-2.0413074,23.041908,,,,,,,
31618994,,,,-1.0937892,0.17954601,-0.055362906,,,,
31618995,-0.3916611,-2.1562903,22.720913,,,,,,,
31618998,0.029943138,-2.3191829,22.428665,,,,,,,
31618999,,,,-1.0815387,0.13373968,-0.0031649978,4.3289185,-1.3241196,-44.488823,
31619000,0.4204061,-2.436561,22.146,,,,,,,
31619003,0.7437957,-2.5084255,21.89687,,,,,,,
31619004,,,,-1.0660925,0.10124913,0.006422374,,,,
31619005,1.0791627,-2.6281996,21.777096,,,,,,,
31619008,1.330688,-2.7024593,21.62139,,,,,,,
31619009,,,,-1.0426567,0.08633544,-0.02127448,6.020191,-0.9966736,-43.98626,
31619010,1.486394,-2.764742,21.530361,,,,,,,
31619013,1.6636595,-2.78151,21.412981,,,,,,,
31619014,,,,-1.0091008,0.06929123,-0.07613555,,,,
31619015,1.771456,-2.7982783,21.336329,,,,,,,
31619018,1.8193657,-2.8821201,21.159061,,,,,,,
31619019,,,,-0.95530504,0.030409113,-0.14591032,5.7134438,-1.3031082,-44.454628,
31619020,1.8672752,-2.9036796,20.960238,,,,,,,
31619023,1.9151847,-2.970753,20.701527,,,,,,,
31619024,,,,-0.894585,-0.038833015,-0.22260928,,,,
31619025,1.8984163,-3.03064,20.404486,,,,,,,
31619028,1.766665,-2.9827304,20.057142,,,,,,,
31619029,,,,-0.83706075,-0.122988835,-0.29664508,5.559637,-1.4505358,-44.301994,
31619031,1.6301228,-2.9228435,19.585232,,,,,,,
31619032,,,,,,,,,,21.0
31619033,1.4384845,-2.8437927,19.09416,,,,,,,
31619034,,,,-0.79338497,-0.2183299,-0.35097355,,,,
31619036,1.2013321,-2.6880863,18.557571,,,,,,,
31619038,0.9569932,-2.4461432,17.920376,,,,,,,
31619039,,,,-0.7827323,-0.30940995,-0.36482197,4.0204506,0.12908745,-45.596672,
31619041,0.7461912,-2.1562903,17.311924,,,,,,,
31619043,0.6359992,-1.825714,16.739405,,,,,,,
31619044,,,,-0.80670077,-0.3861089,-0.328603,,,,
31619046,0.6719314,-1.5717933,16.13814,,,,,,,
