Date created: 2021-10-22-22-16-6-492000000
Timestamp,acc_x,acc_y,acc_z,gyro_x,gyro_y,gyro_z,mag_x,mag_y,mag_z,light
33194678,,,,-0.030077195,0.0086099235,-0.0062960587,,,,
33194679,0.49706143,-0.37884507,10.937555,,,,,,,
33194682,0.47310662,-0.3500993,10.805804,,,,,,,
33194683,,,,0.0066743963,-0.04678378,-0.005230794,,,,
33194684,0.49227053,-0.33333102,10.695612,,,,-4.224455,-51.864014,-25.118301,
33194687,0.5425755,-0.3453084,10.606978,,,,,,,
33194688,,,,0.036501773,-0.08353537,-0.0036328998,,,,
33194689,0.544971,-0.35968128,10.41534,,,,,,,
33194692,0.5593439,-0.3309355,10.211725,,,,,,,
33194693,,,,0.0604702,-0.09685116,-9.697409E-4,,,,
33194694,0.57371676,-0.3500993,10.137465,,,,-2.9922104,-52.734417,-25.3871,
33194697,0.59527606,-0.36207673,10.03925,,,,,,,
33194698,,,,0.07485126,-0.08779643,0.007552367,,,,
33194699,0.6048579,-0.39561346,9.878754,,,,,,,
33194702,0.6144399,-0.35728577,9.780539,,,,,,,
33194703,,,,0.08177547,-0.069154315,0.01128079,,,,
33194704,0.6479766,-0.32854,9.6751375,,,,-5.452944,-52.490856,-26.379715,
33194707,0.6791178,-0.34291288,9.653579,,,,,,,
33194708,,,,0.07272073,-0.05477326,0.011813422,,,,
33194709,0.770146,-0.34051743,9.579319,,,,,,,
33194712,0.7605641,-0.3069807,9.466731,,,,,,,
33194713,,,,0.055676516,-0.053175364,0.008084999,,,,
33194714,0.7461912,-0.28063044,9.473918,,,,-3.9146576,-53.913803,-24.467796,
33194717,0.7294228,-0.24469826,9.414031,,,,,,,
33194718,,,,0.034371246,-0.052642733,0.0070197354,,,,
33194719,0.6934907,-0.22553441,9.299047,,,,,,,
33194722,0.6767223,-0.15127462,9.227184,,,,,,,
33194723,,,,0.007207028,-0.04252273,0.0070197354,,,,
33194724,0.6359992,-0.14648366,9.20802,,,,-5.452074,-52.502438,-27.153381,
33194727,0.59048504,-0.16564748,9.219996,,,,,,,
33194728,,,,-0.01942456,-0.009499556,0.01128079,,,,
33194730,0.53538907,-0.14887914,9.203229,,,,,,,
33194732,0.54976195,-0.12731981,9.227184,,,,,,,
33194733,,,,-0.046588782,0.03311098,0.016607108,,,,
33194734,,,,,,,-3.2979126,-53.054752,-26.783867,
33194735,0.56413484,-0.11055148,9.303839,,,,,,,
33194737,0.5066433,-0.12731981,9.363726,,,,,,,
33194738,,,,-0.07108984,0.073591,0.027792374,,,,
33194740,0.5162253,-0.105760545,9.459545,,,,,,,
33194742,0.5066433,-0.045873553,9.564946,,,,,,,
33194743,,,,-0.100384586,0.106614165,0.04110817,,,,
33194744,,,,,,,-4.068016,-52.76466,-26.342094,
33194745,0.46831566,-0.08420122,9.641601,,,,,,,
33194747,0.5258072,-0.079410255,9.790121,,,,,,,
33194748,,,,-0.12168986,0.13164786,0.053891335,,,,
33194750,0.55694836,-0.10096955,9.895522,,,,,,,
33194752,0.6216263,-0.11534244,9.948223,,,,,,,
33194753,,,,-0.13500565,0.14815944,0.062946066,,,,
33194754,,,,,,,-4.221361,-52.628853,-26.966537,
33194755,0.70786357,-0.14887914,10.079974,,,,,,,
33194757,0.770146,-0.17762488,10.194957,,,,,,,
33194758,,,,-0.1376688,0.15668155,0.065609224,,,,
33194760,0.8971064,-0.16804296,10.362639,,,,,,,
33194762,1.0025073,-0.22792992,10.477623,,,,,,,
33194763,,,,-0.1259509,0.15348576,0.061348174,,,,
33194764,,,,,,,-4.0672016,-52.486057,-27.428658,
33194765,1.0312531,-0.24709377,10.566256,,,,,,,
33194767,1.1486316,-0.21595255,10.721962,,,,,,,
33194768,,,,-0.10677617,0.1454963,0.048565015,,,,
33194770,1.1941457,-0.18720677,10.829759,,,,,,,
33194772,1.2037276,-0.18481132,10.906414,,,,,,,
33194773,,,,-0.075350896,0.13164786,0.03844501,,,,
33194774,,,,,,,-3.4528008,-53.911434,-24.76587,
33194775,1.2444508,-0.21595255,10.9495325,,,,,,,
33194777,1.2851739,-0.17762488,10.920787,,,,,,,
33194778,,,,-0.03700141,0.11194048,0.02939027,,,,
33194780,1.2971512,-0.23272088,10.911205,,,,,,,
33194782,1.2899649,-0.23272088,10.882459,,,,,,,
33194783,,,,8.154468E-4,0.089569956,0.019802896,,,,
33194784,,,,,,,-3.2984333,-53.047806,-26.319672,
33194785,1.2971512,-0.18960229,10.81299,,,,,,,
33194787,1.2276824,-0.20157966,10.73394,,,,,,,
33194788,,,,0.033838615,0.07891732,0.0064871036,,,,
33194790,1.160609,-0.18241584,10.645307,,,,,,,
33194792,1.095931,-0.1752294,10.604584,,,,,,,
33194793,,,,0.06366599,0.0751889,-0.0020350046,,,,
33194794,,,,,,,-3.3002453,-51.721127,-26.335083,
33194795,1.0384396,-0.11534244,10.503974,,,,,,,
33194797,0.9881345,-0.06264192,10.48481,,,,,,,
33194798,,,,0.08443864,0.074123636,-0.0046981634,,,,
33194800,0.88752437,-0.009941369,10.448878,,,,,,,
33194802,0.8132646,0.025990784,10.374618,,,,,,,
33194803,,,,0.10095022,0.06826468,9.552261E-5,,,,
33194804,,,,,,,-4.070471,-51.7189,-25.425674,
33194805,0.7485867,-0.01233685,10.331499,,,,,,,
33194807,0.68390876,-0.029105216,10.274008,,,,,,,
33194808,,,,0.110004954,0.052818358,0.008084999,,,,
33194810,0.6575585,0.01640886,10.089556,,,,,,,
33194812,0.6719314,0.009222448,10.017691,,,,,,,
33194813,,,,0.10840706,0.03257835,0.016607108,,,,
33194814,,,,,,,-2.8381157,-53.16968,-25.068703,
33194815,0.6503721,0.011617929,9.888336,,,,,,,
33194817,0.68151325,0.047550112,9.8404255,,,,,,,
33194818,,,,0.093493365,0.010740451,0.022466058,,,,
33194820,0.68151325,0.09066872,9.792516,,,,,,,
33194822,0.6407901,0.19127882,9.725443,,,,,,,
33194823,,,,0.07325336,-0.017489033,0.027259743,,,,
33194824,,,,,,,-5.453081,-51.765392,-27.161942,
33194825,0.63120824,0.21283811,9.708674,,,,,,,
33194828,0.6791178,0.2703296,9.703884,0.0503502,-0.049979575,0.03258606,,,,
33194830,0.7557731,0.23918839,9.794911,,,,,,,
33194833,0.82284653,0.25835222,9.881149,0.021055454,-0.084068,0.039510276,,,,
33194834,,,,,,,-2.373579,-54.50557,-26.125023,
33194835,0.86836064,0.22002456,9.917081,,,,,,,
33194838,0.88273346,0.2152336,9.953013,0.0018807102,-0.12028696,0.042706065,,,,
33194840,0.8420104,0.15295115,9.979363,,,,,,,
33194843,0.7773324,0.15774211,9.988946,-0.006108766,-0.15064697,0.042706065,,,,
33194844,,,,,,,-2.9911652,-52.748318,-26.315498,
33194845,0.8420104,0.17930141,10.005713,,,,,,,
33194848,0.95938873,0.21283811,10.10872,-0.0071740285,-0.17994171,0.044836592,,,,
33194850,1.1222814,0.2679341,10.144651,,,,,,,
33194853,1.2516371,0.29667988,10.16142,,,,,,,
33194854,,,,-0.0050435024,-0.22787857,0.04377133,-3.9176693,-50.834427,-25.586884,
33194855,1.2803829,0.29907534,10.103929,,,,,,,
33194858,1.3402699,0.25595674,10.024878,,,,,,,
33194859,,,,2.8281525E-4,-0.28060913,0.036847115,,,,
33194860,1.4504619,0.30147082,10.036855,,,,,,,
33194863,1.6468911,0.28709796,10.147047,,,,,,,
33194864,,,,0.008272292,-0.30830595,0.028325005,-3.451931,-53.923016,-25.539536,
33194865,1.6516821,0.24397933,10.094347,,,,,,,
33194868,1.6205409,0.30865726,10.0320635,,,,,,,
33194869,,,,0.023718612,-0.32907858,0.016074475,,,,
33194870,1.6588686,0.31105274,9.842822,,,,,,,
33194873,1.6900097,0.337403,9.617647,,,,,,,
33194874,,,,0.030110193,-0.3407965,0.0070197354,-4.5290966,-53.211575,-26.193619,
33194875,1.7259419,0.33979848,9.416426,,,,,,,
33194878,1.7475013,0.38052163,9.224788,,,,,,,
33194879,,,,0.024251245,-0.31096914,6.281544E-4,,,,
33194880,1.8169701,0.3709397,9.08585,,,,,,,
33194883,1.8648798,0.4499905,9.03315,,,,,,,
33194884,,,,2.8281525E-4,-0.25451016,-0.0068286904,-2.9918613,-52.73905,-25.696564,
33194885,1.941535,0.46675885,8.987636,,,,,,,
33194888,1.9870491,0.4380131,8.913376,,,,,,,
33194889,,,,-0.035403512,-0.20604067,-0.01801396,,,,
33194890,1.9774673,0.44280407,8.901398,,,,,,,
33194893,2.0253768,0.44280407,8.930144,,,,,,,
33194894,,,,-0.07322037,-0.15490802,-0.028666591,-4.222851,-53.911526,-24.0112,
33194895,1.9990265,0.37573066,8.908585,,,,,,,
33194898,1.9798627,0.40208092,8.954099,,,,,,,
33194899,,,,-0.10837407,-0.0856659,-0.03452554,,,,
33194900,1.931953,0.35177588,9.069082,,,,,,,
33194903,1.9079983,0.33979848,9.174483,,,,,,,
33194904,,,,-0.13500565,-0.012695347,-0.0355908,-3.9137516,-53.202236,-26.178421,
33194905,1.8576932,0.3589623,9.368517,,,,,,,
33194908,1.7786424,0.34219396,9.529014,,,,,,,
33194909,,,,-0.14672354,0.049622566,-0.03452554,,,,
33194910,1.7594786,0.35656685,9.624833,,,,,,,
33194913,1.7067782,0.34698492,9.730234,,,,,,,
33194914,,,,-0.15737617,0.09436364,-0.036656067,-2.8409367,-51.105957,-25.092667,
33194915,1.6253318,0.2703296,9.890731,,,,,,,
33194918,1.6205409,0.2152336,10.000923,,,,,,,
33194919,,,,-0.1658983,0.1188647,-0.036123432,,,,
33194920,1.5846087,0.19606978,10.106324,,,,,,,
33194923,1.5558629,0.21283811,10.278799,,,,,,,
33194924,,,,-0.17069197,0.13004997,-0.029731857,-4.2224216,-51.60162,-27.287994,
33194925,1.5630493,0.14336924,10.357849,,,,,,,
33194928,1.5678403,0.13378733,10.453669,,,,,,,
33194929,,,,-0.16962671,0.1305826,-0.023340276,,,,
33194930,1.546281,0.12660089,10.566256,,,,,,,
33194933,1.6037725,0.07390037,10.669262,,,,,,,
33194934,,,,-0.1493867,0.12845208,-0.013752902,-4.223118,-51.592354,-26.66906,
33194935,1.6229364,0.025990784,10.762685,,,,,,,
33194938,1.6948006,0.006826967,10.836945,,,,,,,
33194939,,,,-0.12808144,0.12685417,-0.0100244805,,,,
33194940,1.7594786,-0.031500697,10.892041,,,,,,,
33194943,1.8289475,-0.11534244,11.030979,,,,,,,
33194944,,,,-0.10198248,0.12632155,-0.014285535,-3.6076717,-53.031628,-24.934677,
33194945,1.9247665,-0.13450626,11.129193,,,,,,,
33194948,1.9391396,-0.1967887,11.265736,,,,,,,
33194949,,,,-0.06469826,0.1188647,-0.024938168,,,,
33194950,1.9702806,-0.2423028,11.349578,,,,,,,
33194953,1.9678853,-0.2423028,11.452583,,,,,,,
33194954,,,,-0.021555087,0.09862469,-0.045710806,-2.8386574,-52.1494,-25.854347,
33194956,2.001422,-0.24469826,11.483724,,,,,,,
33194958,2.0493314,-0.2638621,11.399883,,,,,,,
33194959,,,,0.018924925,0.06826468,-0.06701609,,,,
33194961,2.0541224,-0.21595255,11.318436,,,,,,,
33194963,2.046936,-0.2423028,11.251363,,,,,,,
33194964,,,,0.061002832,0.03896993,-0.0856582,-3.4544048,-51.863922,-25.87297,
33194966,2.0205858,-0.27344403,11.155544,,,,,,,
33194968,2.0181901,-0.29979423,11.030979,,,,,,,
33194969,,,,0.093493365,0.01713203,-0.108028725,,,,
33194971,2.0253768,-0.25188467,10.904018,,,,,,,
33194973,1.9870491,-0.21595255,10.798616,,,,,,,
33194974,,,,0.11639654,0.010207819,-0.12560557,-4.2199516,-53.660713,-26.954552,
33194976,1.951117,-0.21355706,10.781849,,,,,,,
33194978,1.8792524,-0.19199774,10.7051935,,,,,,,
33194979,,,,0.1392997,0.017664662,-0.14264978,,,,
33194981,1.8433204,-0.17283392,10.690821,,,,,,,
33194983,1.8002017,-0.16564748,10.7051935,,,,,,,
33194984,,,,0.16007236,0.030447824,-0.16075927,-3.3012905,-51.707226,-25.406677,
33194986,1.8217609,-0.163252,10.61177,,,,,,,
33194988,1.766665,-0.14408818,10.580628,,,,,,,
33194989,,,,0.17977972,0.037904665,-0.17620559,,,,
33194991,1.6804278,-0.12971532,10.58542,,,,,,,
33194993,1.6444956,-0.081805766,10.535115,,,,,,,
33194994,,,,0.19362815,0.034176245,-0.18685822,-4.2227707,-51.596985,-26.978523,
33194996,1.5917951,-0.04108259,10.5470915,,,,,,,
33194998,1.5726312,-0.055455476,10.535115,,,,,,,
33194999,,,,0.20268288,0.028317297,-0.19431508,,,,
33195001,1.5846087,-0.09617859,10.501577,,,,,,,
33195003,1.5917951,-0.06743288,10.393782,,,,,,,
33195004,,,,0.21067236,0.018729925,-0.20123929,-3.6046963,-54.084343,-26.315285,
33195006,1.5103489,-0.08420122,10.417736,,,,,,,
33195008,1.5151397,-0.06503737,10.3554535,,,,,,,
33195009,,,,0.21386816,0.009675187,-0.21135928,,,,
33195011,1.5343037,-0.06264192,10.300358,,,,,,,
33195013,1.4696257,-0.06743288,10.309939,,,,,,,
33195014,,,,0.21333553,-0.0015100804,-0.22414245,-3.9155655,-51.875557,-26.193832,
33195016,1.376202,0.004431486,10.26203,,,,,,,
33195018,1.3019422,0.03796819,10.259635,,,,,,,
33195019,,,,0.21067236,-0.019086929,-0.2353277,,,,
33195021,1.1869593,0.07629584,10.271612,,,,,,,
33195023,1.1438407,0.05473654,10.269217,,,,,,,
33195024,,,,0.20215026,-0.038261674,-0.23799087,-4.5309105,-51.884895,-26.20903,
33195026,1.0935357,0.07869133,10.194957,,,,,,,
33195028,1.0576034,0.033177227,10.115906,,,,,,,
33195029,,,,0.19842182,-0.053707995,-0.23958877,,,,
33195031,1.0360441,0.10504159,10.046437,,,,,,,
33195033,1.0192758,0.15534665,9.955409,,,,,,,
33195034,,,,0.19735657,-0.05583852,-0.23372982,-2.8390598,-51.854584,-25.857773,
33195036,1.0072984,0.17451046,9.909895,,,,,,,
33195038,0.9569932,0.21762908,9.938641,,,,,,,
33195039,,,,0.19895446,-0.038261674,-0.22201191,,,,
33195041,0.95459783,0.2607477,9.8931265,,,,,,,
33195043,0.9426204,0.27991152,9.969782,,,,,,,
33195044,,,,0.19575869,-0.01056482,-0.20922875,-3.1453228,-52.891113,-25.853386,
33195046,0.87794244,0.34458944,10.063206,,,,,,,
33195048,0.92106116,0.33979848,10.137465,,,,,,,
33195049,,,,0.18989973,0.019795189,-0.19591296,,,,
33195051,0.88033795,0.34219396,10.238075,,,,,,,
33195053,0.9042927,0.34219396,10.331499,,,,,,,
33195054,,,,0.19256288,0.041100457,-0.18579297,-3.4521255,-52.907364,-26.634651,
33195056,0.8947109,0.32303014,10.427318,,,,,,,
33195058,0.9042927,0.31105274,10.554278,,,,,,,
33195059,,,,0.20694394,0.052285723,-0.17780347,,,,
33195061,0.88752437,0.282307,10.683634,,,,,,,
33195063,0.9090837,0.29667988,10.789036,,,,,,,
33195064,,,,0.231445,0.051753093,-0.17727086,-4.529848,-52.912125,-25.88758,
33195066,0.93064296,0.3589623,10.846527,,,,,,,
33195069,0.88033795,0.28470248,10.858504,0.26926187,0.037372034,-0.17673822,,,,
33195071,0.88273346,0.2703296,10.8177805,,,,,,,
33195074,0.95459783,0.27512056,10.6788435,0.30388293,0.015001505,-0.17993401,-5.452944,-52.490856,-26.379715,
33195076,0.9522023,0.23200196,10.480019,,,,,,,
33195079,1.0120893,0.24637482,10.295567,0.31826398,-0.015358507,-0.18792349,,,,
33195081,1.0096939,0.19127882,10.154234,,,,,,,
33195084,1.0216713,0.17451046,9.981759,0.31133977,-0.04891431,-0.20017402,-3.2993412,-53.75937,-24.609047,
33195086,1.0168803,0.2703296,9.890731,,,,,,,
33195089,0.985739,0.2487703,9.706279,0.29429555,-0.07448063,-0.21775086,,,,
33195091,0.97136617,0.25116578,9.608065,,,,,,,
33195094,0.91627014,0.33500752,9.490685,,,,-3.4540024,-52.158737,-25.869545,
33195095,,,,0.27245766,-0.084600635,-0.23266454,,,,
33195096,0.7964963,0.31105274,9.440381,,,,,,,
33195099,0.69828165,0.36614874,9.380494,,,,,,,
33195100,,,,0.24848923,-0.07927432,-0.23586035,,,,
33195101,0.6791178,0.34698492,9.332584,,,,,,,
33195104,0.5761122,0.33979848,9.284675,,,,-1.2974129,-53.611725,-26.572899,
33195105,,,,0.22771658,-0.06276273,-0.23159929,,,,
33195106,0.49227053,0.38052163,9.320607,,,,,,,
33195109,0.43717444,0.40926737,9.3517475,,,,,,,
33195110,,,,0.211205,-0.03346799,-0.21721822,,,,
33195111,0.34135532,0.41166285,9.344562,,,,,,,
33195114,0.25990906,0.4499905,9.418822,,,,-4.069372,-52.02298,-26.041183,
33195115,,,,0.20001973,0.0027509737,-0.19378243,,,,
33195116,0.18325374,0.43561763,9.488291,,,,,,,
33195119,0.154508,0.4619679,9.548178,,,,,,,
33195120,,,,0.19575869,0.04269835,-0.16448769,,,,
33195121,0.11138937,0.4619679,9.63681,,,,,,,
33195124,0.11138937,0.4595724,9.713466,,,,-2.223341,-51.994965,-25.99559,
33195125,,,,0.20108499,0.0751889,-0.13359503,,,,
33195126,0.08264366,0.40926737,9.744607,,,,,,,
33195129,0.077852696,0.44280407,9.782935,,,,,,,
33195130,,,,0.21227026,0.10980996,-0.100571886,,,,
33195131,0.06827077,0.44280407,9.799703,,,,,,,
33195134,0.06587529,0.3853126,9.835635,,,,-1.9157696,-53.291504,-24.270523,
33195135,,,,0.23890185,0.15028998,-0.069679245,,,,
33195136,0.101807475,0.33500752,9.902708,,,,,,,
33195139,0.13534415,0.27991152,9.883545,,,,,,,
33195140,,,,0.26926187,0.19023734,-0.045178175,,,,
33195141,0.16648537,0.2679341,9.931454,,,,,,,
33195144,0.20241755,0.28470248,10.003319,,,,-4.222925,-52.60801,-25.573936,
33195145,,,,0.2985566,0.21367316,-0.02760133,,,,
33195146,0.19523114,0.27991152,10.058414,,,,,,,
33195149,0.2215814,0.25835222,10.130279,,,,,,,
33195150,,,,0.32572085,0.21740158,-0.019611852,,,,
33195151,0.22876784,0.25595674,10.142256,,,,,,,
33195154,0.21918592,0.25356126,10.233285,,,,-2.2253094,-51.679302,-24.606415,
33195155,,,,0.35501558,0.19556367,-0.019079221,,,,
33195156,0.22637233,0.24397933,10.247657,,,,,,,
33195159,0.209604,0.28709796,10.252448,,,,,,,
33195160,,,,0.3843103,0.1577468,-0.026536064,,,,
33195161,0.17846277,0.27991152,10.269217,,,,,,,
33195164,0.13534415,0.28709796,10.281194,,,,-1.9157696,-53.291504,-24.270523,
33195165,,,,0.40987664,0.10182048,-0.043047648,,,,
33195166,0.154508,0.36135778,10.348267,,,,,,,
33195169,0.104202926,0.37812614,10.324313,,,,,,,
33195170,,,,0.4413019,0.027784664,-0.060091868,,,,
33195171,0.05629337,0.39489448,10.223702,,,,,,,
33195174,0.06827077,0.39968544,10.226098,,,,-3.3014088,-51.995094,-24.939056,
33195175,,,,0.47539034,-0.060099576,-0.07394029,,,,
33195176,0.039525032,0.47394526,10.09195,,,,,,,
33195179,0.06108433,0.5362277,9.921872,,,,,,,
33195180,,,,0.49722826,-0.14798382,-0.0856582,,,,
33195182,0.029943138,0.6272559,9.816471,,,,,,,
33195184,0.0011973679,0.6751655,9.538596,,,,-3.6074257,-54.337463,-23.526665,
33195185,,,,0.51160926,-0.22574805,-0.094712935,,,,
33195187,0.0011973679,0.77098465,9.320607,,,,,,,
33195189,-0.034734815,0.85722184,9.097828,,,,,,,
33195190,,,,0.50734824,-0.28433755,-0.09790872,,,,
33195192,-0.044316724,0.94825006,8.887026,,,,,,,
33195194,-0.085039854,1.0273008,8.570823,,,,-2.3758945,-54.185272,-24.426376,
33195195,,,,0.4849777,-0.3173607,-0.09897399,,,,
33195197,-0.029943839,1.0871878,8.405535,,,,,,,
33195199,-0.010780022,1.1350974,8.204314,,,,,,,
33195200,,,,0.44343245,-0.32588282,-0.09204978,,,,
33195202,-0.001198113,1.1350974,7.9815345,,,,,,,
33195204,0.0035928488,1.168634,7.88332,,,,-3.9146576,-53.913803,-24.467796,
33195205,,,,0.38484293,-0.3056428,-0.082995035,,,,
33195207,0.025152147,1.1854024,7.768337,,,,,,,
33195209,0.013174772,1.2021707,7.749173,,,,,,,
33195210,,,,0.32092714,-0.2630323,-0.07394029,,,,
33195212,0.0059883296,1.2021707,7.775523,,,,,,,
33195214,0.015570253,1.2524759,7.8186417,,,,-4.2227974,-54.201706,-23.698303,
33195215,,,,0.25541344,-0.20497541,-0.059559226,,,,
33195217,-0.00598906,1.293199,7.873738,,,,,,,
33195219,-0.022757411,1.2716396,7.952789,,,,,,,
33195220,,,,0.20001973,-0.13626592,-0.04358028,,,,
33195222,0.0035928488,1.2141482,8.029445,,,,,,,
33195224,0.12097132,1.228521,8.120473,,,,-2.8392162,-52.865597,-24.453186,
33195225,,,,0.15208288,-0.069154315,-0.029199222,,,,
33195227,0.12097132,1.2213346,8.204314,,,,,,,
33195229,0.12336677,1.1949843,8.360021,,,,,,,
33195230,,,,0.111070216,-0.012162715,-0.023872906,,,,
33195232,0.23595428,1.1470747,8.532495,,,,,,,
33195234,0.2718864,1.113538,8.652268,,,,-2.377222,-53.58869,-23.969032,
33195235,,,,0.07857968,0.03311098,-0.024405537,,,,
33195237,0.3030277,1.0560466,8.827139,,,,,,,
33195239,0.29823667,0.9817867,9.030754,,,,,,,
33195240,,,,0.061535466,0.07039521,-0.030797118,,,,
33195242,0.2647,0.99376416,9.203229,,,,,,,
33195244,0.32937795,0.95064545,9.421217,,,,-2.992485,-54.03331,-23.514893,
33195245,,,,0.055676516,0.093298376,-0.045710806,,,,
33195247,0.27667743,0.9242953,9.576922,,,,,,,
33195249,0.25990906,0.8811766,9.749398,,,,,,,
33195250,,,,0.06419863,0.09489627,-0.06115713,,,,
33195252,0.22397688,0.8835721,9.871567,,,,,,,
33195254,0.11857581,0.8859676,9.967386,,,,-3.6081753,-54.038017,-23.22062,
33195255,,,,0.08710179,0.081580475,-0.07766872,,,,
33195257,0.10659844,0.9195043,10.003319,,,,,,,
33195259,0.022756696,0.9410635,10.020087,,,,,,,
33195260,,,,0.12012496,0.05761204,-0.089919254,,,,
33195262,-0.025152892,0.94345903,9.924268,,,,,,,
33195264,-0.0682715,0.9961597,9.802098,,,,-3.9147758,-54.20167,-24.000175,
33195265,,,,0.14995235,0.028317297,-0.09418031,,,,
33195267,-0.1473223,1.0153234,9.691906,,,,,,,
33195269,-0.09701724,1.0129279,9.505059,,,,,,,
33195270,,,,0.16806182,0.0027509737,-0.09790872,,,,
33195272,-0.07066698,1.0440692,9.243952,,,,,,,
33195274,-0.001198113,1.063233,8.961285,,,,-4.2230453,-52.895874,-25.106316,
33195275,,,,0.15794182,-0.016956402,-0.10430031,,,,
33195277,0.015570253,1.0895833,8.716947,,,,,,,
33195279,0.06827077,1.1350974,8.53489,,,,,,,
33195280,,,,0.11959233,-0.024413245,-0.11388768,,,,
33195282,0.039525032,1.1470747,8.434279,,,,,,,
33195284,0.051502436,1.1710294,8.345648,,,,-3.147005,-53.15814,-23.993164,
33195285,,,,0.06366599,-0.018021666,-0.121344514,,,,
33195287,0.051502436,1.1590521,8.316901,,,,,,,
33195289,0.06587529,1.2045662,8.261806,,,,,,,
33195290,,,,0.0034786055,-0.005771134,-0.1309319,,,,
33195292,0.044315994,1.1446793,8.218687,,,,,,,
33195294,,,,,,,-4.0718975,-52.42352,-23.250854,
33195295,0.020361215,1.1566567,8.216291,-0.050849836,0.013403608,-0.13998663,,,,
33195297,-0.02036193,1.1614476,8.283365,,,,,,,
33195300,-0.08264437,1.1422838,8.312111,-0.10198248,0.029915193,-0.14478031,,,,
33195302,-0.11857656,1.1159335,8.475003,,,,,,,
33195304,,,,,,,-2.53232,-52.416386,-24.295998,
33195305,-0.17127708,1.1470747,8.5396805,-0.14832145,0.04216572,-0.1479761,,,,
33195307,-0.24793239,1.1159335,8.623523,,,,,,,
33195310,-0.34375155,1.118329,8.769647,-0.18240987,0.049089935,-0.14584558,,,,
33195312,-0.38687015,1.118329,8.848698,,,,,,,
33195314,,,,,,,-2.5323296,-53.28463,-23.202583,
33195315,-0.43717518,1.1398883,8.927749,-0.21117198,0.052818358,-0.13838872,,,,
33195317,-0.5497627,1.0967697,9.009194,,,,,,,
33195320,-0.61444056,1.0800014,9.064291,,,,,,,
33195321,,,,-0.23727094,0.05761204,-0.12454032,,,,
33195322,-0.71984166,1.0608375,9.150528,,,,,,,
33195324,,,,,,,-2.0691452,-53.87884,-23.958008,
33195325,-0.7581693,1.0368828,9.152924,,,,,,,
33195326,,,,-0.25058672,0.07305837,-0.10376768,,,,
33195327,-0.846802,1.0608375,9.193646,,,,,,,
33195330,-0.91147995,1.0776058,9.203229,,,,,,,
33195331,,,,-0.26177198,0.0954289,-0.073407665,,,,
33195332,-0.9737624,1.1111425,9.231975,,,,,,,
33195334,,,,,,,-2.9935474,-53.006073,-23.836342,
33195335,-1.0001127,1.1398883,9.272697,,,,,,,
33195336,,,,-0.27402255,0.11566891,-0.03452554,,,,
33195337,-0.9881353,1.1374928,9.30863,,,,,,,
33195340,-0.95459855,1.1327019,9.375703,,,,,,,
33195341,,,,-0.2852078,0.13164786,0.0064871036,,,,
33195342,-0.87554777,1.0967697,9.490685,,,,,,,
33195344,,,,,,,-1.9149723,-54.749382,-23.170265,
33195345,-0.80847436,0.9674139,9.540991,,,,,,,
33195346,,,,-0.29639307,0.14922471,0.045901854,,,,
33195347,-0.7078643,0.95543647,9.459545,,,,,,,
33195350,-0.626418,0.9338771,9.3517475,,,,,,,
33195351,,,,-0.30438256,0.18491104,0.07892502,,,,
33195352,-0.5401808,0.8787811,9.428404,,,,,,,
33195354,,,,,,,-3.455183,-54.169186,-22.286713,
33195355,-0.46352547,0.86201286,9.624833,,,,,,,
33195356,,,,-0.30757833,0.24243528,0.10662187,,,,
33195357,-0.34135604,0.8691993,9.830844,,,,,,,
33195360,-0.32937866,0.78296196,9.938641,,,,,,,
33195361,,,,-0.2947952,0.28877422,0.13112293,,,,
33195362,-0.17367256,0.727866,9.993737,,,,,,,
33195364,,,,,,,-2.531725,-53.726852,-23.197449,
33195365,-0.101808205,0.68953836,10.115906,,,,,,,
33195366,,,,-0.27934885,0.31647107,0.14923242,,,,
33195367,-0.03713028,0.63923335,10.223702,,,,,,,
33195370,0.015570253,0.60569656,10.326708,,,,,,,
33195371,,,,-0.25591305,0.3404395,0.155624,,,,
33195372,0.07066625,0.59132373,10.4369,,,,,,,
33195374,,,,,,,-2.531725,-53.726852,-23.197449,
33195375,0.06827077,0.5362277,10.532719,,,,,,,
33195376,,,,-0.21756357,0.3553532,0.15349348,,,,
33195377,0.06347981,0.51706386,10.657284,,,,,,,
33195380,0.046711475,0.51945937,10.748312,,,,,,,
33195381,,,,-0.17069197,0.3558858,0.15029767,,,,
33195382,0.03473407,0.5386232,10.904018,,,,,,,
33195384,,,,,,,-0.68538284,-54.426617,-22.524368,
33195385,0.039525032,0.5386232,10.954324,,,,,,,
33195386,,,,-0.1259509,0.32978687,0.1439061,,,,
33195387,0.041920513,0.5386232,11.064516,,,,,,,
33195390,0.041920513,0.5362277,11.071702,,,,,,,
33195391,,,,-0.07961195,0.2797195,0.13591662,,,,
33195392,0.017965704,0.5458096,11.138775,,,,,,,
33195394,,,,,,,-4.686493,-52.732304,-23.572098,
33195395,0.017965704,0.59132373,11.098052,,,,,,,
33195396,,,,-0.039131936,0.20887947,0.12579663,,,,
33195397,0.015570253,0.5266458,10.975883,,,,,,,
33195400,0.03233859,0.5434141,10.856109,,,,,,,
33195401,,,,-0.0103698205,0.11992996,0.11727451,,,,
33195402,0.029943138,0.6488152,10.616561,,,,,,,
33195404,,,,,,,-1.9187164,-52.383884,-22.733467,
33195405,0.06347981,0.66558355,10.451273,,,,,,,
33195406,,,,-0.006108766,0.016066767,0.10289345,,,,
33195408,0.10659844,0.6248604,10.300358,,,,,,,
33195410,0.20481306,0.60090566,10.106324,,,,,,,
33195411,,,,-0.027414037,-0.09844906,0.08638187,,,,
33195413,0.31260955,0.56976444,9.964991,,,,,,,
33195414,,,,,,,-2.072525,-52.531315,-22.580818,
33195415,0.47789764,0.5050865,9.816471,,,,,,,
33195416,,,,-0.060437202,-0.20444278,0.061348174,,,,
33195418,0.6503721,0.39489448,9.629623,,,,,,,
33195420,0.7725414,0.33979848,9.46194,,,,,,,
33195421,,,,-0.10251512,-0.28114173,0.028857639,,,,
33195423,0.87075615,0.33979848,9.267907,,,,,,,
33195424,,,,,,,-2.378788,-53.567844,-22.576431,
33195425,0.87315154,0.32542562,9.246346,,,,,,,
33195426,,,,-0.14512564,-0.30830595,-0.0068286904,,,,
33195428,0.9450159,0.33979848,9.215206,,,,,,,
33195430,0.92345667,0.3038663,9.231975,,,,,,,
33195431,,,,-0.18507303,-0.29126176,-0.03505817,,,,
33195433,0.88752437,0.34219396,9.306233,,,,,,,
33195434,,,,,,,-2.0711975,-53.127895,-23.038162,
33195435,0.9018972,0.34698492,9.416426,,,,,,,
33195436,,,,-0.21170463,-0.24811858,-0.05370028,,,,
33195438,0.87075615,0.32303014,9.526618,,,,,,,
33195440,0.78691435,0.37573066,9.665556,,,,,,,
33195441,,,,-0.22448778,-0.18846382,-0.06595082,,,,
33195443,0.72702736,0.42843118,9.924268,,,,,,,
33195444,,,,,,,-2.224577,-53.715233,-22.725655,
33195445,0.6336037,0.43322214,10.09195,,,,,,,
33195446,,,,-0.22448778,-0.12934169,-0.07180977,,,,
33195448,0.54976195,0.45717692,10.257238,,,,,,,
33195450,0.49945688,0.48592266,10.400968,,,,,,,
33195451,,,,-0.20691094,-0.07607853,-0.067548715,,,,
33195453,0.48268855,0.49790007,10.460855,,,,,,,
33195454,,,,,,,-2.0734787,-52.08445,-22.276482,
33195455,0.43956995,0.5266458,10.508765,,,,,,,
33195456,,,,-0.17495301,-0.024413245,-0.05370028,,,,
33195458,0.43238348,0.5266458,10.523137,,,,,,,
33195460,0.43956995,0.5242503,10.568652,,,,,,,
33195461,,,,-0.13394038,0.02618677,-0.039319225,,,,
33195463,0.44675636,0.50987744,10.587815,,,,,,,
33195464,,,,,,,-3.609045,-54.026436,-22.446953,
33195465,0.49227053,0.5002955,10.556674,,,,,,,
33195466,,,,-0.09132985,0.07092784,-0.026536064,,,,
33195468,0.48508406,0.4955046,10.532719,,,,,,,
33195470,0.48268855,0.46915433,10.503974,,,,,,,
33195471,,,,-0.05298036,0.102885745,-0.01801396,,,,
33195473,0.48268855,0.4499905,10.513556,,,,,,,
33195474,,,,,,,-1.915842,-54.7378,-22.396599,
33195475,0.48987502,0.42843118,10.508765,,,,,,,
33195476,,,,-0.019957192,0.11300575,-0.014818165,,,,
33195478,0.49466592,0.42364025,10.539906,,,,,,,
33195479,,,,,,,,,,68.0
33195480,0.5018524,0.40208092,10.55907,,,,,,,
33195481,,,,0.002413342,0.102885745,-0.01854659,,,,
33195483,0.53538907,0.40687189,10.499183,,,,,,,
33195484,,,,,,,-3.14892,-53.132656,-22.291092,
33195485,0.5042479,0.40687189,10.5734415,,,,,,,
33195486,,,,0.019457558,0.07465626,-0.023872906,,,,
33195488,0.5425755,0.33500752,10.63812,,,,,,,
33195490,0.54976195,0.29188892,10.630934,,,,,,,
33195491,,,,0.04502388,0.03311098,-0.036656067,,,,
33195493,0.55694836,0.2942844,10.669262,,,,,,,
33195494,,,,,,,-2.8407822,-52.84475,-23.060585,
33195495,0.59527606,0.29907534,10.6788435,,,,,,,
33195496,,,,0.06632915,-0.017489033,-0.051569756,,,,
33195498,0.55215746,0.28470248,10.606978,,,,,,,
33195500,0.5617394,0.2942844,10.561465,,,,,,,
33195501,,,,0.090830214,-0.07341537,-0.067548715,,,,
33195503,0.6216263,0.31823918,10.4369,,,,,,,
33195504,,,,,,,-2.072874,-52.52668,-22.271347,
33195505,0.6240218,0.31823918,10.348267,,,,,,,
33195506,,,,0.114266016,-0.12827644,-0.08352766,,,,
33195508,0.7126545,0.32303014,10.247657,,,,,,,
33195510,0.74140024,0.38052163,10.096742,,,,,,,
33195511,,,,0.1275818,-0.16662592,-0.09897399,,,,
33195513,0.7773324,0.3853126,9.986549,,,,,,,
33195514,,,,,,,-3.456997,-52.842506,-22.302116,
33195515,0.78691435,0.4499905,9.883545,,,,,,,
33195516,,,,0.13823445,-0.18100697,-0.11228978,,,,
33195518,0.76295954,0.4499905,9.754189,,,,,,,
33195520,0.74140024,0.46915433,9.603273,,,,,,,
33195521,,,,0.1424955,-0.16875646,-0.12613821,,,,
33195523,0.71505,0.48592266,9.495477,,,,,,,
33195524,,,,,,,-2.9954052,-53.270786,-21.821388,
33195525,0.67432684,0.56976444,9.452359,,,,,,,
33195526,,,,0.13450603,-0.1325375,-0.13519295,,,,
33195528,0.62881273,0.6224649,9.402053,,,,,,,
33195531,0.5832986,0.68953836,9.471521,0.11639654,-0.092057474,-0.14318241,,,,
33195533,0.5593439,0.8021258,9.529014,,,,,,,
33195534,,,,,,,-2.2256203,-53.701336,-21.797256,
33195536,0.53538907,0.8093122,9.627228,0.10467864,-0.06595852,-0.1479761,,,,
33195538,0.49227053,0.893154,9.74221,,,,,,,
33195541,0.46112925,0.9362726,9.823658,0.09828705,-0.04944694,-0.15276979,,,,
33195543,0.374892,0.95304096,9.907499,,,,,,,
33195544,,,,,,,-2.2258778,-53.263744,-22.111855,
33195546,0.33416885,1.008137,9.931454,,,,,,,
33195547,,,,0.10254811,-0.052110102,-0.15383504,,,,
33195548,0.29823667,1.0895833,10.024878,,,,,,,
33195551,0.2503271,1.0919788,10.099138,,,,,,,
33195552,,,,0.111070216,-0.07341537,-0.15330242,,,,
33195553,0.23834974,1.108747,10.094347,,,,,,,
33195554,,,,,,,-1.3025379,-53.109276,-22.55497,
33195556,0.27907288,1.1063516,10.082369,,,,,,,
33195557,,,,0.12332074,-0.10803643,-0.15543294,,,,
33195558,0.24074522,1.1710294,10.115906,,,,,,,
33195561,0.25272262,1.2117527,10.130279,,,,,,,
33195562,,,,0.13290812,-0.14532065,-0.1580961,,,,
33195563,0.17846277,1.2093571,10.03925,,,,,,,
33195564,,,,,,,-2.8378048,-53.89746,-24.4412,
33195566,0.154508,1.2309165,10.044042,,,,,,,
33195567,,,,0.14622392,-0.17994171,-0.16022663,,,,
33195568,0.13055322,1.2812215,10.003319,,,,,,,
33195571,0.11618033,1.3147583,9.945827,,,,,,,
33195572,,,,0.15687655,-0.20497541,-0.15862873,,,,
33195573,0.099411994,1.3243401,9.964991,,,,,,,
33195574,,,,,,,-2.226736,-52.383923,-22.431595,
33195576,0.051502436,1.3722497,9.895522,,,,,,,
33195577,,,,0.16486605,-0.22308488,-0.15490033,,,,
33195578,0.046711475,1.3842272,9.852403,,,,,,,
33195581,0.03473407,1.4273458,9.790121,,,,,,,
33195582,,,,0.17498603,-0.22947647,-0.14584558,,,,
33195583,0.0107792765,1.4057864,9.766166,,,,,,,
33195584,,,,,,,-2.5356255,-52.372375,-21.356056,
33195586,-0.025152892,1.4872328,9.756584,,,,,,,
33195587,,,,0.17871445,-0.22947647,-0.12720346,,,,
33195588,-0.02036193,1.4992101,9.73263,,,,,,,
33195591,-0.02036193,1.5567017,9.751793,,,,,,,
33195592,,,,0.17871445,-0.22255227,-0.10270241,,,,
33195593,-0.02036193,1.5543061,9.814075,,,,,,,
33195594,,,,,,,-2.0706577,-54.148174,-22.252518,
33195596,0.025152147,1.5830519,9.835635,,,,,,,
33195597,,,,0.18457341,-0.20976909,-0.07660346,,,,
33195598,0.05629337,1.5878428,9.799703,,,,,,,
33195601,0.11857581,1.5447241,9.790121,,,,,,,
33195602,,,,0.19416077,-0.18420278,-0.05370028,,,,
33195603,0.21439496,1.5806564,9.799703,,,,,,,
33195604,,,,,,,-3.1491299,-53.85349,-21.19941,
33195606,0.31979603,1.5495151,9.739816,,,,,,,
33195607,,,,0.20534605,-0.14958172,-0.03452554,,,,
33195608,0.35812366,1.559097,9.703884,,,,,,,
33195611,0.45873374,1.5447241,9.699093,,,,,,,
33195612,,,,0.2165313,-0.115493275,-0.022807645,,,,
33195613,0.52820265,1.5471196,9.677534,,,,,,,
33195614,,,,,,,-3.458004,-52.10546,-22.310677,
33195616,0.655163,1.5662836,9.552969,,,,,,,
33195617,,,,0.2165313,-0.084068,-0.023340276,,,,
33195618,0.7581686,1.5255604,9.502664,,,,,,,
33195621,0.9066882,1.5063965,9.421217,,,,,,,
33195622,,,,0.20161763,-0.056903787,-0.03878659,,,,
33195623,1.0049028,1.4752553,9.327794,,,,,,,
33195624,,,,,,,-2.0739803,-53.090836,-20.562431,
33195626,1.0791627,1.4704643,9.327794,,,,,,,
33195627,,,,0.17551868,-0.027076406,-0.0723424,,,,
33195628,1.1989366,1.4968146,9.279883,,,,,,,
33195630,,,,,,,,,,61.0
33195631,1.1845638,1.4800463,9.279883,,,,,,,
33195632,,,,0.13716918,0.004348869,-0.116018206,,,,
33195634,1.1534225,1.508792,9.445172,,,,-2.5372562,-52.92958,-19.182945,
33195636,1.0767672,1.5567017,9.6487875,,,,,,,
33195637,,,,0.09828705,0.022990981,-0.15969402,,,,
33195639,0.9450159,1.5830519,9.830844,,,,,,,
33195641,0.82284653,1.6165885,10.053624,,,,,,,
33195642,,,,0.07911231,0.018197294,-0.1964456,,,,
33195644,0.74140024,1.6477298,10.295567,,,,-4.0735283,-52.980724,-21.077744,
33195646,0.6719314,1.6309614,10.503974,,,,,,,
33195647,,,,0.07591652,-0.0052385023,-0.2236098,,,,
33195649,0.57850766,1.6453342,10.662075,,,,,,,
33195651,0.4659202,1.6597072,10.880064,,,,,,,
33195652,,,,0.0924281,-0.04252273,-0.23958877,,,,
33195654,0.38926488,1.6453342,11.023792,,,,-1.9198799,-52.657852,-21.337433,
33195656,0.32698244,1.6764755,11.1411705,,,,,,,
33195657,,,,0.12278812,-0.092057474,-0.2502414,,,,
33195659,0.29823667,1.7052213,11.244176,,,,,,,
33195661,0.2431407,1.7028258,11.270527,,,,,,,
33195662,,,,0.16113761,-0.14958172,-0.25450248,,,,
33195664,0.209604,1.7171986,11.241781,,,,-2.074438,-52.505836,-20.878746,
33195666,0.2000221,1.7746902,11.21064,,,,,,,
33195667,,,,0.19522604,-0.21083435,-0.25290456,,,,
33195669,0.20481306,1.8154132,11.157939,,,,,,,
33195671,0.209604,1.7722946,11.016605,,,,,,,
33195672,,,,0.2245208,-0.26090175,-0.24225192,,,,
33195674,0.2215814,1.7603173,10.796222,,,,-2.539013,-51.893085,-18.885468,
33195676,0.23595428,1.7171986,10.628538,,,,,,,
33195677,,,,0.2447608,-0.2870007,-0.23000139,,,,
33195679,0.3102141,1.6908484,10.477623,,,,,,,
33195681,0.3557282,1.6932439,10.285985,,,,,,,
33195682,,,,0.25434816,-0.27581546,-0.2182835,,,,
33195684,0.37968302,1.6429387,10.166211,,,,-4.0739956,-53.263966,-20.300652,
33195686,0.37968302,1.6070067,10.072787,,,,,,,
33195687,,,,0.25221762,-0.22095436,-0.20390244,,,,
33195689,0.33177346,1.6094022,10.024878,,,,,,,
33195691,0.3102141,1.5998201,9.9602,,,,,,,
33195692,,,,0.24049973,-0.14585328,-0.18898875,,,,
33195694,0.30781865,1.5279559,9.945827,,,,-3.6133404,-54.25871,-18.265732,
33195696,0.28386384,1.5111876,9.941036,,,,,,,
33195697,,,,0.22878185,-0.06542589,-0.17034665,,,,
33195699,0.29584128,1.4848373,9.948223,,,,,,,
33195701,0.31260955,1.403391,9.998528,,,,,,,
33195702,,,,0.20907448,0.00754466,-0.14850874,,,,
33195704,0.37249655,1.3315266,10.125488,,,,-3.150751,-53.542458,-20.119698,
33195706,0.3988468,1.2620577,10.259635,,,,,,,
33195707,,,,0.19522604,0.06347099,-0.1309319,,,,
33195709,0.47310662,1.1494702,10.360245,,,,,,,
33195711,0.5377846,1.0440692,10.525533,,,,,,,
33195712,,,,0.18191025,0.102885745,-0.12027926,,,,
33195714,0.5545529,1.0105325,10.741126,,,,-2.8434277,-53.533154,-19.802628,
33195716,0.5617394,0.9602275,10.956718,,,,,,,
33195717,,,,0.17392078,0.12259312,-0.116018206,,,,
33195719,0.5617394,0.94345903,11.203453,,,,,,,
33195721,0.52820265,0.9171088,11.383114,,,,,,,
33195722,,,,0.18084498,0.114603646,-0.12027926,,,,
33195724,0.52820265,0.888363,11.589125,,,,-3.152666,-53.516975,-18.417625,
33195726,0.5090388,0.86201286,11.689734,,,,,,,
33195727,,,,0.19149762,0.07891732,-0.12933399,,,,
33195729,0.544971,0.8404535,11.716085,,,,,,,
33195731,0.5761122,0.80691683,11.7352495,,,,,,,
33195732,,,,0.20161763,0.022990981,-0.13732347,,,,
33195734,0.59048504,0.8021258,11.699317,,,,-3.3064365,-52.941254,-19.201942,
33195736,0.6407901,0.7949394,11.689734,,,,,,,
33195737,,,,0.20854184,-0.04412062,-0.14850874,,,,
33195739,0.73900473,0.7542163,11.744831,,,,,,,
33195741,0.8084736,0.727866,11.7616,,,,,,,
33195742,,,,0.21599868,-0.111764856,-0.16768348,,,,
33195744,0.82763755,0.6967248,11.71369,,,,-2.9969902,-54.986416,-18.241974,
33195746,0.9330385,0.7206795,11.684945,,,,,,,
33195747,,,,0.22185764,-0.17408277,-0.18898875,,,,
33195749,0.9522023,0.7973349,11.6825485,,,,,,,
33195752,0.91147923,0.7733801,11.620267,0.23037975,-0.21935646,-0.21562034,,,,
33195754,0.9474114,0.7805666,11.61308,,,,-2.535324,-53.9684,-19.635162,
33195757,0.9785526,0.86440825,11.699317,0.23517343,-0.25451016,-0.24491507,,,,
33195759,0.9498069,0.893154,11.637034,,,,,,,
33195762,0.8995019,0.9195043,11.546007,0.24049973,-0.29232702,-0.27953616,,,,
33195764,0.88752437,0.99136865,11.510075,,,,-3.4639168,-52.02671,-17.049751,
33195767,0.8444058,1.0847923,11.531633,0.2431629,-0.3237523,-0.30670038,,,,
33195769,0.7366092,1.1638432,11.462165,,,,,,,
33195772,0.6647449,1.1877979,11.397487,,,,,,,
33195773,,,,0.241565,-0.35517758,-0.32800564,,,,
33195774,0.56892574,1.2261256,11.325623,,,,-3.460804,-53.804882,-17.648132,
33195777,0.47550213,1.2860125,11.18908,,,,,,,
33195778,,,,0.23623869,-0.37488493,-0.33333197,,,,
33195779,0.44196546,1.3267356,10.963904,,,,,,,
33195780,,,,,,,,,,56.0
33195782,0.37968302,1.3171538,10.769872,,,,,,,
33195783,,,,0.21706395,-0.37381968,-0.32853827,,,,
33195784,0.2718864,1.3339221,10.6261425,,,,-4.2309914,-53.07951,-17.67569,
33195787,0.21199948,1.3291311,10.427318,,,,,,,
33195788,,,,0.17818183,-0.3477207,-0.3125593,,,,
33195789,0.16408992,1.3099674,10.250052,,,,,,,
33195792,0.12336677,1.3291311,10.079974,,,,,,,
33195793,,,,0.124918655,-0.29712072,-0.28592774,,,,
33195794,0.073061705,1.2860125,9.914686,,,,-3.3063164,-52.653385,-19.66957,
33195797,0.0083838105,1.2500803,9.802098,,,,,,,
33195798,,,,0.05354599,-0.23054174,-0.24651298,,,,
33195799,0.025152147,1.2021707,9.651183,,,,,,,
33195802,0.06587529,1.1638432,9.550572,,,,,,,
33195803,,,,-0.035936143,-0.15544066,-0.2017719,,,,
33195804,0.08024815,1.1039561,9.533805,,,,-3.6135502,-54.97954,-17.174042,
33195807,0.16408992,1.0608375,9.5697365,,,,,,,
33195808,,,,-0.14565828,-0.079806946,-0.15756346,,,,
33195809,0.19283566,0.94825006,9.574528,,,,,,,
33195812,0.209604,0.8524308,9.7278385,,,,,,,
33195813,,,,-0.26123938,-0.0031079757,-0.11388768,,,,
33195814,0.25751355,0.7614027,9.897918,,,,-3.3088055,-52.330776,-17.816193,
33195817,0.25990906,0.6272559,10.096742,,,,,,,
33195818,,,,-0.36297202,0.074123636,-0.067548715,,,,
33195819,0.25751355,0.5290413,10.324313,,,,,,,
33195822,0.31500506,0.4380131,10.520741,,,,,,,
33195823,,,,-0.44499734,0.14176786,-0.021209748,,,,
33195824,0.38447392,0.31105274,10.767476,,,,-3.3086967,-52.911144,-17.190414,
33195827,0.46831566,0.19127882,10.980674,,,,,,,
33195828,,,,-0.50838053,0.19556367,0.019270265,,,,
33195829,0.5042479,0.08587776,11.246572,,,,,,,
33195832,0.5425755,-0.045873553,11.447792,,,,,,,
33195833,,,,-0.5456647,0.23178263,0.058152385,,,,
33195834,0.6144399,-0.16804296,11.668176,,,,-3.4631577,-51.457916,-18.449196,
33195837,0.70546806,-0.26865306,11.9268875,,,,,,,
33195838,,,,-0.56910056,0.24350053,0.08904502,,,,
33195839,0.78691435,-0.32614455,12.1712265,,,,,,,
33195842,0.8899199,-0.42915013,12.403588,,,,,,,
33195843,,,,-0.5781553,0.23710895,0.111948185,,,,
33195844,0.97136617,-0.58006525,12.571272,,,,-2.5415401,-52.29362,-16.095123,
33195847,1.0719763,-0.71181655,12.7126045,,,,,,,
33195848,,,,-0.56590474,0.22698896,0.12686189,,,,
33195849,1.2396598,-0.8531499,12.834774,,,,,,,
33195852,1.3450608,-1.0016695,12.935384,,,,,,,
33195853,,,,-0.5280879,0.22379315,0.13165557,,,,
33195854,1.4528574,-1.1621665,13.088695,,,,-4.077986,-52.34245,-17.83519,
33195857,1.5534675,-1.284336,13.134209,,,,,,,
33195858,,,,-0.47908577,0.22592367,0.12579663,,,,
33195859,1.6253318,-1.370573,13.203678,,,,,,,
33195862,1.6708459,-1.4328556,13.304288,,,,,,,
33195863,,,,-0.41996363,0.22326052,0.10768713,,,,
33195864,,,,,,,-3.3117828,-51.278065,-16.435577,
33195865,1.7355238,-1.499929,13.325847,,,,,,,
33195867,1.7522922,-1.5646069,13.412085,,,,,,,
33195868,,,,-0.35178676,0.20834683,0.07999028,,,,
33195870,1.8002017,-1.6197029,13.431248,,,,,,,
33195872,1.8097837,-1.6580306,13.407294,,,,,,,
33195873,,,,-0.28254464,0.16946472,0.051228173,,,,
33195874,,,,,,,-3.3107033,-50.568813,-18.300934,
33195875,1.8600888,-1.6843809,13.395316,,,,,,,
33195877,1.8912301,-1.7083356,13.237215,,,,,,,
33195878,,,,-0.2180962,0.09649416,0.015541843,,,,
33195880,1.931953,-1.7274994,13.050366,,,,,,,52.0
33195882,2.0110037,-1.6724035,12.839565,,,,,,,
33195883,,,,-0.17548566,-0.008434293,-0.023872906,,,,
33195884,,,,,,,-3.926834,-51.001854,-17.073128,
33195885,2.0493314,-1.7274994,12.6072035,,,,,,,
33195887,2.0660996,-1.720313,12.355678,,,,,,,
33195888,,,,-0.15204987,-0.12774381,-0.069679245,,,,
33195890,2.1762917,-1.729895,12.096967,,,,,,,
33195892,2.1786873,-1.7035447,11.828672,,,,,,,
33195893,,,,-0.14406039,-0.23693332,-0.11708347,,,,
33195894,,,,,,,-2.8493767,-51.427734,-17.041397,
33195895,2.2649245,-1.6532396,11.517261,,,,,,,
33195897,2.3104386,-1.674799,11.227407,,,,,,,
33195898,,,,-0.15151723,-0.33120912,-0.16182454,,,,
33195900,2.2936702,-1.6125165,10.923182,,,,,,,
33195902,2.281693,-1.5646069,10.602188,,,,,,,
33195903,,,,-0.18454039,-0.39352706,-0.19857612,,,,
33195904,,,,,,,-4.078472,-51.61235,-18.307945,
33195905,2.2984612,-1.5143019,10.338686,,,,,,,
33195907,2.281693,-1.4616014,10.096742,,,,,,,
33195908,,,,-0.23300989,-0.41536495,-0.22787087,,,,
33195910,2.2098286,-1.334641,9.907499,,,,,,,
33195912,2.1906648,-1.2723584,9.725443,,,,,,,
33195913,,,,-0.28733835,-0.3828744,-0.24171929,,,,
33195914,,,,,,,-3.4655914,-51.42549,-16.282928,
33195915,2.0684953,-1.1669575,9.651183,,,,,,,
33195917,2.0133994,-1.0855112,9.588901,,,,,,,
33195918,,,,-0.33953625,-0.2885986,-0.24491507,,,,
33195920,1.8912301,-0.98250556,9.632019,,,,,,,
33195922,1.7786424,-0.93938696,9.682323,,,,,,,
33195923,,,,-0.37522256,-0.1543754,-0.23479508,,,,
33195924,,,,,,,-5.7715397,-51.62645,-17.576073,
33195925,1.6684504,-0.88668644,9.763771,,,,,,,
33195927,1.5486765,-0.81242657,9.9602,,,,,,,
33195928,,,,-0.39333203,-0.0041732388,-0.21135928,,,,
33195930,1.5151397,-0.7884718,10.149443,,,,,,,
33195932,1.4121343,-0.7357713,10.408154,,,,,,,
33195933,,,,-0.389071,0.13644154,-0.17833611,,,,
33195934,,,,,,,-5.1568527,-50.8847,-17.878906,
33195935,1.3019422,-0.6878618,10.654889,,,,,,,
33195937,1.220496,-0.6351613,10.884855,,,,,,,
33195938,,,,-0.3640373,0.25681633,-0.14211716,,,,
33195940,1.1294677,-0.6064155,11.148356,,,,,,,
33195942,1.0288576,-0.5896472,11.3328085,,,,,,,
33195943,,,,-0.32089412,0.34416792,-0.109093994,,,,
33195944,,,,,,,-3.9254246,-52.033714,-17.06115,
33195945,0.95938873,-0.53934216,11.534029,,,,,,,
33195947,0.9378295,-0.50341,11.740041,,,,,,,
33195948,,,,-0.2548478,0.3958332,-0.079266615,,,,
33195950,0.86836064,-0.49143258,11.8478365,,,,,,,
33195952,0.8659651,-0.42915013,11.8741865,,,,,,,
33195953,,,,-0.17495301,0.4075511,-0.056896076,,,,
33195954,,,,,,,-5.1598854,-49.541805,-16.81118,
33195955,0.87315154,-0.44352302,11.883769,,,,,,,
33195957,0.87554705,-0.42675462,11.828672,,,,,,,
33195958,,,,-0.094525635,0.3851806,-0.041982386,,,,
33195960,0.9258522,-0.37884507,11.783159,,,,,,,
33195962,0.99053,-0.36926314,11.641826,,,,,,,
33195963,,,,-0.024750877,0.3319174,-0.03186238,,,,
33195964,,,,,,,-4.542948,-49.698402,-18.032135,
33195965,1.0096939,-0.39800885,11.6034975,,,,,,,
33195967,1.1103039,-0.3477039,11.522052,,,,,,,
33195968,,,,0.036501773,0.25788158,-0.025470803,,,,
33195970,1.2324734,-0.36926314,11.43821,,,,,,,
33195972,1.2444508,-0.4099863,11.275318,,,,,,,
33195973,,,,0.0855039,0.17052998,-0.024405537,,,,
33195974,,,,,,,-4.2353764,-50.99494,-16.30706,
33195975,1.2947557,-0.37165865,11.093261,,,,,,,
33195978,1.4193206,-0.38124058,10.911205,0.121722855,0.09010258,-0.033460274,,,,
33195980,1.4528574,-0.28781685,10.693215,,,,,,,
33195981,,,,,,,,,,46.0
33195983,1.4816031,-0.28302595,10.482414,0.14196287,0.023523612,-0.045178175,,,,
33195984,,,,,,,-3.6170197,-51.315163,-18.609444,
33195985,1.5366992,-0.19918418,10.271612,,,,,,,
33195988,1.5319082,-0.17043844,10.075183,0.15634394,-0.02547851,-0.059559226,,,,
33195990,1.5438855,-0.09617859,9.905104,,,,,,,
33195993,1.5822133,-0.11055148,9.754189,0.16060498,-0.051577467,-0.0723424,,,,
33195994,,,,,,,-5.160179,-49.827354,-16.18882,
33195995,1.6516821,-0.053059995,9.5697365,,,,,,,
33195998,1.71636,-0.077014774,9.380494,,,,,,,
33195999,,,,0.1542134,-0.053175364,-0.085125566,,,,
33196000,1.840925,-0.09617859,9.227184,,,,,,,
33196003,1.9247665,-0.105760545,9.083455,,,,,,,
33196004,,,,0.13770181,-0.030272195,-0.10163715,-5.3146,-50.400795,-14.9479065,
33196005,2.0277722,-0.09617859,8.951704,,,,,,,
33196008,2.0732863,-0.11055148,8.846302,,,,,,,
33196009,,,,0.11533128,0.02032782,-0.12773609,,,,
33196010,2.1092186,-0.03629166,8.805579,,,,,,,
33196013,2.0637045,-0.014732331,8.793602,,,,,,,
33196014,,,,0.08763442,0.08743942,-0.15916137,-3.932602,-48.03051,-15.560036,
33196015,1.9894445,0.047550112,8.819952,,,,,,,
33196018,1.9008117,0.09545967,8.91098,,,,,,,
33196019,,,,0.061535466,0.15348576,-0.18739085,,,,
33196020,1.7858288,0.16492856,8.951704,,,,,,,
33196023,1.7331284,0.19127882,8.997218,,,,,,,
33196024,,,,0.034903876,0.20088999,-0.20390244,-3.3148956,-49.499893,-15.837189,
33196025,1.601377,0.26314318,9.01159,,,,,,,
33196028,1.4887896,0.30147082,9.095432,,,,,,,
33196029,,,,0.012533346,0.22752157,-0.21135928,,,,
33196030,1.3905749,0.31344822,9.181669,,,,,,,
33196033,1.2731965,0.35177588,9.162506,,,,,,,
33196034,,,,-0.0077066612,0.23391315,-0.20816348,-3.6225681,-49.504562,-15.844788,
33196035,1.1797727,0.39968544,9.143342,,,,,,,
33196038,1.1677954,0.42843118,9.138551,,,,,,,
33196039,,,,-0.026348772,0.21899946,-0.20070665,,,,
33196040,1.1438407,0.507482,9.116992,,,,,,,
33196043,1.0719763,0.5362277,9.076268,,,,,,,
33196044,,,,-0.04978457,0.19556367,-0.18739085,-3.929781,-50.094234,-15.536072,
33196045,1.0480216,0.5146684,9.01159,,,,,,,
33196048,1.0312531,0.49071363,8.95889,,,,,,,
33196049,,,,-0.071622476,0.16893208,-0.17300978,,,,
33196050,0.9833436,0.4595724,8.91098,,,,,,,
33196053,1.0001118,0.46675885,8.867862,,,,,,,
33196054,,,,-0.09878669,0.14496365,-0.1612919,-4.0835915,-50.24166,-15.383423,
33196055,1.0312531,0.4499905,8.736111,,,,,,,
33196058,1.0264621,0.45478147,8.532495,,,,,,,
33196059,,,,-0.13394038,0.12685417,-0.149574,,,,
33196060,1.095931,0.4380131,8.458235,,,,,,,
33196063,1.1366543,0.41645378,8.348043,,,,,,,
33196064,,,,-0.18081197,0.12312575,-0.14531295,-6.238184,-49.249428,-15.912804,
33196065,1.1725863,0.33261204,8.276178,,,,,,,
33196068,1.2013321,0.28709796,8.2354555,,,,,,,
33196069,,,,-0.23407516,0.14016996,-0.14371505,,,,
33196070,1.2300779,0.27272508,8.225874,,,,,,,
33196073,1.220496,0.24158387,8.285761,,,,,,,
33196074,,,,-0.2804141,0.1710626,-0.14051926,-5.92803,-50.43561,-16.665176,
33196075,1.1725863,0.22242004,8.422303,,,,,,,
33196078,1.151027,0.19127882,8.606754,,,,,,,
33196079,,,,-0.31077412,0.21260789,-0.13572557,,,,
33196080,1.1031175,0.14336924,8.839116,,,,,,,
33196083,1.0647899,0.07150489,9.138551,,,,,,,
33196084,,,,-0.31982887,0.24776158,-0.12986661,-5.92803,-50.43561,-16.665176,
33196085,0.9833436,0.07150489,9.337376,,,,,,,
33196088,0.9809481,0.06910941,9.466731,,,,,,,
33196089,,,,-0.31237203,0.2680016,-0.12560557,,,,
33196091,0.8947109,0.05713202,9.689511,,,,,,,
33196093,0.8635696,0.08587776,9.907499,,,,,,,
33196094,,,,-0.28733835,0.2733279,-0.11921399,-4.544256,-50.115154,-16.324936,
33196096,0.78930986,0.10743706,10.063206,,,,,,,
33196098,0.70786357,0.10983254,10.204539,,,,,,,
33196099,,,,-0.2468583,0.25788158,-0.11335504,,,,
33196101,0.66714036,0.12899637,10.3027525,,,,,,,
33196103,0.6024625,0.12660089,10.357849,,,,,,,
33196104,,,,-0.19412777,0.22326052,-0.105365574,-5.778488,-47.915745,-15.916817,
33196106,0.5377846,0.15774211,10.408154,,,,,,,
33196108,0.5617394,0.10743706,10.38899,,,,,,,
33196109,,,,-0.14033195,0.18011735,-0.09524557,,,,
33196111,0.60964894,0.14097376,10.41534,,,,,,,
33196113,0.6120444,0.19127882,10.360245,,,,,,,
33196114,,,,-0.08653616,0.12898469,-0.08832135,-4.2384605,-49.36186,-15.552231,
33196116,0.63120824,0.21283811,10.285985,,,,,,,
33196118,0.6455811,0.15774211,10.192561,,,,,,,
33196119,,,,-0.035403512,0.08051521,-0.08725609,,,,
33196121,0.58569413,0.14576472,10.09195,,,,,,,
33196123,0.6048579,0.19606978,10.005713,,,,,,,
33196124,,,,0.01359861,0.04429625,-0.08832135,-4.546829,-49.35726,-14.940895,
33196126,0.57371676,0.23918839,9.900312,,,,,,,
33196128,0.5593439,0.25356126,9.814075,,,,,,,
33196129,,,,0.054611254,0.015001505,-0.08832135,,,,
33196131,0.52820265,0.27512056,9.699093,,,,,,,42.0
33196133,0.5090388,0.27512056,9.579319,,,,,,,
33196134,,,,0.08923232,-0.016423771,-0.08459293,-5.0067177,-49.675293,-16.031998,
33196136,0.5329936,0.2703296,9.4044485,,,,,,,
33196138,0.56413484,0.2703296,9.2128105,,,,,,,
33196139,,,,0.11320074,-0.045185886,-0.079266615,,,,
33196141,0.5761122,0.25595674,9.102619,,,,,,,
33196143,0.6407901,0.25356126,8.870256,,,,,,,
33196144,,,,0.12278812,-0.071817465,-0.07500556,-5.934822,-45.713894,-16.410492,
33196146,0.6791178,0.25116578,8.733715,,,,,,,
33196148,0.7294228,0.3158437,8.6355,,,,,,,
33196149,,,,0.11799443,-0.09312274,-0.07180977,,,,
33196151,0.7749369,0.33021656,8.4797945,,,,,,,
33196153,0.8420104,0.3853126,8.419908,,,,,,,
33196154,,,,0.107341796,-0.100046955,-0.06701609,-5.6243305,-47.77295,-16.378922,
33196156,0.86836064,0.38770807,8.3743925,,,,,,,
33196158,0.83721936,0.4188493,8.336065,,,,,,,
33196159,,,,0.09296074,-0.09099221,-0.067548715,,,,
33196161,0.82284653,0.4260357,8.304925,,,,,,,
33196163,0.7964963,0.43082666,8.278574,,,,,,,
33196164,,,,0.07804705,-0.071817465,-0.073407665,-5.9339256,-48.62038,-13.591057,
33196166,0.770146,0.4715498,8.273783,,,,,,,
33196168,0.7725414,0.5266458,8.240247,,,,,,,
33196169,,,,0.061002832,-0.046251148,-0.07021188,,,,
33196171,0.78930986,0.5362277,8.285761,,,,,,,
33196173,0.82284653,0.6152785,8.367208,,,,,,,
33196174,,,,0.042893354,-0.03453325,-0.07074451,-5.932873,-47.766037,-15.612854,
33196176,0.7677505,0.6631881,8.424698,,,,,,,
33196178,0.76295954,0.65121067,8.463026,,,,,,,
33196179,,,,0.030110193,-0.029206932,-0.069679245,,,,
33196181,0.79170537,0.6607926,8.48698,,,,,,,
33196183,0.74140024,0.72547054,8.4797945,,,,,,,
33196184,,,,0.028512299,-0.017489033,-0.06488556,-6.3931084,-48.079445,-16.394493,
33196186,0.7437957,0.70151573,8.532495,,,,,,,
33196188,0.71984094,0.7087022,8.587591,,,,,,,
33196189,,,,0.033838615,-4.4481683E-4,-0.05370028,,,,
33196191,0.6910952,0.727866,8.704968,,,,,,,
33196193,0.69588614,0.7973349,8.779229,,,,,,,
33196194,,,,0.047154408,0.013403608,-0.043047648,-5.6260166,-48.039974,-14.5187,
33196196,0.65995395,0.86680377,8.772043,,,,,,,
33196198,0.65995395,0.86440825,8.779229,,,,,,,
33196199,,,,0.07272073,0.026719403,-0.02813396,,,,
33196201,0.66714036,0.90034044,8.875048,,,,,,,
33196203,0.6503721,0.89554954,8.963681,,,,,,,
33196204,,,,0.09615653,0.0384373,-0.016948694,-5.3140965,-49.394413,-16.661964,
33196206,0.6144399,0.9362726,8.956493,,,,,,,
33196209,0.6455811,0.91471326,9.013986,0.1291797,0.036306772,-0.008959216,,,,
33196211,0.6431856,0.9362726,9.097828,,,,,,,
33196214,0.6144399,0.9314817,9.2128105,0.16699657,0.018197294,-0.0025676363,-5.9341736,-47.31455,-14.999062,
33196216,0.6503721,0.893154,9.330189,,,,,,,
33196219,0.655163,0.90513146,9.433195,0.21706395,-0.01056482,9.552261E-5,,,,
33196221,0.70307255,0.90273595,9.514641,,,,,,,
33196224,0.7222364,0.89554954,9.464335,0.2767187,-0.047849048,0.0043565766,-5.781931,-47.14627,-13.759102,
33196226,0.74140024,0.94345903,9.490685,,,,,,,
33196229,0.8156601,0.94825006,9.399658,,,,,,,
33196230,,,,0.34010187,-0.08886169,0.0064871036,,,,
33196231,0.83961487,0.9171088,9.279883,,,,,,,
33196234,0.92345667,0.93866813,9.152924,,,,-5.931547,-48.36262,-16.070206,
33196235,,,,0.39975664,-0.12295012,0.0038239448,,,,
33196236,1.0168803,1.0009506,9.045127,,,,,,,
33196239,1.105513,0.98897314,8.894212,,,,,,,
33196240,,,,0.4492914,-0.14212486,-0.0036328998,,,,
33196241,1.1366543,0.9338771,8.669037,,,,,,,
33196244,1.1103039,0.9674139,8.520517,,,,-6.3928604,-49.385277,-14.986488,
33196245,,,,0.4849777,-0.14425538,-0.012155008,,,,
33196246,1.1126994,0.95543647,8.352834,,,,,,,
33196249,1.1725863,1.0584421,8.228269,,,,,,,
33196250,,,,0.5014893,-0.12614591,-0.016948694,,,,
33196251,1.1438407,1.0895833,8.127659,,,,,,,
33196254,1.1246767,1.1662385,8.03184,,,,-5.1648827,-47.883244,-14.354286,
33196255,,,,0.49722826,-0.10111222,-0.017481325,,,,
33196256,1.0839536,1.2381029,7.9911165,,,,,,,
33196259,1.0695808,1.3003854,8.015072,,,,,,,
33196260,,,,0.4849777,-0.0622301,-0.014285535,,,,
33196261,1.0528125,1.3842272,7.9599752,,,,,,,
33196264,1.050417,1.4081819,7.9240427,,,,-7.4735603,-48.337326,-12.858803,
33196265,,,,0.4647377,-0.026011143,-0.007361322,,,,
33196266,1.0576034,1.4057864,7.9336247,,,,,,,
33196269,1.1318632,1.448905,7.9336247,,,,,,,
33196270,,,,0.4327798,6.204467E-4,-9.697409E-4,,,,
33196271,1.1701909,1.4393232,8.022258,,,,,,,
33196274,1.2276824,1.4920237,8.060586,,,,-5.780712,-47.162487,-14.842239,
33196275,,,,0.3976261,0.009675187,-9.697409E-4,,,,
33196276,1.2684056,1.5399333,8.134846,,,,,,,
33196279,1.3187104,1.468069,8.261806,,,,,,,
33196280,,,,0.36247241,0.005414132,-0.008959216,,,,
33196281,1.3594338,1.458487,8.410325,,,,,,,
33196284,1.3594338,1.468069,8.46063,,,,-5.6277733,-47.003475,-14.221222,
33196285,,,,0.33051452,-0.014825874,-0.02174238,,,,
33196286,1.4025522,1.4968146,8.5923815,,,,,,,
33196289,1.4696257,1.453696,8.6977825,,,,,,,
33196290,,,,0.30601344,-0.044653255,-0.03772133,,,,
33196291,1.4792076,1.4321368,8.757669,,,,,,,
33196294,1.4432755,1.4057864,8.83672,,,,-5.472849,-48.173462,-13.739517,
33196295,,,,0.28896922,-0.0723501,-0.0590266,,,,
33196296,1.4528574,1.3602724,8.920562,,,,,,,
33196299,1.4744166,1.3890182,8.951704,,,,,,,
33196300,,,,0.28151238,-0.09365538,-0.079266615,,,,
33196301,1.4289026,1.3794361,9.004404,,,,,,,
33196304,1.380993,1.3602724,9.105014,,,,-5.4752846,-48.141033,-11.573257,
33196305,,,,0.27938184,-0.109634325,-0.100571886,,,,
33196306,1.3450608,1.3842272,9.138551,,,,,,,
33196309,1.2827784,1.3602724,9.140945,,,,,,,
33196310,,,,0.28097975,-0.116558544,-0.11548557,,,,
33196311,1.2324734,1.4249502,9.191251,,,,,,,
33196314,1.1462362,1.4249502,9.272697,,,,-5.012184,-48.299973,-12.798012,
33196315,,,,0.28470817,-0.11336275,-0.12347505,,,,
33196316,1.0647899,1.453696,9.265511,,,,,,,
33196319,1.0240668,1.4560915,9.289466,,,,,,,
33196320,,,,0.28417554,-0.11229749,-0.118681364,,,,
33196322,0.940225,1.458487,9.3253975,,,,,,,
33196324,0.9426204,1.4417187,9.323003,,,,-5.6273327,-49.324963,-11.718094,
33196325,,,,0.28044713,-0.111764856,-0.11228978,,,,
33196327,0.8971064,1.3914136,9.399658,,,,,,,
33196329,0.8611741,1.3770406,9.490685,,,,,,,
33196330,,,,0.27245766,-0.109634325,-0.10483294,,,,
33196332,0.8491968,1.3435041,9.488291,,,,,,,
33196334,0.8060781,1.3267356,9.555364,,,,-6.7038383,-49.345936,-12.054161,
33196335,,,,0.26020712,-0.11229749,-0.09790872,,,,
33196337,0.8060781,1.3435041,9.5960865,,,,,,,
33196339,0.7725414,1.3219447,9.653579,,,,,,,
33196340,,,,0.24103238,-0.12135222,-0.088853985,,,,
33196342,0.8036827,1.2668487,9.632019,,,,,,,
33196344,0.8923154,1.1854024,9.73263,,,,-7.012802,-48.030876,-12.541359,
33196345,,,,0.21440078,-0.14691855,-0.08192977,,,,
33196347,0.8563832,1.168634,9.873962,,,,,,,
33196349,0.8563832,1.1830069,9.696697,,,,,,,
33196350,,,,0.18989973,-0.16396277,-0.085125566,,,,
33196352,0.83721936,1.1638432,9.5362,,,,,,,
33196354,0.70307255,1.2021707,9.691906,,,,-5.16514,-50.195465,-11.2322235,
33196355,,,,0.17285551,-0.12401538,-0.07660346,,,,
33196357,0.6479766,1.1949843,9.979363,,,,,,,
33196359,0.5665303,1.1854024,10.182979,,,,,,,
33196360,,,,0.1627355,-0.0707522,-0.051569756,,,,
33196362,0.5234117,1.178216,10.3818035,,,,,,,
33196364,0.5090388,1.1758205,10.583024,,,,-6.705652,-48.019257,-12.069565,
33196365,,,,0.16752918,-0.026543774,-0.017481325,,,,
33196367,0.44915187,1.1949843,10.79143,,,,,,,
33196369,0.43956995,1.2381029,10.937555,,,,,,,
33196370,,,,0.1829755,0.011805714,0.021400793,,,,
33196372,0.48268855,1.2692441,11.131589,,,,,,,
33196374,0.45394284,1.288408,11.201057,,,,-5.474415,-48.152615,-12.346924,
33196375,,,,0.20747657,0.041100457,0.062413435,,,,
33196377,0.45394284,1.3267356,11.308854,,,,,,,
33196379,0.5545529,1.3626678,11.3376,,,,,,,
33196380,,,,0.23037975,0.04376362,0.10076292,,,,
33196382,0.6407901,1.3626678,11.366345,,,,,,,
33196384,0.7557731,1.3363175,11.404674,,,,-7.473503,-48.627514,-12.545914,
33196385,,,,0.25221762,0.022990981,0.13591662,,,,
33196387,0.87315154,1.3051764,11.414255,,,,,,,
33196389,1.0312531,1.288408,11.3591585,,,,,,,
33196390,,,,0.27192503,-0.0073690293,0.15775453,,,,
33196392,1.1534225,1.2740351,11.4118595,,,,,,,
33196394,1.3378744,1.2141482,11.371137,,,,-7.322672,-47.427372,-11.317947,
33196395,,,,0.28790396,-0.03400062,0.16574399,,,,
33196397,1.4696257,1.2045662,11.36395,,,,,,,
33196399,1.5534675,1.2117527,11.287294,,,,,,,
33196400,,,,0.29908925,-0.05903431,0.16148295,,,,
33196402,1.661264,1.2428938,11.112425,,,,,,,
33196404,1.8025973,1.2381029,11.11003,,,,-7.780985,-49.647827,-11.458389,
33196405,,,,0.29536083,-0.08300274,0.14124294,,,,
33196407,1.8864391,1.2165437,11.011815,,,,,,,
33196409,1.9678853,1.2189391,10.93516,,,,,,,
33196410,,,,0.27938184,-0.11283012,0.10662187,,,,
33196412,2.0277722,1.1949843,10.904018,,,,,,,
33196414,2.0157948,1.233312,10.853713,,,,-6.85915,-48.89446,-11.289429,
33196415,,,,0.2564787,-0.15224487,0.066674486,,,,
33196417,2.006213,1.2668487,10.844131,,,,,,,
33196419,1.9942355,1.2500803,10.824967,,,,,,,
33196420,,,,0.22931448,-0.19006172,0.027792374,,,,
33196422,1.9750717,1.233312,10.789036,,,,,,,
33196424,1.9295576,1.2261256,10.753103,,,,-7.4752426,-48.60435,-10.998581,
33196425,,,,0.19309552,-0.22574805,-0.0025676363,,,,
33196427,1.9630942,1.1877979,10.762685,,,,,,,
33196429,1.9056027,1.1446793,10.779454,,,,,,,
33196430,,,,0.1542134,-0.25717333,-0.02760133,,,,
33196432,1.8840435,1.118329,10.769872,,,,,,,
33196434,,,,,,,-7.322378,-47.141823,-11.9403,
33196435,1.8265519,1.0967697,10.848923,0.11639654,-0.272087,-0.043047648,,,,
33196437,1.8025973,1.0536511,10.841736,,,,,,,
33196440,1.8073881,1.072815,10.789036,0.08284073,-0.26569542,-0.051569756,,,,
33196442,1.766665,1.0967697,10.832154,,,,,,,
33196444,,,,,,,-6.3966503,-48.61117,-12.519318,
33196445,1.6852187,1.1422838,10.810595,0.05301336,-0.23640068,-0.055298176,,,,
33196447,1.6181453,1.0967697,10.774663,,,,,,,
33196450,1.601377,1.0991652,10.774663,0.027979668,-0.17994171,-0.04997186,,,,
33196452,1.5558629,1.1518657,10.81299,,,,,,,
33196454,,,,,,,-8.861326,-47.73627,-10.733574,
33196455,1.5175352,1.173425,10.810595,,,,,,,
33196456,,,,0.0018807102,-0.104840636,-0.04091712,,,,
33196457,1.4935805,1.113538,10.858504,,,,,,,
33196460,1.4097388,1.0560466,10.899228,,,,,,,
33196461,,,,-0.025816139,-0.026011143,-0.02813396,,,,
33196462,1.3666202,1.063233,10.973487,,,,,,,
33196464,,,,,,,-8.704834,-48.927105,-11.644485,
33196465,1.3450608,1.0656285,10.980674,,,,,,,
33196466,,,,-0.044990886,0.048024673,-0.01801396,,,,
33196467,1.3019422,1.0704194,11.057329,,,,,,,
33196470,1.2684056,1.0656285,11.129193,,,,,,,
33196471,,,,-0.06629615,0.10821207,-0.0046981634,,,,
33196472,1.215705,1.0991652,11.18908,,,,,,,
33196474,,,,,,,-6.7045345,-49.33667,-11.435219,
33196475,1.1749818,1.0536511,11.294482,,,,,,,
33196476,,,,-0.081209846,0.15614893,0.008617631,,,,
33196477,1.1630045,1.0368828,11.3376,,,,,,,
33196480,1.1414452,1.0464647,11.419045,,,,,,,
33196481,,,,-0.087068796,0.19183525,0.019270265,,,,
33196482,1.0911402,0.9793912,11.478932,,,,,,,38.0
33196484,,,,,,,-6.85927,-49.182327,-10.8218,
33196485,1.1390496,0.9290862,11.534029,,,,,,,
33196486,,,,-0.09612354,0.2078142,0.022466058,,,,
33196487,1.1438407,0.8524308,11.608289,,,,,,,
33196490,1.1486316,0.85482633,11.63943,,,,,,,
33196491,,,,-0.10517827,0.20035736,0.016074475,,,,
33196492,1.1630045,0.7566117,11.670572,,,,,,,
33196494,,,,,,,-5.9400063,-47.671066,-9.268791,
33196495,1.1222814,0.6967248,11.620267,,,,,,,
33196496,,,,-0.119559325,0.16946472,-4.3710915E-4,,,,
33196497,1.0983264,0.7206795,11.557983,,,,,,,
33196500,1.0384396,0.6607926,11.476538,,,,,,,
33196501,,,,-0.14246249,0.11992996,-0.023340276,,,,
33196502,1.0096939,0.60809207,11.399883,,,,,,,
33196504,,,,,,,-8.090588,-48.61369,-11.013779,
33196505,0.9785526,0.5410187,11.203453,,,,,,,
33196506,,,,-0.17282249,0.0602752,-0.046243437,,,,
33196507,0.9498069,0.4715498,11.033374,,,,,,,
33196510,0.9522023,0.40926737,10.853713,,,,,,,
33196511,,,,-0.21862884,0.0027509737,-0.067548715,,,,
33196512,0.83242834,0.34698492,10.690821,,,,,,,
33196514,,,,,,,-6.554104,-47.841717,-10.210678,
33196515,0.7006771,0.29188892,10.501577,,,,,,,
33196516,,,,-0.27934885,-0.03985957,-0.08352766,,,,
33196517,0.6240218,0.2367929,10.333895,,,,,,,
33196520,0.44436085,0.16971952,10.233285,,,,,,,
33196521,,,,-0.3603089,-0.0622301,-0.09204978,,,,
33196522,0.34614623,0.15055569,10.115906,,,,,,,
33196524,,,,,,,-8.553059,-49.042072,-9.627441,
33196525,0.2431407,0.09066872,10.036855,,,,,,,
33196526,,,,-0.4561826,-0.06595852,-0.08619083,,,,
33196527,0.14253059,0.01401341,9.976968,,,,,,,
33196530,0.05629337,-0.04347807,9.948223,,,,,,,
33196531,,,,-0.5568501,-0.05796905,-0.07180977,,,,
33196532,-0.039525762,-0.105760545,9.936245,,,,,,,
33196534,,,,,,,-8.091688,-48.309605,-10.39827,
33196535,-0.14971778,-0.18960229,10.015296,,,,,,,
33196536,,,,-0.65751743,-0.044653255,-0.051569756,,,,
33196537,-0.180859,-0.27344403,10.0656,,,,,,,
33196540,-0.21679117,-0.40279987,10.120697,,,,,,,
33196541,,,,-0.74859744,-0.023880614,-0.02174238,,,,
33196542,-0.2575143,-0.5585059,10.285985,,,,,,,
33196544,,,,,,,-8.550219,-49.36932,-11.790283,
33196545,-0.24553691,-0.6902572,10.544697,,,,,,,
33196546,,,,-0.8167743,0.004348869,0.013411316,,,,
33196548,-0.21918665,-0.7764945,10.741126,,,,,,,
33196550,-0.28626004,-0.87950015,10.983068,,,,,,,
33196551,,,,-0.8567217,0.036306772,0.04803238,,,,
33196553,-0.34854248,-0.97052824,11.229804,,,,,,,
33196554,,,,,,,-7.4760494,-48.014717,-11.0054245,
33196555,-0.3701018,-1.0112513,11.505284,,,,,,,
33196556,,,,-0.86258066,0.07146047,0.090642914,,,,
33196558,-0.42040685,-1.0136468,11.833464,,,,,,,
33196560,-0.4156159,-1.0280197,12.130504,,,,,,,
33196561,,,,-0.8300901,0.10182048,0.13431874,,,,
33196563,-0.3581244,-1.0136468,12.425147,,,,,,,
33196564,,,,,,,-8.85955,-47.036285,-13.217873,
33196565,-0.27188718,-1.0352061,12.68865,,,,,,,
33196566,,,,-0.75765216,0.12472364,0.17533137,,,,
33196568,-0.2024183,-1.0136468,12.928198,,,,,,,
33196570,-0.10899465,-1.0735339,13.155767,,,,,,,
33196571,,,,-0.6473974,0.1375068,0.20995243,,,,
33196573,0.022756696,-1.174144,13.292311,,,,,,,
33196574,,,,,,,-9.014458,-46.87963,-12.449715,
33196575,0.09222555,-1.2388219,13.486343,,,,,,,
33196576,,,,-0.50625,0.14602892,0.2328556,,,,
33196578,0.20720854,-1.334641,13.625282,,,,,,,
33196580,0.34135532,-1.384946,13.654028,,,,,,,
33196581,,,,-0.3352752,0.14016996,0.23818192,,,,
33196582,,,,,,,,,,33.0
33196583,0.4563383,-1.4280646,13.658819,,,,,,,
33196584,,,,,,,-7.9365234,-48.90385,-10.851822,
33196585,0.52820265,-1.4663924,13.574977,,,,,,,
33196586,,,,-0.15311512,0.11194048,0.23232298,,,,
33196588,0.655163,-1.4903471,13.376152,,,,,,,
33196590,0.7797278,-1.4639969,12.992876,,,,,,,
33196591,,,,0.026914405,0.06879731,0.2126156,,,,
33196593,0.8587786,-1.4184828,12.674277,,,,,,,
33196594,,,,,,,-7.783512,-47.298553,-12.104721,
33196595,0.87315154,-1.3777596,12.38682,,,,,,,
33196596,,,,0.17658393,0.019262558,0.17959243,,,,
33196598,0.87075615,-1.3274544,11.965215,,,,,,,
33196600,0.83242834,-1.2579856,11.56038,,,,,,,
33196601,,,,0.28896922,-0.02281535,0.13911241,,,,
33196603,0.770146,-1.1549801,11.184289,,,,,,,
33196604,,,,,,,-10.243204,-47.06888,-14.025734,
33196605,0.68151325,-1.0950931,10.777058,,,,,,,
33196606,,,,0.36140716,-0.05850168,0.100230284,,,,
33196608,0.57132125,-0.97292376,10.470437,,,,,,,
33196610,0.49227053,-0.9178277,10.058414,,,,,,,
33196611,,,,0.38963664,-0.09844906,0.066674486,,,,
33196613,0.4563383,-0.7812855,9.624833,,,,,,,
33196614,,,,,,,-9.783289,-46.89594,-12.778183,
33196615,0.38926488,-0.71900296,9.258325,,,,,,,
33196616,,,,0.3821798,-0.1527775,0.033651326,,,,
33196618,0.31500506,-0.58725166,8.901398,,,,,,,
33196620,0.29344577,-0.498619,8.573217,,,,,,,
33196621,,,,0.33584082,-0.22361752,9.552261E-5,,,,
33196623,0.2503271,-0.388427,8.292947,,,,,,,
33196624,,,,,,,-10.245694,-46.746265,-12.172363,
33196625,0.17606732,-0.278235,8.072563,,,,,,,
33196626,,,,0.26073977,-0.3051102,-0.031329747,,,,
33196628,0.17606732,-0.2423028,7.844992,,,,,,,
33196630,0.12815776,-0.15606555,7.672518,,,,,,,
33196631,,,,0.1643334,-0.39086387,-0.056896076,,,,
33196633,0.104202926,0.01640886,7.5455575,,,,,,,
33196634,,,,,,,-9.321781,-46.888935,-12.766785,
33196635,0.029943138,0.11941446,7.437761,,,,,,,
33196636,,,,0.06260073,-0.46383443,-0.073407665,,,,
33196638,-0.032339334,0.22481552,7.3443375,,,,,,,
33196640,-0.13774037,0.27751604,7.368292,,,,,,,
33196641,,,,-0.039664567,-0.50751024,-0.07394029,,,,
33196643,-0.25511882,0.33979848,7.3730826,,,,,,,
33196644,,,,,,,-9.3238125,-47.151325,-10.597099,
33196645,-0.3245877,0.3589623,7.4042244,,,,,,,
33196646,,,,-0.13394038,-0.51443446,-0.06275502,,,,
33196648,-0.38926563,0.38770807,7.423388,,,,,,,
33196650,-0.44196618,0.39249903,7.512021,,,,,,,
33196651,,,,-0.21063936,-0.4798134,-0.033992905,,,,
33196653,-0.46112996,0.39010352,7.66054,,,,,,,
33196654,,,,,,,-7.9387283,-46.414116,-11.964058,
33196655,-0.51383054,0.3829171,7.746778,,,,,,,
33196656,,,,-0.25964147,-0.3988534,0.005954472,,,,
33196658,-0.5497627,0.3853126,7.88332,,,,,,,
33196661,-0.6168361,0.34698492,7.971953,-0.27562043,-0.261967,0.05921765,,,,
33196663,-0.6647457,0.29667988,8.106099,,,,,,,
33196664,,,,,,,-9.783235,-47.186123,-12.465286,
33196666,-0.65516376,0.2679341,8.292947,-0.26017413,-0.08619852,0.11833977,,,,
33196668,-0.62162703,0.22481552,8.48698,,,,,,,
33196671,-0.61204517,0.19606978,8.642687,-0.23034672,0.08797205,0.1742661,,,,
33196673,-0.56413555,0.13139185,8.841512,,,,,,,
33196674,,,,,,,-9.627201,-47.791954,-13.6925125,
33196676,-0.5090395,0.05713202,9.002008,-0.19093198,0.23764159,0.2227356,,,,
33196678,-0.50664407,0.035572723,9.255929,,,,,,,
33196681,-0.46831644,-0.045873553,9.473918,,,,,,,
33196682,,,,-0.1392667,0.34949425,0.2578893,,,,
33196683,-0.40603396,-0.06503737,9.651183,,,,,,,30.0
33196684,,,,,,,-11.01407,-47.34758,-12.184509,
33196686,-0.39405656,-0.12252888,9.88594,,,,,,,
33196687,,,,-0.07961195,0.40701848,0.28239036,,,,
33196688,-0.39645207,-0.2399073,9.976968,,,,,,,
33196691,-0.3605199,-0.278235,10.075183,,,,,,,
33196692,,,,-0.013032978,0.40275744,0.2967714,,,,
33196693,-0.31261033,-0.29739884,10.173398,,,,,,,
33196694,,,,,,,-9.165409,-48.367638,-13.21006,
33196696,-0.25272334,-0.32854,10.230888,,,,,,,
33196697,,,,0.055143885,0.34842896,0.30263034,,,,
33196698,-0.16169517,-0.29979423,10.247657,,,,,,,
33196701,-0.044316724,-0.34291288,10.26203,,,,,,,
33196702,,,,0.12332074,0.2600121,0.303163,,,,
33196703,-0.008384541,-0.34291288,10.197351,,,,,,,
33196704,,,,,,,-10.707148,-47.043457,-11.870865,
33196706,0.03712955,-0.3309355,10.182979,,,,,,,
33196707,,,,0.19256288,0.14762682,0.29517353,,,,
33196708,0.1329487,-0.39800885,9.991341,,,,,,,
33196711,0.23595428,-0.41477725,9.797307,,,,,,,
33196712,,,,0.24689132,0.022990981,0.28079244,,,,
33196713,0.32219148,-0.38603148,9.55776,,,,,,,
33196714,,,,,,,-10.245017,-45.7422,-14.041138,
33196716,0.434779,-0.35489032,9.320607,,,,,,,
33196717,,,,0.27405554,-0.09844906,0.25575876,,,,
33196718,0.5401801,-0.32614455,8.922957,,,,,,,
33196721,0.6216263,-0.3453084,8.642687,,,,,,,
33196722,,,,0.27725133,-0.19911645,0.22593139,,,,
33196723,0.7126545,-0.31895813,8.295342,,,,,,,
33196724,,,,,,,-10.397883,-47.204727,-13.099419,
33196726,0.820451,-0.26865306,8.074959,,,,,,,
33196727,,,,0.25754395,-0.272087,0.19237559,,,,
33196728,0.95938873,-0.3477039,7.765941,,,,,,,
33196731,1.0767672,-0.36207673,7.4856706,,,,,,,
33196732,,,,0.22025973,-0.3067081,0.15455873,,,,
33196733,1.155818,-0.35728577,7.365896,,,,,,,
33196734,,,,,,,-10.244824,-46.757847,-12.94603,
33196736,1.2181005,-0.29260787,7.2964277,,,,,,,
33196737,,,,0.16806182,-0.31043652,0.11301345,,,,
33196738,1.2540326,-0.25188467,7.270077,,,,,,,
33196741,1.2468462,-0.20157966,7.2748685,,,,,,,
33196742,,,,0.11479864,-0.28273964,0.066674486,,,,
33196743,1.1797727,-0.11055148,7.270077,,,,,,,
33196744,,,,,,,-12.242852,-48.25997,-12.823563,
33196746,1.1246767,-0.06982833,7.317987,,,,,,,
33196747,,,,0.074318625,-0.23799857,0.027792374,,,,
33196748,1.0336486,0.004431486,7.3227777,,,,,,,
33196751,0.93064296,0.10025062,7.4425516,,,,,,,
33196752,,,,0.041828092,-0.1847354,-0.007361322,,,,
33196753,0.8156601,0.18888333,7.516812,,,,,,,
33196754,,,,,,,-10.398697,-47.48333,-12.012863,
33196756,0.6479766,0.2367929,7.598258,,,,,,,
33196757,,,,0.017327031,-0.12508065,-0.027068699,,,,
33196758,0.5234117,0.34219396,7.598258,,,,,,,
33196761,0.3916604,0.40687189,7.603049,,,,,,,
33196762,,,,0.007207028,-0.05530589,-0.029199222,,,,
33196763,0.23834974,0.48592266,7.5958624,,,,,,,
33196764,,,,,,,-9.937811,-46.020763,-13.256454,
33196766,0.10659844,0.51227295,7.4880657,,,,,,,
33196767,,,,2.8281525E-4,0.023523612,-0.013752902,,,,
33196768,-0.001198113,0.5002955,7.4545293,,,,,,,
33196771,-0.07785343,0.5362277,7.526394,,,,,,,
33196772,,,,-0.0103698205,0.11673417,0.0144765815,,,,
33196774,-0.14253134,0.5410187,7.5216026,,,,-11.169974,-45.585632,-12.518318,
33196776,-0.22158213,0.60330117,7.598258,,,,,,,
33196777,,,,-0.026881402,0.22006473,0.054423966,,,,
33196779,-0.32937866,0.66558355,7.6988683,,,,,,,
33196781,-0.4802938,0.68953836,7.8018737,,,,,,,
33196782,,,,-0.03487088,0.33351532,0.0970345,,,,
33196783,,,,,,,,,,28.0
33196784,-0.5305989,0.73505247,7.9839296,,,,-11.169974,-45.585632,-12.518318,
33196786,-0.62162703,0.7134931,8.122869,,,,,,,
33196787,,,,-0.040197197,0.43791112,0.1439061,,,,
33196789,-0.6575592,0.7063067,8.338461,,,,,,,
33196791,-0.7030733,0.60330117,8.498958,,,,,,,
33196792,,,,-0.035936143,0.51247954,0.19876717,,,,
33196794,-0.69109595,0.5961147,8.702574,,,,-11.9370575,-47.506676,-12.050858,
33196796,-0.62162703,0.56976444,8.848698,,,,,,,
33196797,,,,-0.027946668,0.54656804,0.25043246,,,,
33196799,-0.5545536,0.46675885,8.999613,,,,,,,
33196801,-0.4347797,0.39968544,9.215206,,,,,,,
33196802,,,,-0.012500348,0.54390484,0.293043,,,,
33196804,-0.38687015,0.29907534,9.354144,,,,-11.015827,-46.31108,-11.887024,
33196806,-0.29584196,0.27272508,9.502664,,,,,,,
33196807,,,,0.018924925,0.50875115,0.3218051,,,,
33196809,-0.16169517,0.33261204,9.552969,,,,,,,
33196811,-0.10899465,0.22242004,9.5170355,,,,,,,
33196812,,,,0.058339674,0.45495534,0.33938196,,,,
33196814,-0.008384541,0.15055569,9.533805,,,,-11.4754305,-47.211803,-12.50708,
33196816,0.13773966,0.14336924,9.512245,,,,,,,
33196817,,,,0.08923232,0.37932163,0.35163248,,,,
33196819,0.29105026,0.09066872,9.464335,,,,,,,
33196821,0.37010103,0.11941446,9.366121,,,,,,,
33196822,,,,0.11533128,0.28025213,0.34470826,,,,
33196824,0.5114343,0.09066872,9.332584,,,,-9.940128,-45.70047,-11.557808,
33196826,0.6359992,0.03796819,9.394867,,,,,,,
33196827,,,,0.124918655,0.1657363,0.31967458,,,,
33196829,0.79410076,0.018804371,9.380494,,,,,,,
33196831,0.87794244,0.028386295,9.356539,,,,,,,
33196832,,,,0.13610393,0.04536151,0.28398827,,,,
33196834,0.9090837,0.023595303,9.296652,,,,-12.398594,-47.36859,-12.218704,
33196836,0.9929255,0.021199852,9.200832,,,,,,,
33196837,,,,0.14675656,-0.06862168,0.24457349,,,,
33196839,1.045626,0.07390037,9.20802,,,,,,,
33196841,1.0839536,0.07869133,9.090641,,,,,,,
33196842,,,,0.16007236,-0.16183223,0.20462611,,,,
33196844,1.1246767,0.047550112,9.002008,,,,-12.707365,-47.06917,-11.610786,
33196846,1.1677954,0.10743706,9.004404,,,,,,,
33196847,,,,0.17179026,-0.22734594,0.16627663,,,,
33196849,1.1701909,0.112228036,8.951704,,,,,,,
33196851,1.160609,0.17451046,8.934935,,,,,,,
33196852,,,,0.18617131,-0.2550428,0.1305903,,,,
33196854,1.1174904,0.24637482,8.913376,,,,-11.168629,-47.195553,-11.725815,
33196856,1.0911402,0.23918839,8.819952,,,,,,,
33196857,,,,0.20321551,-0.25291225,0.10502397,,,,
33196859,1.0623944,0.29907534,8.812766,,,,,,,
33196861,0.99053,0.27751604,8.822348,,,,,,,
33196862,,,,0.21919447,-0.22574805,0.08797976,,,,
33196864,0.92345667,0.32063466,8.731319,,,,-11.940784,-46.15452,-10.364204,
33196866,0.8947109,0.34219396,8.506145,,,,,,,
33196867,,,,0.22878185,-0.17674592,0.07945765,,,,
33196869,0.8563832,0.37812614,8.297738,,,,,,,
33196871,0.8468013,0.4380131,8.163591,,,,,,,
33196872,,,,0.2245208,-0.11868907,0.076261856,,,,
33196874,0.9330385,0.47394526,7.9599752,,,,-11.016733,-47.022644,-10.176399,
33196876,0.9522023,0.48592266,7.873738,,,,,,,
33196877,,,,0.1962913,-0.05850168,0.075196594,,,,
33196879,1.0120893,0.5386232,7.8114552,,,,,,,
33196881,1.0623944,0.57695085,7.746778,,,,,,,
33196882,,,,0.15900707,-0.0052385023,0.06773975,,,,
33196884,1.040835,0.5745554,7.670122,,,,-11.324927,-47.020367,-9.719803,
33196887,1.0863491,0.64162874,7.6533537,0.110004954,0.04749204,0.06401133,,,,
33196889,1.0552078,0.6775609,7.6198173,,,,,,,
33196892,1.0168803,0.64162874,7.6246085,0.05887231,0.10714679,0.05975028,,,,
33196894,0.9881345,0.6631881,7.6749134,,,,-11.631784,-46.74643,-10.81395,
33196897,0.96417975,0.6775609,7.787501,0.011468082,0.17798682,0.057087123,,,,
33196899,0.9018972,0.6775609,7.947998,,,,,,,
33196902,0.8563832,0.6607926,8.113286,-0.039131936,0.23764159,0.060815547,,,,
33196904,0.8180555,0.68474734,8.336065,,,,-11.632132,-46.7418,-10.504486,
33196907,0.7533776,0.68474734,8.549263,,,,,,,
33196908,,,,-0.07748143,0.27758896,0.06773975,,,,
33196909,0.72702736,0.64162874,8.692992,,,,,,,
33196912,0.6336037,0.6320469,8.793602,,,,,,,
33196913,,,,-0.11156986,0.29410055,0.076261856,,,,
33196914,0.61683536,0.6320469,9.0547085,,,,-12.553098,-47.50675,-11.447128,
33196917,0.5665303,0.6152785,9.23437,,,,,,,
33196918,,,,-0.13447301,0.28877422,0.08212081,,,,
33196919,0.5018524,0.5601825,9.385284,,,,,,,
33196922,0.48268855,0.60569656,9.507455,,,,,,,
33196923,,,,-0.15204987,0.26427317,0.09011028,,,,
33196924,0.48508406,0.54820514,9.749398,,,,-13.016941,-46.180122,-11.0097275,
33196927,0.48508406,0.4955046,9.88594,,,,,,,
33196928,,,,-0.15577827,0.23071736,0.095436595,,,,
33196929,0.5018524,0.43322214,10.051228,,,,,,,
33196932,0.5090388,0.4260357,10.216516,,,,,,,
33196933,,,,-0.14619091,0.19503103,0.09224081,,,,26.0
33196934,0.52820265,0.42364025,10.403364,,,,-13.0175,-46.896324,-9.608574,
33196937,0.5425755,0.3829171,10.554278,,,,,,,
33196938,,,,-0.12648354,0.16147523,0.08744713,,,,
33196939,0.5018524,0.34698492,10.712379,,,,,,,
33196942,0.4659202,0.33261204,10.841736,,,,,,,
33196943,,,,-0.099319324,0.13431102,0.081055544,,,,
33196944,0.44915187,0.33979848,11.021397,,,,-12.248511,-45.869003,-10.684692,
33196947,0.44436085,0.34458944,11.201057,,,,,,,
33196948,,,,-0.058839314,0.11087522,0.076261856,,,,
33196949,0.42519706,0.34219396,11.3591585,,,,,,,
33196952,0.41801065,0.27512056,11.471746,,,,,,,
33196953,,,,-0.0050435024,0.08743942,0.075196594,,,,
33196954,0.42519706,0.24397933,11.581939,,,,-11.169572,-45.880455,-12.514893,
33196957,0.4132197,0.25835222,11.569962,,,,,,,
33196958,,,,0.054611254,0.07039521,0.0735987,,,,
33196959,0.3605191,0.21283811,11.529238,,,,,,,
33196962,0.374892,0.23439743,11.481329,,,,,,,
33196963,,,,0.12119022,0.06293836,0.07945765,,,,
33196964,0.34614623,0.22242004,11.371137,,,,-10.705179,-47.359123,-13.26004,
33196967,0.33656436,0.2152336,11.296877,,,,,,,
33196968,,,,0.17818183,0.058677305,0.09330607,,,,
33196969,0.31500506,0.22481552,11.129193,,,,,,,
33196972,0.31979603,0.26314318,10.880064,,,,,,,
33196973,,,,0.21386816,0.052818358,0.10928503,,,,
33196974,0.37968302,0.20804717,10.640516,,,,-10.707898,-46.744003,-11.564819,
33196977,0.40842873,0.20804717,10.396177,,,,,,,
33196978,,,,0.22239025,0.05494888,0.12845978,,,,
33196979,0.4563383,0.1936743,10.137465,,,,,,,
33196982,0.59048504,0.1816969,9.917081,,,,,,,
33196983,,,,0.19575869,0.05761204,0.1423082,,,,
33196984,0.7485867,0.14576472,9.593692,,,,-11.167356,-47.50195,-12.496063,
33196987,0.8036827,0.08827323,9.471521,,,,,,,
33196988,,,,0.1392997,0.06932995,0.15029767,,,,
33196989,0.9258522,0.06431845,9.3253975,,,,,,,
33196992,1.0576034,0.0020360053,9.217602,,,,,,,
33196993,,,,0.062068097,0.093298376,0.15029767,,,,
33196994,1.1677954,-0.017127812,9.284675,,,,-11.938623,-47.48583,-10.658264,
33196997,1.2181005,-0.06743288,9.414031,,,,,,,
33196998,,,,-0.029544564,0.12046259,0.1471019,,,,
33196999,1.2396598,-0.07461932,9.540991,,,,,,,
33197002,1.2684056,-0.11773792,9.78533,,,,,,,
33197003,,,,-0.11156986,0.15188786,0.135384,,,,
33197004,,,,,,,-11.016175,-46.306446,-11.577553,
33197005,1.2875694,-0.103365034,10.094347,,,,,,,
33197007,1.3354789,-0.11773792,10.369827,,,,,,,
33197008,,,,-0.16749619,0.1859763,0.12260082,,,,
33197010,1.3666202,-0.105760545,10.618957,,,,,,,
33197012,1.325897,-0.11294696,10.8177805,,,,,,,
33197013,,,,-0.19679093,0.22698896,0.11674187,,,,
33197014,,,,,,,-11.94084,-45.864334,-10.6770935,
33197015,1.2875694,-0.15846106,11.117216,,,,,,,
33197017,1.275592,-0.12731981,11.387905,,,,,,,
33197018,,,,-0.19945408,0.2632079,0.11088292,,,,
33197020,1.2827784,-0.15127462,11.627453,,,,,,,
33197022,1.2947557,-0.09617859,11.816696,,,,,,,
33197023,,,,-0.18027934,0.2898395,0.11248082,,,,
33197024,,,,,,,-12.706147,-47.08539,-12.693924,
33197025,1.3067331,-0.06264192,12.0394745,,,,,,,
33197027,1.3091286,-0.04108259,12.319746,,,,,,,
33197028,,,,-0.1408646,0.3063511,0.11301345,,,,
33197030,1.3067331,-3.594756E-4,12.54013,,,,,,,
33197032,1.3522472,-0.03389615,12.722187,,,,,,,
33197033,,,,-0.083873,0.30315527,0.10342608,,,,
33197034,,,,,,,-12.091536,-47.789932,-11.122833,
33197035,1.3450608,-0.0027549267,12.839565,,,,,,,
33197037,1.385784,0.011617929,12.846752,,,,,,,
33197038,,,,-0.02262035,0.27119738,0.09330607,,,,
33197040,1.436089,0.018804371,12.88987,,,,,,,
33197042,1.4768121,0.023595303,12.865915,,,,,,,
33197043,,,,0.039697565,0.21101,0.07306607,,,,
33197044,,,,,,,-11.937754,-47.49741,-11.431931,
33197045,1.54149,-0.04108259,12.820401,,,,,,,
33197047,1.6205409,0.028386295,12.827588,,,,,,,
33197048,,,,0.09935232,0.12738681,0.04803238,,,,
33197050,1.7403147,0.01401341,12.801237,,,,,,,
33197052,1.7403147,0.06910941,12.724582,,,,,,,
33197053,,,,0.14728919,0.034708876,0.016074475,,,,
33197054,,,,,,,-10.398093,-47.92556,-12.007729,
33197055,1.7786424,0.10264611,12.583249,,,,,,,
33197057,1.876857,0.11941446,12.511385,,,,,,,
33197058,,,,0.19469342,-0.050512206,-0.019611852,,,,
33197060,1.9343486,0.08827323,12.298187,,,,,,,
33197062,1.9798627,0.08348228,12.075408,,,,,,,
33197063,,,,0.231445,-0.11442801,-0.060091868,,,,
33197064,,,,,,,-11.478525,-46.446964,-10.658852,
33197065,2.046936,0.112228036,11.816696,,,,,,,
33197067,2.106823,0.11941446,11.553193,,,,,,,
33197068,,,,0.2500871,-0.15224487,-0.10110451,,,,
33197070,2.2050376,0.14336924,11.280108,,,,,,,
33197072,2.2313879,0.1601376,11.133984,,,,,,,
33197073,,,,0.24902184,-0.16183223,-0.1479761,,,,
33197074,,,,,,,-11.630915,-46.75801,-11.587616,
33197075,2.2601335,0.22960648,10.985465,,,,,,,
33197077,2.2840886,0.27991152,10.839341,,,,,,,
33197078,,,,0.22558606,-0.15064697,-0.19005401,,,,
33197080,2.2098286,0.33500752,10.750708,,,,,,,
33197082,2.111614,0.34219396,10.61177,,,,,,,
33197083,,,,0.18989973,-0.12508065,-0.22893614,,,,
33197084,,,,,,,-11.1672735,-47.937233,-12.026726,23.0
33197085,2.0900548,0.337403,10.451273,,,,,,,
33197087,2.006213,0.3589623,10.309939,,,,,,,
33197088,,,,0.14302814,-0.08619852,-0.2603614,,,,
33197090,2.0133994,0.35177588,10.147047,,,,,,,
33197092,1.941535,0.39968544,10.022482,,,,,,,
33197093,,,,0.083905995,-0.037729044,-0.2901888,,,,
33197094,,,,,,,-12.398749,-48.379604,-10.814117,
33197095,1.9056027,0.3853126,9.890731,,,,,,,
33197097,1.8888345,0.39010352,9.735024,,,,,,,
33197098,,,,0.016261768,0.018197294,-0.3125593,,,,
33197100,1.8696704,0.36135778,9.634415,,,,,,,
33197102,1.8337386,0.37333518,9.476313,,,,,,,
33197103,,,,-0.07002458,0.074123636,-0.327473,,,,
33197104,,,,,,,-12.400095,-46.769684,-11.606613,
33197105,1.8313429,0.35417137,9.28228,,,,,,,
33197108,1.7882245,0.38770807,9.08585,-0.18081197,0.12578891,-0.34291935,,,,
33197110,1.7498968,0.3589623,9.109805,,,,,,,
33197113,1.7379192,0.2679341,9.164901,-0.3001215,0.17159525,-0.3557025,,,,
33197114,,,,,,,-12.245691,-47.932728,-10.660728,
33197115,1.6636595,0.22960648,9.23437,,,,,,,
33197118,1.5702357,0.17690594,9.2128105,-0.41570258,0.21154262,-0.3658225,,,,
33197120,1.5965861,0.12180993,9.337376,,,,,,,
33197123,1.6780324,0.03796819,9.598483,-0.52702266,0.24296789,-0.3759425,,,,
33197124,,,,,,,-12.554425,-46.910164,-10.989769,
33197125,1.7570832,-0.07461932,9.878754,,,,,,,
33197128,1.7139645,-0.1416927,10.130279,,,,,,,
33197129,,,,-0.6122437,0.26906684,-0.3908562,,,,
33197130,1.5846087,-0.18960229,10.362639,,,,,,,
33197133,1.486394,-0.3309355,10.662075,,,,,,,
33197134,,,,-0.66444165,0.29569843,-0.3929867,-11.477362,-46.172993,-12.054871,
33197135,1.3953658,-0.42675462,10.899228,,,,,,,
33197138,1.3139197,-0.5105964,11.093261,,,,,,,
33197139,,,,-0.68947536,0.31274265,-0.38339934,,,,
33197140,1.2875694,-0.5417377,11.234595,,,,,,,
33197143,1.3067331,-0.58725166,11.31125,,,,,,,
33197144,,,,-0.69693214,0.32339528,-0.37381196,-11.936939,-47.218807,-12.518478,
33197145,1.26601,-0.6471387,11.407069,,,,,,,
33197148,1.1414452,-0.7261894,11.574752,,,,,,,
33197149,,,,-0.6910732,0.33671108,-0.3610288,,,,
33197150,1.050417,-0.75972605,11.716085,,,,,,,
33197153,0.96417975,-0.8148221,11.759204,,,,,,,
33197154,,,,-0.6724311,0.3558858,-0.34398457,-10.247607,-46.720787,-10.470291,
33197155,0.92106116,-0.87950015,11.8143,,,,,,,
33197158,0.9066882,-0.96813273,11.91491,,,,,,,
33197159,,,,-0.6479301,0.368669,-0.31788564,,,,
33197160,0.87554705,-1.0088558,11.941261,,,,,,,
33197163,0.8659651,-1.0950931,11.998752,,,,,,,
33197164,,,,-0.60531956,0.38305005,-0.28965616,-11.474735,-47.22107,-13.126015,
33197165,0.8491968,-1.174144,12.027498,,,,,,,
33197168,0.8587786,-1.1980988,12.0394745,,,,,,,
33197169,,,,-0.56217635,0.3937027,-0.26142666,,,,
33197170,0.8563832,-1.2100761,11.981984,,,,,,,
33197173,0.88752437,-1.2699631,12.03708,,,,,,,
33197174,,,,-0.50838053,0.40648586,-0.23745823,-12.242642,-47.53914,-13.915253,
33197175,0.91627014,-1.3226635,12.065825,,,,,,,
33197178,0.9330385,-1.3442229,12.099361,,,,,,,
33197179,,,,-0.449791,0.409149,-0.21988139,,,,
33197180,0.9330385,-1.3418274,12.159249,,,,,,,
33197183,0.9977164,-1.3466183,12.199972,,,,,,,
33197184,,,,-0.38640782,0.39210477,-0.21455508,-9.013046,-47.911495,-12.437729,
33197185,1.0791627,-1.3370365,12.168831,,,,,,,
33197188,1.1246767,-1.32985,12.226323,,,,,,,
33197189,,,,-0.32249203,0.35055953,-0.2230772,,,,
33197190,1.1390496,-1.3274544,12.281419,,,,,,,
33197193,1.1869593,-1.2627766,12.300582,,,,,,,
33197194,,,,-0.26017413,0.27279526,-0.24331719,-9.937619,-47.036415,-12.161339,
33197195,1.1318632,-1.2004942,12.293396,,,,,,,
33197198,1.1103039,-1.1813303,12.331724,,,,,,,
33197199,,,,-0.1946604,0.17212787,-0.2704814,,,,
33197200,1.0815581,-1.1430027,12.3101635,,,,,,,
33197203,1.1318632,-1.0998842,12.19039,,,,,,,
33197204,,,,-0.12009196,0.056546777,-0.30297196,-11.320524,-47.36846,-13.275238,
33197205,1.1318632,-1.0304152,12.123317,,,,,,,
33197208,1.0599989,-0.9777148,11.998752,,,,,,,
33197209,,,,-0.040197197,-0.06649115,-0.3370604,,,,
33197210,1.0096939,-0.8699181,11.883769,,,,,,,
33197213,1.0264621,-0.75733066,11.716085,,,,,,,
33197214,,,,0.034371246,-0.19325751,-0.36848566,-12.399591,-45.7633,-13.320663,
33197215,0.9569932,-0.6495341,11.51247,,,,,,,
33197218,0.92824745,-0.5105964,11.294482,,,,,,,
33197219,,,,0.08976495,-0.31629544,-0.39032355,,,,
33197220,0.8947109,-0.41477725,11.021397,,,,,,,
33197223,0.8923154,-0.3309355,10.681239,,,,,,,
33197224,,,,0.12864707,-0.4276155,-0.40736777,-11.473984,-47.52052,-13.43206,
33197226,0.8180555,-0.21595255,10.4345045,,,,,,,
33197228,0.7557731,-0.15127462,10.09195,,,,,,,
33197229,,,,0.14089762,-0.5176302,-0.41642252,,,,
33197231,0.71505,-0.14408818,9.730234,,,,,,,
33197233,0.66234946,-0.081805766,9.366121,,,,,,,
33197234,,,,0.1291797,-0.57355654,-0.4116288,-11.935026,-47.24429,-14.220551,21.0
33197236,0.60964894,-0.03868714,9.057105,,,,,,,
33197238,0.5593439,0.004431486,8.800788,,,,,,,
33197239,,,,0.0924281,-0.59645975,-0.39192143,,,,
33197241,0.5473665,0.08587776,8.544472,,,,,,,
33197243,0.5018524,0.17211498,8.348043,,,,,,,
33197244,,,,0.03809967,-0.58101344,-0.35996357,-9.628519,-46.32713,-14.3285675,
33197246,0.4874795,0.19127882,8.08454,,,,,,,
33197248,0.45394284,0.27512056,7.914461,,,,,,,
33197249,,,,-0.032740355,-0.5320113,-0.31948352,,,,
33197251,0.47310662,0.27272508,7.6653314,,,,,,,
33197253,0.48508406,0.26553866,7.468902,,,,,,,
33197254,,,,-0.11316775,-0.44412705,-0.2736772,-10.862018,-46.163654,-12.039673,
33197256,0.5114343,0.27272508,7.272473,,,,,,,
33197258,0.5114343,0.2703296,7.1143713,,,,,,,
33197259,,,,-0.20531304,-0.32162175,-0.22733824,,,,
33197261,0.5186207,0.20565169,7.0736485,,,,,,,
33197263,0.53538907,0.15055569,7.097603,,,,,,,
33197264,,,,-0.30438256,-0.18260488,-0.1815319,-11.320268,-47.806053,-12.96064,
33197266,0.57132125,0.093064204,7.186236,,,,,,,
33197268,0.61683536,0.061922967,7.3347554,,,,,,,
33197269,,,,-0.39652786,-0.04412062,-0.13412768,,,,
33197271,0.60725343,0.021199852,7.6246085,,,,,,,
33197273,0.6431856,-0.04108259,7.943207,,,,,,,
33197274,,,,-0.46790048,0.06560152,-0.09737609,-9.781724,-46.916786,-14.170784,
33197276,0.6383947,-0.06503737,8.223478,,,,,,,
33197278,0.6719314,-0.09378314,8.489376,,,,,,,
33197279,,,,-0.5110437,0.14602892,-0.06648345,,,,
33197281,0.69828165,-0.13211077,8.774438,,,,,,,
33197283,0.7342138,-0.16564748,8.982845,,,,,,,
33197284,,,,-0.53075105,0.18863946,-0.03985186,-10.704419,-46.79033,-14.659485,
33197286,0.83721936,-0.21116155,9.193646,,,,,,,
33197288,0.8971064,-0.19918418,9.354144,,,,,,,
33197289,,,,-0.5344795,0.19822684,-0.023872906,,,,
33197291,1.0791627,-0.27104858,9.38289,,,,,,,
33197293,1.1965411,-0.3524948,9.437985,,,,,,,
33197294,,,,-0.5195658,0.20035736,-0.028666591,-11.166505,-46.500202,-14.519585,
33197296,1.2875694,-0.46987328,9.507455,,,,,,,
33197298,1.2947557,-0.48185065,9.598483,,,,,,,
33197299,,,,-0.49399945,0.21101,-0.0489066,,,,
33197301,1.3091286,-0.47466418,9.6224375,,,,,,,
33197303,1.3091286,-0.5417377,9.691906,,,,,,,
33197304,,,,-0.46044365,0.21420577,-0.07766872,-11.935969,-45.92919,-15.009621,
33197306,1.325897,-0.57287884,9.83324,,,,,,,
33197308,1.2636145,-0.50341,9.996132,,,,,,,
33197309,,,,-0.4141047,0.1960963,-0.108028725,,,,
33197311,1.1869593,-0.46747777,10.096742,,,,,,,
33197313,1.1486316,-0.41477725,10.1638155,,,,,,,
33197314,,,,-0.35871097,0.14709418,-0.13732347,-10.0898075,-47.494873,-13.088394,
33197316,1.0887446,-0.35968128,10.226098,,,,,,,
33197318,1.050417,-0.28781685,10.242866,,,,,,,
33197319,,,,-0.2947952,0.06666678,-0.16448769,,,,
33197321,0.9330385,-0.23032543,10.276402,,,,,,,
33197323,0.91147923,-0.16804296,10.204539,,,,,,,
33197324,,,,-0.231412,-0.03985957,-0.18632558,-8.703716,-47.49471,-14.446808,
33197326,0.83482385,-0.10096955,10.139861,,,,,,,
33197328,0.7366092,-0.04108259,10.000923,,,,,,,
33197329,,,,-0.1712246,-0.1511796,-0.2017719,,,,
33197331,0.71505,0.04036367,9.780539,,,,,,,
33197334,0.68390876,0.05234106,9.598483,-0.11316775,-0.25291225,-0.20709823,-10.858311,-46.502483,-14.976181,
33197336,0.6455811,0.09545967,9.337376,,,,,,,
33197339,0.6431856,0.10504159,9.116992,-0.06576352,-0.328546,-0.20709823,,,,
33197341,0.70786357,0.10983254,8.843906,,,,,,,
33197344,0.72463185,0.10025062,8.604359,-0.03380562,-0.37275442,-0.2017719,-9.627914,-46.769356,-14.323425,
33197346,0.7509821,0.13618281,8.554054,,,,,,,
33197349,0.78691435,0.09785515,8.482189,-0.0167614,-0.39991862,-0.1964456,,,,
33197351,0.8587786,0.18409237,7.988721,,,,,,,
33197354,0.88033795,0.25116578,7.241332,-0.027946668,-0.41376704,-0.19804348,-9.781322,-47.211605,-14.167358,
33197356,0.92824745,0.31344822,6.858055,,,,,,,
33197359,0.92824745,0.41405833,6.886801,-0.06629615,-0.36476493,-0.20017402,,,,
33197361,0.87075615,0.46675885,6.728699,,,,,,,
33197364,0.79410076,0.4931091,6.4987335,-0.11316775,-0.28114173,-0.19751085,-9.010866,-47.50633,-14.918602,
33197366,0.7485867,0.51945937,6.3741684,,,,,,,
33197369,0.68869966,0.5218549,6.3981233,,,,,,,
33197370,,,,-0.1611046,-0.18367013,-0.18685822,,,,
33197371,0.58808964,0.5146684,6.5298743,,,,,,,
33197374,0.5042479,0.5673689,6.7718177,,,,-9.780104,-47.227818,-15.250496,
33197375,,,,-0.2063783,-0.09152484,-0.16874874,,,,
33197376,0.4563383,0.5649735,6.8508687,,,,,,,
33197379,0.4132197,0.6200695,6.999388,,,,,,,
33197380,,,,-0.23300989,-0.01961956,-0.149574,,,,
33197381,0.31979603,0.64641976,7.2581,,,,,,,
33197384,0.2647,0.7063067,7.468902,,,,-10.245017,-45.7422,-14.041138,
33197385,,,,-0.24845621,0.02618677,-0.12933399,,,,
33197386,0.17846277,0.7134931,7.6341906,,,,,,,
33197389,0.08264366,0.77577555,7.763546,,,,,,,
33197390,,,,-0.2537825,0.043230984,-0.108028725,,,,
33197391,0.09462103,0.8045213,7.8641562,,,,,,,
33197394,0.104202926,0.7518208,8.03184,,,,-9.629215,-46.317863,-13.709633,
33197395,,,,-0.24366252,0.049622566,-0.0840603,,,,
33197396,0.06827077,0.787753,8.2115,,,,,,,
33197399,0.06587529,0.7973349,8.336065,,,,,,,
33197400,,,,-0.22022673,0.03950256,-0.059559226,,,,
33197401,0.13055322,0.8284761,8.446258,,,,,,,
33197404,0.15211254,0.7949394,8.573217,,,,-9.01268,-46.17965,-14.934013,
33197405,,,,-0.18507303,0.013403608,-0.039319225,,,,
33197406,0.10659844,0.7590072,8.788811,,,,,,,
33197409,0.14971703,0.7422389,8.879839,,,,,,,
33197410,,,,-0.13340774,-0.018554298,-0.024938168,,,,
33197411,0.16408992,0.7422389,9.0068,,,,,,,
33197414,0.20241755,0.6967248,9.0810585,,,,-8.548975,-46.780807,-16.153625,
33197415,,,,-0.06842668,-0.050512206,-0.016948694,,,,
33197416,0.25751355,0.64402425,9.083455,,,,,,,
33197419,0.2862593,0.63923335,9.045127,,,,,,,
33197420,,,,0.0040112375,-0.08619852,-0.013220271,,,,
33197421,0.33656436,0.6104876,8.963681,,,,,,,
33197424,0.4204061,0.59851015,8.85828,,,,-8.090698,-45.2835,-15.076218,
33197425,,,,0.0604702,-0.12348275,-0.011089744,,,,
33197426,0.53538907,0.59851015,8.702574,,,,,,,
33197429,0.6647449,0.5745554,8.527704,,,,,,,
33197430,,,,0.10787442,-0.14745118,-0.01641606,,,,
33197431,0.8563832,0.59851015,8.345648,,,,,,,
33197434,0.9833436,0.62965137,8.218687,,,,-10.085898,-47.981113,-16.023201,
33197435,,,,0.13237551,-0.14585328,-0.033460274,,,,
33197436,1.0552078,0.5745554,8.101309,,,,,,,
33197439,1.0863491,0.5601825,8.142032,,,,,,,
33197440,,,,0.1392997,-0.12135222,-0.052635018,,,,
33197441,1.0312531,0.5506006,8.182755,,,,,,,
33197444,1.0049028,0.5266458,8.225874,,,,-9.166662,-46.324757,-14.626625,
33197445,,,,0.14782181,-0.09259011,-0.06275502,,,,
33197446,1.0623944,0.50269103,8.268992,,,,,,,
33197449,1.0480216,0.44519955,8.252224,,,,,,,
33197450,,,,0.1542134,-0.06808905,-0.067548715,,,,
33197451,1.0671853,0.45717692,8.300134,,,,,,,
33197454,1.0623944,0.447595,8.316901,,,,-9.164227,-46.357185,-16.7929,
33197455,,,,0.16326813,-0.047849048,-0.0723424,,,,
33197457,1.1198859,0.39728996,8.345648,,,,,,,
33197459,1.1462362,0.4499905,8.345648,,,,,,,
33197460,,,,0.16912709,-0.037729044,-0.07979925,,,,
33197462,1.1821682,0.44519955,8.405535,,,,,,,
33197464,1.2228913,0.39010352,8.477399,,,,-7.7807293,-47.335613,-14.580452,
33197465,,,,0.16806182,-0.040924832,-0.08938662,,,,
33197467,1.2827784,0.39249903,8.463026,,,,,,,
33197469,1.3235015,0.39249903,8.518122,,,,,,,
33197470,,,,0.16326813,-0.056903787,-0.102169774,,,,
33197472,1.330688,0.36614874,8.597173,,,,,,,
33197474,1.3977613,0.36854422,8.606754,,,,-8.088144,-47.777874,-14.273453,
33197475,,,,0.15953971,-0.07820906,-0.118681364,,,,
33197477,1.4289026,0.3829171,8.649873,,,,,,,
33197479,1.4816031,0.34458944,8.688201,,,,,,,
33197480,,,,0.1510176,-0.09791643,-0.13359503,,,,
33197482,1.4983715,0.3278211,8.743297,,,,,,,
33197484,1.4935805,0.3493804,8.767252,,,,-8.088144,-47.777874,-14.273453,
33197485,,,,0.14302814,-0.1160259,-0.14744347,,,,
33197487,1.4720211,0.36854422,8.805579,,,,,,,
33197489,1.4576483,0.36135778,8.8103695,,,,,,,
33197490,,,,0.13876708,-0.12028696,-0.15969402,,,,
33197492,1.4456708,0.31823918,8.824743,,,,,,,
33197494,1.3833885,0.3709397,8.906189,,,,-7.7825775,-46.732075,-13.658905,
33197495,,,,0.13610393,-0.10697117,-0.17247717,,,,
33197497,1.2995467,0.40926737,9.040336,,,,,,,
33197499,1.2420553,0.44519955,9.157715,,,,,,,
33197500,,,,0.13344076,-0.084600635,-0.17993401,,,,
33197502,1.1318632,0.4643634,9.303839,,,,,,,
33197504,1.1390496,0.49071363,9.437985,,,,-8.089207,-46.75064,-14.594894,
33197505,,,,0.13716918,-0.064360626,-0.1847277,,,,
33197507,1.0887446,0.5050865,9.548178,,,,,,,
33197509,1.0719763,0.49790007,9.677534,,,,,,,
33197510,,,,0.15155025,-0.05530589,-0.1847277,,,,
33197512,1.050417,0.4595724,9.847611,,,,,,,
33197514,1.045626,0.47394526,9.890731,,,,-8.703909,-46.47906,-15.541916,
33197515,,,,0.16912709,-0.060099576,-0.18206453,,,,
33197517,1.0120893,0.47634077,10.010505,,,,,,,
33197519,0.99053,0.4715498,10.197351,,,,,,,
33197520,,,,0.19043235,-0.08300274,-0.18206453,,,,
33197522,0.96417975,0.5050865,10.300358,,,,,,,
33197524,0.96657526,0.5146684,10.38899,,,,-6.5525227,-46.12608,-13.790085,
33197525,,,,0.22292289,-0.12028696,-0.17886874,,,,
33197527,0.96657526,0.56976444,10.424923,,,,,,,
33197529,1.0001118,0.5410187,10.46325,,,,,,,
33197530,,,,0.2644682,-0.16556065,-0.17194453,,,,
33197532,0.99532104,0.5793463,10.400968,,,,,,,
33197534,0.985739,0.60569656,10.317126,,,,-7.934473,-46.904984,-15.208321,
33197535,,,,0.30228502,-0.21456277,-0.16502032,,,,
33197537,1.0312531,0.59851015,10.274008,,,,,,,
33197539,1.0192758,0.63683784,10.166211,,,,,,,
33197540,,,,0.3337103,-0.25823858,-0.1612919,,,,
33197542,1.0384396,0.6751655,10.067997,,,,,,,
33197544,1.050417,0.71109766,9.93385,,,,-8.088337,-46.762222,-15.368561,
33197545,,,,0.35501558,-0.29712072,-0.15969402,,,,
33197547,1.0647899,0.7637982,9.787725,,,,,,,
33197549,1.0312531,0.78296196,9.617647,,,,,,,
33197550,,,,0.3576787,-0.3189586,-0.16182454,,,,
33197552,1.0743717,0.842849,9.533805,,,,,,,
33197554,1.0264621,0.85961735,9.445172,,,,-7.779602,-47.784786,-15.03952,
33197555,,,,0.34755874,-0.32694808,-0.16502032,,,,
33197557,1.0240668,0.9123179,9.502664,,,,,,,
33197559,1.0671853,0.90992236,9.476313,,,,,,,
33197560,,,,0.31826398,-0.3455902,-0.1746077,,,,
33197562,1.0623944,0.9650184,9.255929,,,,,,,
33197564,1.0552078,1.0368828,8.978054,,,,-8.089363,-47.761658,-13.190315,
33197565,,,,0.2729903,-0.36210176,-0.1847277,,,,
33197567,1.050417,1.0584421,8.872653,,,,,,,
33197570,1.040835,1.1518657,8.872653,0.211205,-0.35677546,-0.1948477,,,,
33197572,0.92106116,1.2548712,8.736111,,,,,,,
33197574,,,,,,,-7.321289,-45.56433,-14.899063,
33197575,0.885129,1.3411086,8.666641,0.1392997,-0.33919862,-0.20336981,,,,
33197577,0.7964963,1.3914136,8.6187315,,,,,,,
33197580,0.68151325,1.3986,8.688201,0.0604702,-0.31096914,-0.19591296,,,,
33197582,0.5042479,1.4417187,8.800788,,,,,,,
33197584,,,,,,,-7.4738617,-46.741302,-14.579697,
33197585,0.44915187,1.4393232,8.851093,-0.024218244,-0.28167439,-0.17567295,,,,
33197587,0.40363777,1.4249502,8.91098,,,,,,,
33197590,0.36291462,1.4225547,8.98524,,,,,,,
33197591,,,,-0.108906694,-0.25024912,-0.15010664,,,,
33197592,0.33895987,1.453696,8.978054,,,,,,,
33197594,,,,,,,-8.242611,-47.19289,-14.438835,
33197595,0.2814684,1.448905,9.0595,,,,,,,
33197596,,,,-0.19412777,-0.20710595,-0.12027926,,,,
33197597,0.23595428,1.4417187,9.088245,,,,,,,
33197600,0.20481306,1.4441142,9.227184,,,,,,,
33197601,,,,-0.27615306,-0.14851645,-0.08619083,,,,
33197602,0.10659844,1.448905,9.469127,,,,,,,
33197604,,,,,,,-7.6251984,-48.947826,-14.09362,
33197605,0.020361215,1.3986,9.775748,,,,,,,
33197606,,,,-0.3336773,-0.0622301,-0.041982386,,,,
33197607,-0.015570968,1.3195492,9.967386,,,,,,,
33197610,-0.044316724,1.2261256,10.216516,,,,,,,
33197611,,,,-0.3640373,0.04216572,0.012878685,,,,
33197612,-0.015570968,1.1638432,10.503974,,,,,,,
33197614,,,,,,,-6.703619,-47.756863,-14.239258,
33197615,-0.029943839,1.0847923,10.81299,,,,,,,
33197616,,,,-0.37362468,0.14709418,0.06454396,,,,
33197617,0.022756696,1.0225099,11.102843,,,,,,,
33197620,0.073061705,1.0129279,11.423837,,,,,,,
33197621,,,,-0.36297202,0.23391315,0.11088292,,,,
33197622,0.08503914,0.9242953,11.754413,,,,,,,
33197624,,,,,,,-5.9341736,-47.31455,-14.999062,
33197625,0.14013514,0.85961735,11.965215,,,,,,,
33197626,,,,-0.33154678,0.30049214,0.15029767,,,,
33197627,0.19762662,0.8500354,12.245486,,,,,,,
33197630,0.19523114,0.7614027,12.516176,,,,,,,
33197631,,,,-0.28307727,0.33937424,0.18332085,,,,
33197632,0.22397688,0.7422389,12.738955,,,,,,,
33197634,,,,,,,-7.317856,-47.202045,-15.963371,
33197635,0.27428192,0.7542163,12.971315,,,,,,,23.0
33197636,,,,-0.22342251,0.35428795,0.21847454,,,,
33197637,0.29584128,0.6751655,13.201282,,,,,,,
33197640,0.34614623,0.68474734,13.412085,,,,,,,
33197641,,,,-0.15045197,0.34470057,0.24297561,,,,
33197642,0.45394284,0.6775609,13.58935,,,,,,,
33197644,,,,,,,-6.704279,-47.02445,-14.557274,
33197645,0.5162253,0.6320469,13.706728,,,,,,,
33197646,,,,-0.06682879,0.30262268,0.25735667,,,,
33197647,0.6192308,0.5673689,13.761824,,,,,,,
33197650,0.70786357,0.5218549,13.809733,,,,,,,
33197651,,,,0.022120718,0.22965209,0.25895455,,,,
33197652,0.8420104,0.47634077,13.792966,,,,,,,
33197654,,,,,,,-8.704063,-47.490078,-14.137337,
33197655,0.940225,0.3853126,13.644445,,,,,,,
33197656,,,,0.11213548,0.13004997,0.2530956,,,,
33197657,1.1103039,0.32063466,13.459994,,,,,,,
33197660,1.2276824,0.24637482,13.215654,,,,,,,
33197661,,,,0.19309552,0.02618677,0.24137771,,,,
33197662,1.3402699,0.24637482,13.019226,,,,,,,
33197664,,,,,,,-6.6988297,-50.136257,-15.604462,
33197665,1.5295126,0.19606978,12.784469,,,,,,,
33197666,,,,0.25115237,-0.06808905,0.2227356,,,,
33197667,1.6828233,0.17930141,12.506594,,,,,,,
33197670,1.8457158,0.2152336,12.0921755,,,,,,,
33197671,,,,0.28737134,-0.14532065,0.196104,,,,
33197672,1.9583032,0.22960648,11.680154,,,,,,,
33197674,,,,,,,-6.3954334,-48.627384,-13.602455,
33197675,2.061309,0.23918839,11.282504,,,,,,,
33197676,,,,0.28417554,-0.1863333,0.15455873,,,,
33197677,2.1427553,0.29667988,10.810595,,,,,,,
33197680,2.212224,0.38052163,10.446482,,,,,,,
33197681,,,,0.23517343,-0.18952909,0.10449134,,,,
33197683,2.2457607,0.36614874,10.082369,,,,,,,
33197684,,,,,,,-7.469713,-49.40162,-15.013084,
33197685,2.221806,0.4188493,9.766166,,,,,,,
33197686,,,,0.1510176,-0.16928908,0.05229344,,,,
33197688,2.1738966,0.47634077,9.529014,,,,,,,
33197690,2.1762917,0.46675885,9.418822,,,,,,,
33197691,,,,0.034371246,-0.13360275,0.0064871036,,,,
33197693,2.0804727,0.5218549,9.311025,,,,,,,
33197694,,,,,,,-4.5493565,-47.00798,-15.587219,
33197695,2.0229812,0.51945937,9.373308,,,,,,,
33197696,,,,-0.09292775,-0.088329054,-0.03452554,,,,
33197698,1.931953,0.55299604,9.493082,,,,,,,
33197700,1.7906199,0.5434141,9.699093,,,,,,,
33197701,,,,-0.21649832,-0.03400062,-0.06648345,,,,
33197703,1.6421001,0.5793463,9.895522,,,,,,,
33197704,,,,,,,-7.6264553,-46.904945,-15.510185,
33197705,1.5031624,0.6104876,10.08716,,,,,,,
33197706,,,,-0.3219594,0.012870977,-0.09311504,,,,
33197708,1.3785975,0.6104876,10.317126,,,,,,,
33197710,1.2013321,0.6536062,10.597397,,,,,,,
33197711,,,,-0.41357204,0.04269835,-0.105365574,,,,
33197713,1.0480216,0.68953836,10.827363,,,,,,,
33197714,,,,,,,-7.469614,-48.100418,-16.73056,
33197715,0.9018972,0.667979,10.995047,,,,,,,
33197716,,,,-0.48121628,0.052285723,-0.100571886,,,,
33197718,0.8108691,0.6536062,11.124403,,,,,,,
33197720,0.7222364,0.6344423,11.421442,,,,,,,
33197721,,,,-0.53075105,0.051753093,-0.08672346,,,,
33197723,0.57850766,0.5434141,11.526843,,,,,,,
33197724,,,,,,,-5.93095,-49.673088,-14.971664,
33197725,0.4563383,0.47873622,11.627453,,,,,,,
33197726,,,,-0.5722963,0.048024673,-0.0590266,,,,
33197728,0.37249655,0.4188493,11.730459,,,,,,,
33197730,0.2647,0.29188892,11.804718,,,,,,,
33197731,,,,-0.59999317,0.056014147,-0.025470803,,,,
33197733,0.19762662,0.20086074,11.871792,,,,,,,
33197734,,,,,,,-4.3930206,-49.20983,-15.093544,
33197735,0.08264366,0.08348228,11.893351,,,,,,,
33197736,,,,-0.6165048,0.07465626,0.010215526,,,,
33197738,0.039525032,-0.053059995,11.946052,,,,,,,
33197740,-0.027548373,-0.11773792,11.941261,,,,,,,
33197741,,,,-0.623429,0.09383101,0.043238696,,,,
33197743,-0.087435335,-0.2566757,12.01073,,,,,,,
33197744,,,,,,,-5.7787457,-47.478146,-16.231415,
33197745,-0.13294941,-0.3668677,12.104153,,,,,,,
33197746,,,,-0.63301635,0.10927733,0.07892502,,,,
33197748,-0.20002282,-0.47466418,12.183204,,,,,,,
33197750,-0.26470074,-0.58006525,12.247882,,,,,,,
33197751,,,,-0.63994056,0.11247312,0.11514397,,,,
33197753,-0.3581244,-0.673489,12.255068,,,,,,,
33197754,,,,,,,-5.16502,-47.15778,-15.136513,
33197755,-0.39405656,-0.723794,12.336514,,,,,,,
33197756,,,,-0.6420711,0.09968995,0.15189558,,,,
33197758,-0.4156159,-0.84596336,12.401193,,,,,,,
33197760,-0.47789833,-0.9585508,12.41317,,,,,,,
33197761,,,,-0.64420164,0.07305837,0.19077769,,,,
33197763,-0.51862144,-1.0352061,12.516176,,,,,,,
33197764,,,,,,,-4.54652,-47.335228,-17.750061,
33197765,-0.5449717,-1.1214434,12.54013,,,,,,,
33197766,,,,-0.63994056,0.036306772,0.2344535,,,,
33197768,-0.5018531,-1.2412174,12.683859,,,,,,,
33197770,-0.52101696,-1.3154771,12.710209,,,,,,,
33197771,,,,-0.6292879,-0.0047058705,0.27759665,,,,
33197773,-0.4347797,-1.4328556,12.813215,,,,,,,
33197774,,,,,,,-4.54521,-49.66829,-16.0206,
33197775,-0.39884752,-1.5262792,12.870706,,,,,,,
33197776,,,,-0.6058521,-0.04358799,0.3122177,,,,
33197778,-0.40842944,-1.5981436,12.964129,,,,,,,
33197780,-0.3677063,-1.7083356,13.067136,,,,,,,
33197781,,,,-0.57123107,-0.07341537,0.34577355,,,,
33197783,-0.33416963,-1.830505,13.18691,,,,,,,
33197784,,,,,,,-4.5488358,-47.014927,-16.051414,
33197785,-0.19044091,-1.8832055,13.242006,,,,,,,
33197786,,,,-0.5248921,-0.102177486,0.37613356,,,,26.0
33197788,-0.06108506,-1.9430925,13.347406,,,,,,,
33197790,0.041920513,-2.0772393,13.306683,,,,,,,
33197791,,,,-0.46576998,-0.11283012,0.39051458,,,,
33197793,0.1329487,-2.1179626,13.246796,,,,,,,
33197794,,,,,,,-4.6998596,-47.199417,-18.374504,
33197795,0.25990906,-2.1562903,13.282729,,,,,,,
33197796,,,,-0.39173415,-0.09259011,0.39051458,,,,
33197798,0.31979603,-2.2185726,13.275542,,,,,,,
33197801,0.35812366,-2.2281547,13.390525,-0.3070457,-0.0723501,0.38465565,,,,
33197803,0.41561514,-2.216177,13.481553,,,,,,,
33197804,,,,,,,-4.5468674,-47.330597,-17.440598,
33197806,0.47789764,-2.161081,13.579768,-0.21170463,-0.071817465,0.36974195,,,,
33197808,0.49466592,-2.1011941,13.673192,,,,,,,
33197811,0.51382977,-2.1107762,13.81692,-0.10251512,-0.0957859,0.34843668,,,,
33197813,0.5162253,-2.1514993,13.9342985,,,,,,,
33197814,,,,,,,-5.1623936,-48.205853,-16.207657,
33197816,0.49706143,-2.1419172,13.883994,0.022120718,-0.14532065,0.32393566,,,,
33197818,0.45873374,-2.1395218,13.79057,,,,,,,
33197821,0.43956995,-2.0245388,13.697145,,,,,,,
33197822,,,,0.14995235,-0.20870383,0.29730406,,,,
33197823,0.40842873,-1.9478835,13.529463,,,,,,,
33197824,,,,,,,-4.392864,-48.198814,-16.498123,
33197826,0.33656436,-1.8975784,13.287519,,,,,,,
33197827,,,,0.26979446,-0.2800765,0.2717377,,,,
33197828,0.2862593,-1.7754089,13.004853,,,,,,,
33197831,0.26230454,-1.6939627,12.655113,,,,,,,
33197832,,,,0.37365767,-0.348786,0.25522614,,,,
33197833,0.20241755,-1.5789797,12.283813,,,,,,,
33197834,,,,,,,-3.6228695,-47.90854,-17.565681,
33197836,0.14013514,-1.50472,11.893351,,,,,,,29.0
33197837,,,,0.45301983,-0.39565757,0.24830194,,,,
33197838,0.101807475,-1.4208782,11.443001,,,,,,,
33197841,0.11138937,-1.32985,10.9495325,,,,,,,
33197842,,,,0.5014893,-0.40471232,0.2530956,,,,
33197843,0.13773966,-1.32985,10.518346,,,,,,,
33197844,,,,,,,-3.467945,-49.07853,-17.083992,
33197846,0.1329487,-1.2364264,10.029669,,,,,,,
33197847,,,,0.5110766,-0.3743523,0.2642809,,,,
33197848,0.15929896,-1.1765393,9.646392,,,,,,,
33197851,0.2000221,-1.1597711,9.327794,,,,,,,
33197852,,,,0.48710826,-0.3221544,0.27493352,,,,
33197853,0.2503271,-1.0879067,9.057105,,,,,,,
33197854,,,,,,,-4.0841656,-47.194714,-18.668777,
33197856,0.27428192,-1.0040649,8.807975,,,,,,,
33197857,,,,0.44023666,-0.25930384,0.28185773,,,,
33197858,0.24074522,-0.9777148,8.558845,,,,,,,
33197861,0.24793166,-0.92501414,8.350438,,,,,,,
33197862,,,,0.38484293,-0.18100697,0.29091245,,,,
33197863,0.24553618,-0.8986639,8.245038,,,,,,,
33197864,,,,,,,-5.46784,-48.963783,-17.289825,
33197866,0.2215814,-0.9106412,8.283365,,,,,,,
33197867,,,,0.33104712,-0.09365538,0.30529353,,,,
33197868,0.3030277,-0.9154322,8.273783,,,,,,,
33197871,0.3916604,-1.0280197,8.139637,,,,,,,
33197872,,,,0.28577346,-0.011630083,0.3180767,,,,
33197873,0.46831566,-1.0447881,8.024653,,,,,,,
33197874,,,,,,,-5.466934,-48.252216,-19.000458,
33197876,0.55694836,-1.0639518,8.03184,,,,,,,
33197877,,,,0.24582607,0.07731942,0.32287037,,,,
33197878,0.6144399,-1.0879067,8.074959,,,,,,,
33197881,0.6527675,-1.1022795,8.115682,,,,,,,
33197882,,,,0.20747657,0.16307314,0.3202072,,,,
33197883,0.68390876,-1.0639518,8.165987,,,,,,,
33197884,,,,,,,-4.3921146,-48.498264,-16.804161,
33197886,0.66234946,-0.994483,8.292947,,,,,,,
33197887,,,,0.1760513,0.23391315,0.30635878,,,,
33197888,0.70307255,-0.9513644,8.4007435,,,,,,,
33197891,0.68869966,-0.944178,8.498958,,,,,,,
33197892,,,,0.14675656,0.27439317,0.28611878,,,,
33197893,0.600067,-0.9130367,8.6714325,,,,,,,
33197894,,,,,,,-3.4669018,-49.092426,-18.01239,
33197896,0.6264173,-0.9010594,8.774438,,,,,,,
33197897,,,,0.1190597,0.27386054,0.26215035,,,,
33197898,0.5665303,-0.9058503,8.875048,,,,,,,
33197901,0.5473665,-0.89147747,8.961285,,,,,,,
33197902,,,,0.10361337,0.24083737,0.23658402,,,,
33197903,0.55694836,-0.8699181,9.025963,,,,,,,
33197904,,,,,,,-4.390896,-48.51448,-17.887299,
33197906,0.5377846,-0.83638144,9.037941,,,,,,,
33197907,,,,0.09828705,0.18863946,0.20569138,,,,
33197908,0.48987502,-0.7717035,9.073873,,,,,,,
33197911,0.45154732,-0.75253975,9.018777,,,,,,,
33197912,,,,0.09828705,0.12632155,0.17799453,,,,
33197914,0.45873374,-0.70942116,8.922957,,,,-5.7737637,-50.87319,-16.501503,
33197916,0.47789764,-0.6806754,8.860675,,,,,,,
33197917,,,,0.09881969,0.06400363,0.15668926,,,,
33197919,0.45873374,-0.62318385,8.805579,,,,,,,
33197921,0.46831566,-0.5585059,8.736111,,,,,,,
33197922,,,,0.09615653,0.0011530784,0.13325346,,,,
33197924,0.48029304,-0.5848563,8.66185,,,,-3.622118,-48.20799,-17.871727,
33197926,0.48268855,-0.57766986,8.594777,,,,,,,
33197927,,,,0.08656916,-0.059566945,0.108219765,,,,
33197929,0.5042479,-0.58246076,8.467817,,,,,,,
33197931,0.5210162,-0.5058055,8.367208,,,,,,,
33197932,,,,0.076449156,-0.10057958,0.08851239,,,,
33197934,0.49227053,-0.49622348,8.257015,,,,-4.386997,-49.868958,-19.728691,
33197936,0.4659202,-0.43873206,8.170777,,,,,,,
33197937,,,,0.06579652,-0.12295012,0.07413133,,,,
33197939,0.434779,-0.40519533,8.015072,,,,,,,
33197941,0.3820784,-0.36207673,7.8976927,,,,,,,
33197942,,,,0.05354599,-0.119221695,0.06880502,,,,
33197944,0.37249655,-0.3453084,7.768337,,,,-4.392708,-47.1878,-17.90271,
33197946,0.34614623,-0.33333102,7.679704,,,,,,,
33197947,,,,0.04502388,-0.08726379,0.077327125,,,,
33197949,0.2886548,-0.29500332,7.622213,,,,,,,
33197951,0.30063218,-0.28781685,7.5455575,,,,,,,
33197952,,,,0.03916493,-0.027609037,0.08957765,,,,
33197954,0.30542314,-0.2638621,7.5192075,,,,-4.69866,-48.95211,-17.270828,
33197956,0.2647,-0.24948928,7.5599303,,,,,,,
33197957,,,,0.029044932,0.049622566,0.10502397,,,,
33197959,0.209604,-0.27104858,7.53358,,,,,,,
33197961,0.2000221,-0.22792992,7.564721,,,,,,,
33197962,,,,0.024251245,0.13164786,0.11354608,,,,
33197964,0.21439496,-0.24709377,7.679704,,,,-5.4671555,-49.84129,-16.815353,
33197966,0.1449261,-0.27344403,7.813851,,,,,,,
33197967,,,,0.026914405,0.20461841,0.12153556,,,,
33197969,0.13055322,-0.29979423,7.806665,,,,,,,
33197971,0.15690348,-0.25428018,7.9192524,,,,,,,
33197972,,,,0.036501773,0.25788158,0.12686189,,,,
33197974,0.16408992,-0.26625755,8.067772,,,,-3.6222744,-49.219006,-16.467148,
33197976,0.19523114,-0.30458525,8.130054,,,,,,,
33197977,,,,0.054078624,0.2765237,0.12526399,,,,
33197979,0.17846277,-0.29260787,8.276178,,,,,,,
33197981,0.17606732,-0.29979423,8.407929,,,,,,,
33197982,,,,0.075383894,0.25947946,0.11940503,,,,
33197984,0.23834974,-0.29739884,8.489376,,,,-4.0814114,-49.836494,-17.864296,
33197986,0.23595428,-0.34051743,8.506145,,,,,,,
33197987,,,,0.10308074,0.21154262,0.11141556,,,,
33197989,0.21439496,-0.38363603,8.537286,,,,,,,
33197991,0.19523114,-0.40759084,8.510936,,,,,,,
33197992,,,,0.13663656,0.14975734,0.09596923,,,,
33197994,0.19044018,-0.4099863,8.412721,,,,-3.928547,-48.373966,-18.806015,
33197996,0.19762662,-0.39800885,8.357625,,,,,,,
33197997,,,,0.1659313,0.07785205,0.081055544,,,,
33197999,0.16408992,-0.37165865,8.25941,,,,,,,
33198001,0.15929896,-0.38124058,8.134846,,,,,,,
33198002,,,,0.18617131,0.0070120282,0.06987028,,,,
33198004,0.154508,-0.38363603,8.048608,,,,-4.07959,-50.294937,-18.942291,
33198006,0.20481306,-0.32374904,7.8497834,,,,,,,
33198007,,,,0.19842182,-0.04838168,0.060282912,,,,
33198009,0.2431407,-0.37165865,7.737196,,,,,,,
33198011,0.23595428,-0.39561346,7.6174216,,,,,,,
33198012,,,,0.20534605,-0.079806946,0.05602186,,,,
33198014,0.2503271,-0.38124058,7.5216026,,,,-3.313631,-47.924717,-18.950691,
33198016,0.18325374,-0.38124058,7.4784837,,,,,,,
33198017,,,,0.20534605,-0.084068,0.051228173,,,,
33198019,0.16648537,-0.38363603,7.466507,,,,,,,
33198021,0.12336677,-0.35968128,7.4880657,,,,,,,
33198022,,,,0.20001973,-0.06276273,0.05602186,,,,
33198024,0.06587529,-0.3069807,7.492857,,,,-3.1560783,-50.142784,-19.540138,
33198026,0.03712955,-0.28302595,7.526394,,,,,,,
33198027,,,,0.19522604,-0.026543774,0.06987028,,,,
33198029,0.046711475,-0.25907114,7.514416,,,,,,,
33198032,0.041920513,-0.27104858,7.5671167,0.19575869,0.019262558,0.09011028,,,,
33198034,0.044315994,-0.26146665,7.6246085,,,,-3.4631386,-49.721436,-20.636002,
33198037,0.015570253,-0.26146665,7.6964726,0.19682394,0.06453626,0.116209246,,,,
33198039,0.039525032,-0.29500332,7.8162465,,,,,,,
33198042,0.077852696,-0.33812192,7.9096704,0.20108499,0.10128785,0.14443873,,,,
33198044,0.12576225,-0.37644956,7.947998,,,,-3.0024357,-51.87461,-17.194794,
33198047,0.09462103,-0.388427,8.000699,,,,,,,
33198048,,,,0.21013974,0.13111523,0.17479874,,,,
33198049,0.2000221,-0.41238174,8.125263,,,,,,,
33198052,0.25990906,-0.39082244,8.18036,,,,,,,
33198053,,,,0.2245208,0.14922471,0.2008977,,,,
33198054,0.26230454,-0.3524948,8.321692,,,,-3.465765,-48.673363,-19.564857,
33198057,0.31500506,-0.388427,8.360021,,,,,,,
33198058,,,,0.24369554,0.1577468,0.21847454,,,,
33198059,0.41082418,-0.39082244,8.348043,,,,,,,
33198062,0.43956995,-0.40040436,8.431885,,,,,,,
33198063,,,,0.25701132,0.15455103,0.22060508,,,,
33198064,0.5042479,-0.43633655,8.494166,,,,-4.5406036,-50.163795,-19.574333,
33198067,0.55694836,-0.4555004,8.484585,,,,,,,
33198068,,,,0.27405554,0.13910471,0.21634401,,,,
33198069,0.6144399,-0.4770597,8.542076,,,,,,,
33198072,0.6503721,-0.5177828,8.568427,,,,,,,
33198073,,,,0.29376292,0.118332066,0.19876717,,,,
33198074,0.70546806,-0.5561105,8.515726,,,,-3.3099499,-50.868267,-18.60698,
33198077,0.76295954,-0.57527435,8.518122,,,,,,,
33198078,,,,0.31133977,0.09436364,0.17479874,,,,
33198079,0.78691435,-0.5561105,8.441466,,,,,,,
33198082,0.8036827,-0.53694665,8.383975,,,,,,,
33198083,,,,0.31986186,0.06719942,0.14337346,,,,
33198084,0.7988918,-0.5417377,8.350438,,,,-3.9269981,-50.131294,-18.011803,
33198087,0.8036827,-0.5129919,8.367208,,,,,,,
33198088,,,,0.32572085,0.037904665,0.10768713,,,,
33198089,0.78930986,-0.5010145,8.309715,,,,,,,
33198092,0.72463185,-0.4411275,8.30732,,,,,,,
33198093,,,,0.33157977,0.0038162372,0.075196594,,,,
33198094,0.72702736,-0.39321795,8.33367,,,,-4.6957493,-50.58288,-17.870934,
33198097,0.6479766,-0.3524948,8.3743925,,,,,,,
33198098,,,,0.3406345,-0.032402724,0.04696712,,,,
33198099,0.55694836,-0.32614455,8.441466,,,,,,,
33198102,0.5305981,-0.28063044,8.475003,,,,,,,
33198103,,,,0.33956927,-0.06542589,0.025661847,,,,
33198104,0.44915187,-0.2423028,8.551659,,,,-2.8480034,-50.43293,-19.529114,
33198107,0.3964513,-0.22792992,8.597173,,,,,,,
33198108,,,,0.3406345,-0.10111222,0.016607108,,,,
33198109,0.3557282,-0.16804296,8.65706,,,,,,,
33198112,0.36770558,-0.108155996,8.692992,,,,,,,
33198113,,,,0.33477557,-0.14372276,0.012878685,,,,
33198114,0.29344577,-0.03629166,8.772043,,,,-3.4619389,-51.474133,-19.532333,
33198117,0.2718864,0.006826967,8.817556,,,,,,,
33198118,,,,0.32572085,-0.19006172,0.0123460535,,,,
33198119,0.22397688,0.0020360053,8.815161,,,,,,,
33198122,0.2431407,0.025990784,8.903794,,,,,,,
33198123,,,,0.31773135,-0.23799857,0.01767237,,,,
33198124,0.2503271,0.06431845,8.915771,,,,-2.2338524,-50.55247,-18.274338,
33198127,0.22876784,0.07150489,8.966076,,,,,,,
33198128,,,,0.3118724,-0.2683586,0.030455532,,,,
33198129,0.23355877,0.07150489,8.95889,,,,,,,
33198132,0.27907288,0.05234106,8.930144,,,,,,,
33198133,,,,0.3140029,-0.27102175,0.049097646,,,,
33198134,0.2886548,0.023595303,8.961285,,,,-1.7699986,-51.01086,-19.805138,
33198136,,,,,,,,,,27.0
33198137,0.2862593,-0.009941369,8.999613,,,,,,,
33198138,,,,0.31986186,-0.24705331,0.07200081,,,,
33198140,0.30542314,-0.01233685,9.078664,,,,,,,
33198142,0.31740057,0.033177227,9.157715,,,,,,,
33198143,,,,0.3273187,-0.20018172,0.09437133,,,,
33198144,,,,,,,-1.7699986,-51.01086,-19.805138,
33198145,0.33177346,0.011617929,9.20802,,,,,,,
33198147,0.37968302,0.061922967,9.188856,,,,,,,
33198148,,,,0.3432977,-0.13626592,0.117807135,,,,
33198150,0.3772875,0.10743706,9.255929,,,,,,,
33198152,0.324587,0.10743706,9.349353,,,,,,,
33198153,,,,0.3566135,-0.06169747,0.13857979,,,,
33198154,,,,,,,-3.923256,-52.496788,-18.448608,
33198155,0.34375083,0.13618281,9.380494,,,,,,,
33198157,0.27428192,0.20086074,9.358934,,,,,,,
33198158,,,,0.36992928,0.01713203,0.15615663,,,,
33198160,0.23116332,0.24397933,9.414031,,,,,,,
33198162,0.1880447,0.227211,9.507455,,,,,,,
33198163,,,,0.37472296,0.08104784,0.17373349,,,,
33198164,,,,,,,-3.617485,-51.5984,-17.832352,
33198165,0.19283566,0.25116578,9.540991,,,,,,,
33198167,0.13534415,0.31823918,9.605669,,,,,,,
33198168,,,,0.37632084,0.12312575,0.1875819,,,,
33198170,0.09222555,0.33979848,9.600878,,,,,,,
33198172,0.13534415,0.39968544,9.639206,,,,,,,
33198173,,,,0.36833137,0.12898469,0.20196296,,,,
33198174,,,,,,,-1.9240723,-51.588932,-18.873695,
33198175,0.09701651,0.4260357,9.68472,,,,,,,
33198177,0.09462103,0.49790007,9.689511,,,,,,,
33198178,,,,0.35022187,0.108744696,0.21368085,,,,
33198180,0.13534415,0.49071363,9.694302,,,,,,,
33198182,0.21679044,0.5002955,9.660765,,,,,,,
33198183,,,,0.32359028,0.06453626,0.2195398,,,,
33198184,,,,,,,-1.9240723,-51.588932,-18.873695,
33198185,0.27428192,0.53383225,9.670347,,,,,,,
33198187,0.33177346,0.5362277,9.71107,,,,,,,
33198188,,,,0.28790396,0.011273082,0.22593139,,,,
33198190,0.3940559,0.5218549,9.770957,,,,,,,
33198192,0.47789764,0.507482,9.854799,,,,,,,
33198193,,,,0.25115237,-0.046251148,0.22859456,,,,
33198194,,,,,,,-2.0797577,-50.987736,-17.95594,
33198195,0.5665303,0.47873622,9.845217,,,,,,,
33198197,0.69588614,0.45478147,9.835635,,,,,,,
33198198,,,,0.21759658,-0.102177486,0.22912717,,,,
33198200,0.8132646,0.40208092,9.74221,,,,,,,
33198202,0.9474114,0.38052163,9.780539,,,,,,,
33198203,,,,0.17658393,-0.15597329,0.22380087,,,,
33198204,,,,,,,-3.9237232,-52.78002,-17.671516,
33198205,1.0815581,0.27991152,9.81168,,,,,,,
33198207,1.2516371,0.16492856,9.78533,,,,,,,
33198208,,,,0.13184287,-0.20284489,0.21208297,,,,
33198210,1.3594338,0.12899637,9.778144,,,,,,,
33198212,1.4696257,0.049945578,9.835635,,,,,,,
33198213,,,,0.081242844,-0.23906384,0.19823453,,,,
33198214,,,,,,,-4.3868217,-52.621086,-16.446762,
33198215,1.5582584,-0.055455476,9.799703,,,,,,,
33198217,1.6444956,-0.11055148,9.814075,,,,,,,
33198218,,,,0.031708088,-0.25291225,0.18012506,,,,
33198220,1.7451057,-0.15127462,9.818867,,,,,,,
33198222,1.7738514,-0.21595255,9.8404255,,,,,,,
33198223,,,,-0.022087717,-0.2385312,0.15828717,,,,
33198224,,,,,,,-4.386366,-53.206093,-16.130447,
33198225,1.8145747,-0.28542146,9.883545,,,,,,,
33198227,1.9032073,-0.34051743,9.907499,,,,,,,
33198228,,,,-0.06842668,-0.20284489,0.13751452,,,,
33198230,1.9439304,-0.39082244,10.012901,,,,,,,
33198232,1.9606988,-0.4842461,10.101533,,,,,,,
33198233,,,,-0.111037225,-0.14851645,0.11354608,,,,
33198234,,,,,,,-3.6167717,-52.620995,-17.201431,
33198235,1.9774673,-0.5561105,10.228494,,,,,,,
33198237,2.0086083,-0.57527435,10.489601,,,,,,,
33198238,,,,-0.14459302,-0.08140484,0.09224081,,,,
33198240,1.9726763,-0.608811,10.695612,,,,,,,
33198242,1.9966309,-0.66869795,10.846527,,,,,,,
33198243,,,,-0.17388776,-0.019086929,0.07572922,,,,
33198244,,,,,,,-4.0792046,-52.326233,-16.752052,
33198245,2.001422,-0.66869795,11.093261,,,,,,,
33198247,1.9702806,-0.69983923,11.205849,,,,,,,
33198248,,,,-0.19146462,0.022990981,0.061348174,,,,
33198250,2.0038176,-0.75014424,11.330414,,,,,,,
33198253,2.0397494,-0.7908673,11.433419,-0.20904146,0.036306772,0.042706065,,,,
33198254,,,,,,,-3.466545,-50.978634,-15.9786,
33198255,2.056518,-0.8507544,11.529238,,,,,,,
33198258,2.0541224,-0.92501414,11.593916,-0.22448778,0.021925718,0.020335529,,,,
33198260,2.0852637,-0.97052824,11.711295,,,,,,,
33198263,2.1140096,-1.0759294,11.78795,-0.2298141,-0.0041732388,-0.005230794,,,,
33198264,,,,,,,-3.4647865,-52.01513,-16.276085,
33198265,2.09245,-1.1334207,11.785555,,,,,,,
33198268,2.097241,-1.0974886,11.807114,-0.22182462,-0.0286743,-0.026003433,,,,
33198270,2.1211958,-1.0639518,11.792741,,,,,,,
33198273,2.1691055,-1.0208333,11.809509,,,,,,,
33198274,,,,-0.21276988,-0.03719641,-0.045710806,-2.8494415,-52.00579,-16.260887,
33198275,2.1691055,-1.0232288,11.996357,,,,,,,
33198278,2.1906648,-0.994483,12.202368,,,,,,,
33198279,,,,-0.19093198,-0.030804828,-0.07074451,,,,
33198280,2.2050376,-1.0112513,12.331724,,,,,,,
33198283,2.1834784,-1.0304152,12.480243,,,,,,,
33198284,,,,-0.16216986,-0.030272195,-0.10003925,-3.461811,-53.067837,-17.656693,
33198285,2.226597,-0.9896921,12.6623,,,,,,,
33198288,2.2337832,-0.9920876,12.858728,,,,,,,
33198289,,,,-0.12808144,-0.045718517,-0.13252978,,,,
33198290,2.221806,-0.98011005,13.000062,,,,,,,
33198293,2.2098286,-0.999274,13.098277,,,,,,,
33198294,,,,-0.08014458,-0.08033958,-0.1628898,-4.2309914,-53.07951,-17.67569,
33198295,2.2050376,-1.0088558,13.158164,,,,,,,
33198298,2.1691055,-1.0016695,13.263565,,,,,,,
33198299,,,,-0.010902451,-0.12401538,-0.18685822,,,,
33198300,2.16671,-0.9513644,13.222842,,,,,,,
33198303,2.1643145,-0.9106412,13.174932,,,,,,,
33198304,,,,0.074318625,-0.1676912,-0.20922875,-4.231743,-52.78006,-17.369652,
33198305,2.1643145,-0.87710464,13.031203,,,,,,,
33198308,2.157128,-0.88668644,12.810819,,,,,,,
33198309,,,,0.15155025,-0.20550804,-0.23106666,,,,
33198310,2.16671,-0.8196131,12.48743,,,,,,,
33198313,2.1283822,-0.75014424,12.176018,,,,,,,
33198314,,,,0.21493343,-0.22308488,-0.24970877,-3.461462,-53.07247,-17.966164,
33198315,2.061309,-0.6878618,11.795136,,,,,,,
33198318,2.0493314,-0.58246076,11.404674,,,,,,,
33198319,,,,0.2447608,-0.21562804,-0.26142666,,,,
33198320,1.9990265,-0.5513195,11.117216,,,,,,,
33198323,1.9822581,-0.498619,10.803408,,,,,,,
33198324,,,,0.23570605,-0.17994171,-0.2683509,-3.1537895,-53.067802,-17.958565,
33198325,1.9127893,-0.39561346,10.527927,,,,,,,
33198328,1.8481112,-0.3477039,10.266821,,,,,,,
33198329,,,,0.20161763,-0.11389538,-0.26781827,,,,
33198330,1.8552978,-0.37165865,10.058414,,,,,,,
33198333,1.7834334,-0.3453084,9.91229,,,,,,,
33198334,,,,0.1440934,-0.037729044,-0.26302457,-3.3080006,-52.92041,-17.809341,
33198335,1.7067782,-0.32854,9.780539,,,,,,,
33198337,,,,,,,,,,29.0
33198338,1.7355238,-0.32614455,9.677534,,,,,,,
33198339,,,,0.06952494,0.030980458,-0.25450248,,,,
33198340,1.7187555,-0.34291288,9.588901,,,,,,,
33198343,1.6828233,-0.3141671,9.521827,,,,,,,
33198344,,,,-0.021555087,0.08584153,-0.24384981,-2.5374107,-53.940605,-17.778358,
33198345,1.6708459,-0.35968128,9.430799,,,,,,,
33198348,1.666055,-0.34051743,9.445172,,,,,,,
33198349,,,,-0.12861407,0.118332066,-0.23372982,,,,
33198350,1.6732414,-0.34291288,9.411634,,,,,,,
33198353,1.666055,-0.388427,9.38289,,,,,,,
33198354,,,,-0.24259727,0.13004997,-0.22201191,-2.3846092,-53.05613,-17.939568,
33198355,1.6684504,-0.42915013,9.394867,,,,,,,
33198358,1.6995916,-0.52736473,9.43559,,,,,,,
33198359,,,,-0.35551518,0.14123523,-0.21402244,,,,
33198360,1.766665,-0.5992291,9.519432,,,,,,,
33198363,1.7642696,-0.659116,9.543386,,,,,,,
33198364,,,,-0.46044365,0.14656155,-0.20869613,-0.0796051,-51.54007,-17.435493,
33198366,1.7834334,-0.7884718,9.632019,,,,,,,
33198368,1.8073881,-0.87710464,9.773353,,,,,,,
33198369,,,,-0.5568501,0.14975734,-0.20550033,,,,
33198371,1.8265519,-0.9465735,9.964991,,,,,,,
33198373,1.8337386,-1.0232288,10.13507,,,,,,,
33198374,,,,-0.6367448,0.15561628,-0.20656559,-2.5372925,-53.65273,-18.24598,
33198376,1.8217609,-1.0974886,10.26203,,,,,,,
33198378,1.8049927,-1.1430027,10.4369,,,,,,,
33198379,,,,-0.6910732,0.16733418,-0.20230454,,,,
33198381,1.721151,-1.1885167,10.609375,,,,,,,
33198383,1.7091734,-1.2028896,10.743521,,,,,,,
33198384,,,,-0.72462904,0.18917209,-0.19591296,-3.9262295,-51.444077,-17.067993,
33198386,1.6804278,-1.2244489,10.844131,,,,,,,
33198388,1.6277273,-1.2867314,11.021397,,,,,,,
33198389,,,,-0.73368376,0.22006473,-0.1884561,,,,
33198391,1.6421001,-1.3442229,11.172312,,,,,,,
33198393,1.6253318,-1.3490138,11.272922,,,,,,,
33198394,,,,-0.72356373,0.2562837,-0.17886874,-1.1564579,-51.55641,-17.46209,
33198396,1.6373092,-1.389737,11.397487,,,,,,,
33198398,1.6109589,-1.4472284,11.574752,,,,,,,
33198399,,,,-0.70012796,0.3015574,-0.17514032,,,,
33198401,1.546281,-1.4448329,11.725668,,,,,,,
33198403,1.5295126,-1.5166973,11.910119,,,,,,,
33198404,,,,-0.65378904,0.34097216,-0.17993401,-2.8452473,-53.074715,-18.724632,
33198406,1.5127444,-1.5430475,12.130504,,,,,,,
