Date created: 2021-10-22-22-16-6-689000000
Timestamp,acc_x,acc_y,acc_z,gyro_x,gyro_y,gyro_z,mag_x,mag_y,mag_z,light
33194670,0.49706143,-0.37884507,10.937555,-0.030077195,0.0086099235,-0.0062960587,,,,
33194680,0.5132309,-0.347105,10.630934,0.021588085,-0.065159574,-0.004431847,-4.224455,-51.864014,-25.118301,
33194690,0.5832987,-0.35968125,10.066798,0.067660734,-0.092323795,0.003291313,-2.9922104,-52.734417,-25.3871,
33194700,0.6779201,-0.342314,9.672144,0.0772481,-0.06196379,0.011547105,-5.452944,-52.490856,-26.379715,
33194710,0.7324172,-0.26446095,9.413431,0.04502388,-0.052909046,0.0075523676,-3.9146576,-53.913803,-24.467796,
33194720,0.6344022,-0.15446858,9.2184,-0.0061087655,-0.026011143,0.009150263,-5.452074,-52.502438,-27.153381,
33194730,0.5389823,-0.12851757,9.274494,-0.058839314,0.053350993,0.02219974,-3.2979126,-53.054752,-26.783867,
33194740,0.50424784,-0.07881139,9.614054,-0.111037225,0.119131014,0.047499754,-4.068016,-52.76466,-26.342094,
33194750,0.66414607,-0.13570401,10.02967,-0.13633722,0.15242049,0.06427765,-4.221361,-52.628853,-26.966537,
33194760,1.0198746,-0.21475479,10.53212,-0.11636354,0.14949103,0.054956593,-4.0672016,-52.486057,-27.428658,
33194770,1.2318746,-0.19139887,10.901623,-0.056176152,0.121794164,0.03391764,-3.4528008,-53.911434,-24.76587,
33194780,1.2779875,-0.21415594,10.835148,0.017327031,0.08424364,0.013145,-3.2984333,-53.047806,-26.319672,
33194790,1.0707785,-0.1339074,10.559669,0.07405232,0.07465626,-0.003366584,-3.3002453,-51.721127,-26.335083,
33194800,0.7833211,-0.006348163,10.35725,0.10547759,0.060541518,0.004090261,-4.070471,-51.7189,-25.425674,
33194810,0.6653438,0.021199837,9.959002,0.10095021,0.0216594,0.019536583,-2.8381157,-53.16968,-25.068703,
33194820,0.65815735,0.19127882,9.73263,0.061801784,-0.033734303,0.029922903,-5.453081,-51.765392,-27.161942,
33194830,0.83242846,0.23319969,9.8865385,0.011468083,-0.10217748,0.04110817,-2.373579,-54.50557,-26.125023,
33194840,0.8551855,0.17570819,10.020685,-0.0066413973,-0.16529435,0.043771327,-2.9911652,-52.748318,-26.315498,
33194850,1.2486428,0.27991152,10.108719,-0.0023803436,-0.25424385,0.04030922,-3.9176693,-50.834427,-25.586884,
33194860,1.5923939,0.28530136,10.077578,0.015995452,-0.31869227,0.022199739,-3.451931,-53.923016,-25.539536,
33194870,1.7055805,0.34219396,9.52542,0.02718072,-0.32588282,0.0038239448,-4.5290966,-53.211575,-26.193619,
33194880,1.9026085,0.43142554,9.005003,-0.017560348,-0.23027542,-0.012421325,-2.9918613,-52.73905,-25.696564,
33194890,1.9954332,0.41585493,8.923556,-0.090797216,-0.12028696,-0.031596065,-4.222851,-53.911526,-24.0112,
33194900,1.8690717,0.34818265,9.285274,-0.1408646,0.01846361,-0.03505817,-3.9137516,-53.202236,-26.178421,
33194910,1.6780324,0.29727873,9.811681,-0.16163723,0.10661417,-0.03638975,-2.8409367,-51.105957,-25.092667,
33194920,1.5678403,0.17151612,10.29916,-0.17015934,0.13031629,-0.026536066,-4.2224216,-51.60162,-27.287994,
33194930,1.6169477,0.058329754,10.708787,-0.13873407,0.12765312,-0.011888691,-4.223118,-51.592354,-26.66906,
33194940,1.8630831,-0.11953452,11.079487,-0.08334037,0.12259313,-0.01961185,-3.6076717,-53.031628,-24.934677,
33194950,1.9972298,-0.24829149,11.421442,-0.0013150806,0.083444685,-0.05636345,-2.8386574,-52.1494,-25.854347,
33194960,2.0349586,-0.2578734,11.18908,0.0772481,0.028050981,-0.096843466,-3.4544048,-51.863922,-25.87297,
33194970,1.9606988,-0.218348,10.797419,0.12784812,0.01393624,-0.13412768,-4.2199516,-53.660713,-26.954552,
33194980,1.807987,-0.1614554,10.647103,0.16992605,0.034176245,-0.16848242,-3.3012905,-51.707226,-25.406677,
33194990,1.6223375,-0.07701479,10.550685,0.19815552,0.03124677,-0.19058666,-4.2227707,-51.596985,-26.978523,
33195000,1.5504731,-0.078212515,10.417137,0.21227026,0.014202556,-0.20629928,-3.6046963,-54.084343,-26.315285,
33195010,1.4205184,-0.021918781,10.282991,0.21200395,-0.0102985045,-0.22973508,-3.9155655,-51.875557,-26.193832,
33195020,1.1204848,0.060725234,10.212923,0.20028603,-0.045984834,-0.23878983,-4.5309105,-51.884895,-26.20903,
33195030,1.0049028,0.16313195,9.962595,0.19815552,-0.047050096,-0.22787087,-2.8390598,-51.854584,-25.857773,
33195040,0.92405546,0.30626178,10.015894,0.1928292,0.0046151844,-0.20257086,-3.1453228,-52.891113,-25.853386,
33195050,0.8959086,0.32961768,10.387793,0.1997534,0.04669309,-0.18179822,-3.4521255,-52.907364,-26.634651,
33195060,0.90189725,0.30566293,10.794426,0.25035343,0.044562563,-0.17700455,-4.529848,-52.912125,-25.88758,
33195070,0.9504057,0.25595674,10.568052,0.31107345,-1.7850101E-4,-0.18392876,-5.452944,-52.490856,-26.379715,
33195080,1.008496,0.2212223,9.933251,0.30281764,-0.06169747,-0.20896244,-3.2993412,-53.75937,-24.609047,
33195090,0.8456036,0.31584367,9.479906,0.27245766,-0.084600635,-0.23266454,-3.4540024,-52.158737,-25.869545,
33195100,0.5461687,0.36914313,9.322403,0.23810291,-0.071018524,-0.23372981,-1.2974129,-53.611725,-26.572899,
33195110,0.23475653,0.43980974,9.449963,0.20561236,-0.015358508,-0.20550033,-4.069372,-52.02298,-26.041183,
33195120,0.09581877,0.44340295,9.719455,0.19842184,0.05894362,-0.14904135,-2.223341,-51.994965,-25.99559,
33195130,0.09282442,0.36075893,9.855397,0.22558606,0.13004997,-0.085125566,-1.9157696,-53.291504,-24.270523,
33195140,0.19642887,0.2727251,10.030867,0.28390923,0.20195526,-0.036389753,-4.222925,-52.60801,-25.573936,
33195150,0.22098252,0.26014882,10.218912,0.3403682,0.20648262,-0.019345537,-2.2253094,-51.679302,-24.606415,
33195160,0.14312945,0.32662335,10.305748,0.39709347,0.12978365,-0.034791857,-1.9157696,-53.291504,-24.270523,
33195170,0.056293376,0.4511882,10.115906,0.45834613,-0.016157456,-0.06701608,-3.3014088,-51.995094,-24.939056,
33195180,-5.992353E-4,0.73265696,9.443376,0.50441873,-0.18686593,-0.09018557,-3.6074257,-54.337463,-23.526665,
33195190,-0.04252011,1.049459,8.516924,0.49616295,-0.30084914,-0.098441355,-2.3758945,-54.185272,-24.426376,
33195200,0.010180414,1.1728262,7.8455915,0.4141377,-0.31576282,-0.0875224,-3.9146576,-53.913803,-24.467796,
33195210,-0.001796972,1.2548714,7.855173,0.28817028,-0.23400384,-0.06674976,-4.2227974,-54.201706,-23.698303,
33195220,0.09222557,1.2147471,8.178563,0.1760513,-0.10271011,-0.03638975,-2.8392162,-52.865597,-24.453186,
33195230,0.27727628,1.0746115,8.760664,0.09482495,0.010474132,-0.024139222,-2.377222,-53.58869,-23.969032,
33195240,0.28266612,0.9374703,9.487692,0.05860599,0.08184679,-0.038253963,-2.992485,-54.03331,-23.514893,
33195250,0.11797696,0.90752685,9.96559,0.07565021,0.08823837,-0.069412924,-3.6081753,-54.038017,-23.22062,
33195260,-0.08444099,0.99196756,9.730832,0.13503866,0.042964667,-0.09204978,-3.9147758,-54.20167,-24.000175,
33195270,0.0029939823,1.0829958,8.864268,0.16300182,-0.007102714,-0.10110451,-4.2230453,-52.895874,-25.106316,
33195280,0.0521013,1.1704307,8.339659,0.09162916,-0.021217454,-0.1176161,-3.147005,-53.15814,-23.993164,
33195290,0.0147717595,1.1542612,8.239448,-0.023685616,0.0038162372,-0.13545927,-4.0718975,-52.42352,-23.250854,
33195300,-0.1551076,1.1303064,8.487579,-0.12515196,0.036040455,-0.1463782,-2.53232,-52.416386,-24.295998,
33195310,-0.4293899,1.118329,8.888822,-0.19679093,0.05095415,-0.14211714,-2.5323296,-53.28463,-23.202583,
33195320,-0.7348134,1.0596397,9.140347,-0.24392882,0.0653352,-0.114153996,-2.0691452,-53.87884,-23.958008,
33195330,-0.9683726,1.1165323,9.254133,-0.26789725,0.1055489,-0.053966604,-2.9935474,-53.006073,-23.836342,
33195340,-0.8366212,1.0380805,9.466731,-0.29080045,0.14043629,0.02619448,-1.9149723,-54.749382,-23.170265,
33195350,-0.4928701,0.8859676,9.558957,-0.30598044,0.21367316,0.092773445,-3.455183,-54.169186,-22.286713,
33195360,-0.16049743,0.70989996,10.067996,-0.287072,0.30262265,0.14017767,-2.531725,-53.726852,-23.197449,
33195370,0.054496773,0.56257796,10.488402,-0.23673831,0.34789634,0.15455875,-2.531725,-53.726852,-23.197449,
33195380,0.040722772,0.53383225,10.917793,-0.14832143,0.34283632,0.14710188,-0.68538284,-54.426617,-22.524368,
33195390,0.023355544,0.55000174,11.071103,-0.05937194,0.24429949,0.13085663,-4.686493,-52.732304,-23.572098,
33195400,0.058089994,0.6206683,10.556075,-0.0082392935,0.067998365,0.11008398,-1.9187164,-52.383884,-22.733467,
33195410,0.4114231,0.51766276,9.879353,-0.04392562,-0.15144593,0.07386502,-2.072525,-52.531315,-22.580818,
33195420,0.8653662,0.33620524,9.29785,-0.12382038,-0.29472384,0.011014475,-2.378788,-53.567844,-22.576431,
33195430,0.8959086,0.32901883,9.370314,-0.19838883,-0.26969016,-0.044379227,-2.0711975,-53.127895,-23.038162,
33195440,0.67432684,0.42364022,9.984753,-0.22448778,-0.15890276,-0.06888029,-2.224577,-53.715233,-22.725655,
33195450,0.4635247,0.50927854,10.473431,-0.19093198,-0.050245885,-0.060624495,-2.0734787,-52.08445,-22.276482,
33195460,0.4659202,0.507482,10.561465,-0.11263512,0.048557308,-0.032927644,-3.609045,-54.026436,-22.446953,
33195470,0.4874795,0.44280407,10.51655,-0.036468774,0.10794575,-0.016416062,-1.915842,-54.7378,-22.396599,68.0
33195480,0.52101624,0.38770807,10.567453,0.01093545,0.088771,-0.021209748,-3.14892,-53.132656,-22.291092,
33195490,0.5635359,0.2924878,10.646504,0.055676516,0.0078109736,-0.044112913,-2.8407822,-52.84475,-23.060585,
33195500,0.6300105,0.31344822,10.398572,0.102548115,-0.1008459,-0.07553819,-2.072874,-52.52668,-22.271347,
33195510,0.7671516,0.4164538,9.930256,0.13290814,-0.17381644,-0.10563189,-3.456997,-52.842506,-22.302116,
33195520,0.6898975,0.53682655,9.488291,0.13850076,-0.15064698,-0.13066557,-2.9954052,-53.270786,-21.821388,
33195530,0.54257554,0.7985326,9.592493,0.11053759,-0.079008,-0.14557925,-2.2256203,-53.701336,-21.797256,
33195540,0.36710668,0.99675846,9.921872,0.100417584,-0.050778523,-0.15330242,-2.2258778,-53.263744,-22.111855,
33195550,0.2521237,1.1195267,10.09794,0.11719548,-0.0907259,-0.15436769,-1.3025379,-53.109276,-22.55497,
33195560,0.17906165,1.2333119,10.054222,0.13956602,-0.16263118,-0.15916136,-2.8378048,-53.89746,-24.4412,
33195570,0.07845156,1.3488939,9.914685,0.1608713,-0.21403015,-0.15676454,-2.226736,-52.383923,-22.431595,
33195580,-3.6880374E-7,1.4548938,9.761375,0.17685024,-0.22947647,-0.13652453,-2.5356255,-52.372375,-21.356056,
33195590,0.010180414,1.5704756,9.800302,0.18164393,-0.21616068,-0.08965293,-2.0706577,-54.148174,-22.252518,
33195600,0.25272262,1.5584981,9.758381,0.1997534,-0.16689225,-0.04411291,-3.1491299,-53.85349,-21.19941,
33195610,0.600067,1.5459219,9.608065,0.2165313,-0.099780634,-0.02307396,-3.458004,-52.10546,-22.310677,
33195620,1.0474225,1.4872327,9.339172,0.18856815,-0.041990098,-0.055564497,-2.0739803,-53.090836,-20.562431,
33195630,1.0899423,1.5321479,9.551172,0.117728114,0.013669925,-0.13785611,-2.5372562,-52.92958,-19.182945,61.0
33195640,0.70367146,1.6351535,10.37881,0.07751442,0.006479396,-0.2100277,-4.0735283,-52.980724,-21.077744,
33195650,0.37010103,1.6716845,11.072301,0.10760811,-0.0672901,-0.24491508,-1.9198799,-52.657852,-21.337433,
33195660,0.21439497,1.752532,11.2202215,0.17818183,-0.18020803,-0.25370353,-2.074438,-52.505836,-20.878746,
33195670,0.24433844,1.7351646,10.729748,0.2346408,-0.27395123,-0.23612666,-2.539013,-51.893085,-18.885468,
33195680,0.36171693,1.6381478,10.137465,0.2532829,-0.24838491,-0.21109298,-4.0739956,-53.263966,-20.300652,
33195690,0.29943448,1.5309503,9.948822,0.23464079,-0.105639584,-0.1796677,-3.6133404,-54.25871,-18.265732,
33195700,0.38926488,1.2866114,10.185974,0.20215026,0.035507824,-0.13972032,-3.150751,-53.542458,-20.119698,
33195710,0.55395406,0.98957205,10.856708,0.17791551,0.11273943,-0.11814873,-2.8434277,-53.533154,-19.802628,
33195720,0.52760375,0.8769846,11.594515,0.1861713,0.09676048,-0.12480663,-3.152666,-53.516975,-18.417625,
33195730,0.636598,0.7895496,11.717283,0.20507973,-0.01056482,-0.14291611,-3.3064365,-52.941254,-19.201942,
33195740,0.88033795,0.7356513,11.710695,0.21892816,-0.14292382,-0.17833611,-2.9969902,-54.986416,-18.241974,
33195750,0.94681257,0.8278773,11.642425,0.23277658,-0.23693332,-0.2302677,-2.535324,-53.9684,-19.635162,
33195760,0.8420103,1.039877,11.51247,0.24183132,-0.30803967,-0.29311827,-3.4639168,-52.02671,-17.049751,
33195770,0.5377846,1.2566679,11.219024,0.23890185,-0.36503124,-0.3306688,-3.460804,-53.804882,-17.648132,
33195780,0.2569147,1.3225436,10.518347,0.1976229,-0.3607702,-0.32054877,-4.2309914,-53.07951,-17.67569,56.0
33195790,0.05749111,1.2668487,9.861985,0.089232326,-0.26383123,-0.26622036,-3.3063164,-52.653385,-19.66957,
33195800,0.12576225,1.0692217,9.55716,-0.090797216,-0.117623806,-0.17966768,-3.6135502,-54.97954,-17.174042,
33195810,0.24613503,0.69253266,10.011703,-0.31210572,0.03550783,-0.090718195,-3.3088055,-52.330776,-17.816193,
33195820,0.41801065,0.25655562,10.878865,-0.47668892,0.16866577,-9.697415E-4,-3.3086967,-52.911144,-17.190414,
33195830,0.66234946,-0.20217854,11.80352,-0.55738264,0.23764157,0.0735987,-3.4631577,-51.457916,-18.449196,
33195840,1.0432305,-0.64354545,12.63056,-0.57203,0.23204896,0.11940503,-2.5415401,-52.29362,-16.095123,
33195850,1.4941795,-1.2046863,13.090491,-0.5035868,0.2248584,0.1287261,-4.077986,-52.34245,-17.83519,
33195860,1.719554,-1.4991306,13.347407,-0.3858752,0.21580368,0.09383871,-3.3117828,-51.278065,-16.435577,
33195870,1.8403261,-1.6676126,13.367769,-0.25032043,0.13297944,0.03338501,-3.3107033,-50.568813,-18.300934,
33195880,2.014597,-1.7119288,12.713203,-0.16376776,-0.06808905,-0.046776075,-3.926834,-51.001854,-17.073128,52.0
33195890,2.2325854,-1.6903696,11.667578,-0.14778881,-0.2840712,-0.139454,-2.8493767,-51.427734,-17.041397,
33195900,2.2888794,-1.5382566,10.490199,-0.20877513,-0.404446,-0.21322349,-4.078472,-51.61235,-18.307945,
33195910,2.1205971,-1.214867,9.718257,-0.31343728,-0.3357365,-0.24331719,-3.4655914,-51.42549,-16.282928,
33195920,1.7217498,-0.9052514,9.759579,-0.38427728,-0.07927432,-0.22307718,-5.7715397,-51.62645,-17.576073,
33195930,1.3624281,-0.71181655,10.524336,-0.37655413,0.19662893,-0.16022664,-5.1568527,-50.8847,-17.878906,
33195940,1.0138859,-0.5597037,11.438808,-0.28787094,0.37000054,-0.0941803,-3.9254246,-52.033714,-17.06115,
33195950,0.87075603,-0.44771507,11.858616,-0.13473932,0.39636585,-0.04943923,-5.1598854,-49.541805,-16.81118,
33195960,1.009095,-0.37345526,11.637633,0.0058754478,0.2948995,-0.028666593,-4.542948,-49.698402,-18.032135,
33195970,1.2977501,-0.38303718,11.179499,0.10361338,0.13031629,-0.028932907,-4.2353764,-50.99494,-16.30706,
33195980,1.500767,-0.23511636,10.380606,0.14915341,-9.774491E-4,-0.0523687,-3.6170197,-51.315163,-18.609444,46.0
33195990,1.6235352,-0.08420121,9.652381,0.15740919,-0.052376416,-0.07873398,-5.160179,-49.827354,-16.18882,
33196000,1.9666874,-0.1021673,9.027161,0.12651655,-0.004972188,-0.11468662,-5.3146,-50.400795,-14.9479065,
33196010,2.0157948,0.022996448,8.832529,0.074584946,0.12046259,-0.17327611,-3.932602,-48.03051,-15.560036,
33196020,1.6522809,0.23020534,9.013986,0.02371861,0.21420577,-0.20763086,-3.3148956,-49.499893,-15.837189,
33196030,1.2528348,0.37333515,9.156517,-0.017027717,0.22645631,-0.20443507,-3.6225681,-49.504562,-15.844788,
33196040,1.0737729,0.51227295,9.040935,-0.060703523,0.18224788,-0.18020031,-3.929781,-50.094234,-15.536072,
33196050,1.0102926,0.45777583,8.761862,-0.11636354,0.1359089,-0.15543294,-4.0835915,-50.24166,-15.383423,
33196060,1.151626,0.36854422,8.329478,-0.20744357,0.13164786,-0.144514,-6.238184,-49.249428,-15.912804,
33196070,1.1935468,0.23200195,8.385173,-0.2955941,0.19183525,-0.13812241,-5.92803,-50.43561,-16.665176,
33196080,1.0330497,0.08887211,9.195443,-0.31610045,0.25788158,-0.12773609,-5.92803,-50.43561,-16.665176,
33196090,0.81386346,0.090069845,9.966189,-0.2670983,0.26560473,-0.11628452,-4.544256,-50.115154,-16.324936,
33196100,0.5922817,0.13019411,10.364437,-0.16722986,0.20168895,-0.10030557,-5.778488,-47.915745,-15.916817,
33196110,0.6246207,0.1757082,10.313533,-0.060969837,0.10474995,-0.087788716,-4.2384605,-49.36186,-15.552231,
33196120,0.5809032,0.20864603,9.953013,0.034104932,0.029648878,-0.08832135,-4.546829,-49.35726,-14.940895,
33196130,0.53359246,0.27272508,9.473918,0.101216525,-0.030804828,-0.08192977,-5.0067177,-49.675293,-16.031998,42.0
33196140,0.65636075,0.26913187,8.835523,0.12039127,-0.082470104,-0.073407665,-5.934822,-45.713894,-16.410492,
33196150,0.83063185,0.3805216,8.40254,0.10015127,-0.09551959,-0.0672824,-5.6243305,-47.77295,-16.378922,
33196160,0.79050756,0.4637645,8.274383,0.069524944,-0.059034307,-0.07180977,-5.9339256,-48.62038,-13.591057,
33196170,0.7857166,0.61647624,8.385174,0.036501773,-0.03187009,-0.07021187,-5.932873,-47.766037,-15.612854,
33196180,0.74918556,0.6991203,8.521715,0.031175457,-0.008966925,-0.05929292,-6.3931084,-48.079445,-16.394493,
33196190,0.6767223,0.8141032,8.758867,0.059937567,0.020061506,-0.035590805,-5.6260166,-48.039974,-14.5187,
33196200,0.64438343,0.91171896,8.952302,0.11266811,0.037372038,-0.012953956,-5.3140965,-49.394413,-16.661964,
33196210,0.64079016,0.91651,9.268505,0.19203025,0.0038162372,-0.0012360569,-5.9341736,-47.31455,-14.999062,
33196220,0.74559236,0.92249864,9.46733,0.2767187,-0.047849048,0.0043565766,-5.781931,-47.14627,-13.759102,
33196230,0.97136617,0.9614252,9.093037,0.36992925,-0.105905905,0.0051555242,-5.931547,-48.36262,-16.070206,
33196240,1.133061,0.9787924,8.442664,0.46713454,-0.14319012,-0.0078939535,-6.3928604,-49.385277,-14.986488,
33196250,1.1055131,1.1985775,8.041422,0.49935877,-0.113629065,-0.01721501,-5.1648827,-47.883244,-14.354286,
33196260,1.073174,1.4117751,7.9378166,0.4748577,-0.04412062,-0.010823429,-7.4735603,-48.337326,-12.858803,
33196270,1.2462473,1.4848373,8.119874,0.41520295,0.005147817,-9.697409E-4,-5.780712,-47.162487,-14.842239,
33196280,1.3977613,1.4692667,8.540279,0.34649348,-0.004705871,-0.015350798,-5.6277733,-47.003475,-14.221222,
33196290,1.4624393,1.3968034,8.866665,0.2974913,-0.058501676,-0.048373964,-5.472849,-48.173462,-13.739517,
33196300,1.3594337,1.371052,9.097228,0.28044713,-0.10164485,-0.089919254,-5.4752846,-48.141033,-11.573257,
33196310,1.1168916,1.439922,9.254731,0.28284395,-0.11496065,-0.11948031,-5.012184,-48.299973,-12.798012,
33196320,0.9102815,1.417165,9.3846855,0.28231132,-0.11203118,-0.11548557,-5.6273327,-49.324963,-11.718094,
33196330,0.8084736,1.3339221,9.57333,0.2663324,-0.11096591,-0.10137083,-6.7038383,-49.345936,-12.054161,
33196340,0.8521911,1.2009729,9.733827,0.22771658,-0.13413538,-0.08539188,-7.012802,-48.030876,-12.541359,
33196350,0.68869966,1.1866002,9.847612,0.18137762,-0.14398907,-0.08086451,-5.16514,-50.195465,-11.2322235,
33196360,0.48029307,1.1967809,10.673454,0.16513234,-0.04864799,-0.03452554,-6.705652,-48.019257,-12.069565,
33196370,0.48628178,1.3117638,11.244775,0.19522604,0.026453085,0.041907113,-5.474415,-48.152615,-12.346924,
33196380,0.825242,1.3231425,11.386107,0.24129868,0.0333773,0.11833977,-7.473503,-48.627514,-12.545914,
33196390,1.3785975,1.2261255,11.358561,0.2799145,-0.020684825,0.16174926,-7.322672,-47.427372,-11.317947,
33196400,1.8295465,1.2291198,11.0423565,0.29722506,-0.071018524,0.15136294,-7.780985,-49.647827,-11.458389,
33196410,2.011004,1.2363064,10.856708,0.26793027,-0.13253748,0.08664818,-6.85915,-48.89446,-11.289429,
33196420,1.9433315,1.1979787,10.77107,0.211205,-0.20790488,0.012612369,-7.4752426,-48.60435,-10.998581,
33196430,1.8377309,1.0895833,10.820176,0.13530497,-0.26463017,-0.035324488,-7.322378,-47.141823,-11.9403,
33196440,1.7193543,1.1021596,10.801612,0.06792705,-0.25104806,-0.053433966,-6.3966503,-48.61117,-12.519318,
33196450,1.5420889,1.1344986,10.814188,0.01493019,-0.14239118,-0.04544449,-8.861326,-47.73627,-10.733574,
33196460,1.3558406,1.0638319,10.97768,-0.035403512,0.011006765,-0.02307396,-8.704834,-48.927105,-11.644485,
33196470,1.2055242,1.0638319,11.237589,-0.073753,0.1321805,0.001959734,-6.7045345,-49.33667,-11.435219,
33196480,1.1288689,0.95184326,11.510074,-0.09159617,0.19982472,0.020868162,-6.85927,-49.182327,-10.8218,38.0
33196490,1.1330609,0.75721055,11.622063,-0.11236879,0.18491104,0.007818683,-5.9400063,-47.671066,-9.268791,
33196500,0.99412316,0.5703633,11.278312,-0.15764248,0.09010258,-0.034791857,-8.090588,-48.61369,-11.013779,
33196510,0.77733237,0.32123354,10.595001,-0.24898884,-0.018554298,-0.07553819,-6.554104,-47.841717,-10.210678,
33196520,0.29404458,0.106239334,10.090753,-0.40824574,-0.06409431,-0.0891203,-8.553059,-49.042072,-9.627441,
33196530,-0.07845229,-0.15307122,9.991342,-0.60718375,-0.05131115,-0.061689764,-8.091688,-48.309605,-10.39827,
33196540,-0.23475726,-0.60701436,10.423126,-0.7826859,-0.009765873,-0.0041655316,-8.550219,-49.36932,-11.790283,
33196550,-0.35632777,-0.96873164,11.387905,-0.8596512,0.05388362,0.06933765,-7.4760494,-48.014717,-11.0054245,
33196560,-0.31201145,-1.0226297,12.543125,-0.79387116,0.113272056,0.15482506,-8.85955,-47.036285,-13.217873,
33196570,0.053299036,-1.2052852,13.389926,-0.5768237,0.14176786,0.22140402,-9.014458,-46.87963,-12.449715,
33196580,0.49526483,-1.4424376,13.565994,-0.24419516,0.12605523,0.23525244,-7.9365234,-48.90385,-10.851822,33.0
33196590,0.8456035,-1.3969234,12.504796,0.10174917,0.044029936,0.19610402,-7.783512,-47.298553,-12.104721,
33196600,0.7138522,-1.1202457,10.998041,0.3251882,-0.040658515,0.119671345,-10.243204,-47.06888,-14.025734,
33196610,0.4132197,-0.75134194,9.460742,0.38590822,-0.12561327,0.050162904,-9.783289,-46.89594,-12.778183,
33196620,0.22397688,-0.35189593,8.1959305,0.2982903,-0.26436386,-0.015617113,-10.245694,-46.746265,-12.172363,
33196630,0.057491124,0.051143322,7.5000434,0.11346707,-0.42734915,-0.06515187,-9.321781,-46.888935,-12.766785,
33196640,-0.27667814,0.3409962,7.3922467,-0.086802475,-0.5109724,-0.068347655,-9.3238125,-47.151325,-10.597099,
33196650,-0.49167234,0.38770807,7.700665,-0.23514041,-0.43933338,-0.014019216,-7.9387283,-46.414116,-11.964058,
33196660,-0.6395931,0.2841036,8.214495,-0.26789728,-0.17408276,0.08877871,-9.783235,-47.186123,-12.465286,
33196670,-0.54796606,0.10504159,8.9355345,-0.21063936,0.16280682,0.19850084,-9.627201,-47.791954,-13.6925125,
33196680,-0.41621476,-0.118336774,9.747002,-0.10943933,0.37825638,0.2701398,-11.01407,-47.34758,-12.184509,30.0
33196690,-0.27188718,-0.300992,10.181782,0.021055453,0.3755932,0.29970086,-9.165409,-48.367638,-13.21006,
33196700,0.029344246,-0.35369253,10.158425,0.15794182,0.20381945,0.29916826,-10.707148,-47.043457,-11.870865,
33196710,0.3832762,-0.3704609,9.399658,0.26047343,-0.03772904,0.26827562,-10.245017,-45.7422,-14.041138,
33196720,0.7785301,-0.3201559,8.194733,0.26739764,-0.23560172,0.20915349,-10.397883,-47.204727,-13.099419,
33196730,1.1761796,-0.31596377,7.354518,0.19416077,-0.3085723,0.13378608,-10.244824,-46.757847,-12.94603,
33196740,1.1462361,-0.094382,7.2964277,0.094558634,-0.26036912,0.04723343,-12.242852,-48.25997,-12.823563,
33196750,0.72942287,0.21703021,7.53897,0.02957756,-0.15490803,-0.01721501,-10.398697,-47.48333,-12.012863,
33196760,0.18385261,0.47634074,7.5353765,0.0037449216,-0.015891138,-0.021476062,-9.937811,-46.020763,-13.256454,
33196770,-0.19283639,0.5865328,7.586281,-0.018625611,0.16839945,0.034450274,-11.169974,-45.585632,-12.518318,
33196780,-0.5725197,0.71109766,8.061783,-0.03753404,0.38571322,0.1204703,-11.169974,-45.585632,-12.518318,28.0
33196790,-0.64258754,0.55898476,8.762461,-0.031941406,0.5295238,0.22459981,-11.9370575,-47.506676,-12.050858,
33196800,-0.31979674,0.32602447,9.406246,0.003212289,0.52632797,0.30742404,-11.015827,-46.31108,-11.887024,
33196810,0.07785268,0.15175343,9.506855,0.073786,0.4171385,0.3455072,-11.4754305,-47.211803,-12.50708,
33196820,0.5779088,0.06671394,9.368516,0.120124966,0.22299421,0.3321914,-9.940128,-45.70047,-11.557808,
33196830,0.95639443,0.036770456,9.265511,0.14143024,-0.011630084,0.2642809,-12.398594,-47.36859,-12.218704,
33196840,1.1366541,0.08647663,9.01219,0.16593131,-0.19458908,0.18545137,-12.707365,-47.06917,-11.610786,
33196850,1.1079085,0.23978725,8.870257,0.19469342,-0.25397754,0.117807135,-11.168629,-47.195553,-11.725815,
33196860,0.91627026,0.3296177,8.589387,0.22398816,-0.20124698,0.0837187,-11.940784,-46.15452,-10.364204,
33196870,0.93603283,0.48412606,7.9521894,0.21040605,-0.088595375,0.07572922,-11.016733,-47.022644,-10.176399,
33196880,1.0611966,0.617674,7.6725183,0.13450602,0.021126768,0.06587554,-11.324927,-47.020367,-9.719803,
33196890,0.96777296,0.6649847,7.758755,0.035170194,0.1425668,0.058418702,-11.631784,-46.74643,-10.81395,
33196900,0.78871095,0.667979,8.422902,-0.05830668,0.25761527,0.06427765,-11.632132,-46.7418,-10.504486,
33196910,0.5797055,0.6098887,9.116991,-0.12302144,0.2914374,0.079191335,-12.553098,-47.50675,-11.447128,
33196920,0.48867726,0.5206571,9.798505,-0.15391406,0.24749526,0.09277344,-13.016941,-46.180122,-11.0097275,
33196930,0.52041733,0.39489448,10.471635,-0.13633722,0.17825313,0.08984397,-13.0175,-46.896324,-9.608574,26.0
33196940,0.44615752,0.33979848,11.105837,-0.079079315,0.12259312,0.0786587,-12.248511,-45.869003,-10.684692,
33196950,0.4042366,0.24757256,11.538221,0.024783876,0.07891731,0.074397646,-11.169572,-45.880455,-12.514893,
33196960,0.34315193,0.22421664,11.319634,0.14968602,0.06080783,0.08638186,-10.705179,-47.359123,-13.26004,
33196970,0.3910615,0.21822795,10.513556,0.2181292,0.05388362,0.118872404,-10.707898,-46.744003,-11.564819,
33196980,0.7671517,0.12001332,9.576923,0.1675292,0.06347099,0.14630294,-11.167356,-47.50195,-12.496063,
33196990,1.1707897,-0.039286003,9.364325,0.016261768,0.106880486,0.14869979,-11.938623,-47.48583,-10.658264,
33197000,1.2971512,-0.11294696,10.083168,-0.13953303,0.16893208,0.12899241,-11.016175,-46.306446,-11.577553,
33197010,1.3139197,-0.12612209,10.985465,-0.1981225,0.24509844,0.1138124,-11.94084,-45.864334,-10.6770935,
33197020,1.298349,-0.08779443,11.950842,-0.16057196,0.2980953,0.11274713,-12.706147,-47.08539,-12.693924,
33197030,1.3474563,-0.0063481554,12.737159,-0.053246677,0.2871763,0.098366074,-12.091536,-47.789932,-11.122833,
33197040,1.518733,0.0074258447,12.850944,0.069524944,0.1691984,0.060549226,-11.937754,-47.49741,-11.431931,
33197050,1.7840321,0.07629585,12.655113,0.1709913,-0.007901665,-0.0017686887,-10.398093,-47.92556,-12.007729,
33197060,2.0169926,0.100849494,11.935871,0.24076605,-0.13333644,-0.08059819,-11.478525,-46.446964,-10.658852,
33197070,2.245162,0.20325622,11.059725,0.23730394,-0.1562396,-0.16901505,-11.630915,-46.75801,-11.587616,
33197080,2.1044276,0.34339172,10.530922,0.16646394,-0.105639584,-0.24464877,-11.1672735,-47.937233,-12.026726,23.0
33197090,1.9373429,0.38171935,9.948821,0.050083883,-0.009765875,-0.30137405,-12.398749,-48.379604,-10.814117,
33197100,1.830744,0.3691431,9.369714,-0.12541828,0.099956274,-0.3351962,-12.400095,-46.769684,-11.606613,
33197110,1.6804278,0.25835222,9.180471,-0.35791203,0.19156894,-0.36076248,-12.245691,-47.932728,-10.660728,
33197120,1.6864166,-0.014133476,9.736223,-0.5696332,0.25601736,-0.38339937,-12.554425,-46.910164,-10.989769,
33197130,1.445072,-0.3644722,10.754301,-0.6769585,0.30422056,-0.388193,-11.477362,-46.172993,-12.054871,
33197140,1.2504395,-0.62557936,11.381917,-0.6940026,0.33005318,-0.36742038,-11.936939,-47.218807,-12.518478,
33197150,0.96058655,-0.8555452,11.801125,-0.66018057,0.3622774,-0.33093512,-10.247607,-46.720787,-10.470291,
33197160,0.8623719,-1.119048,12.001747,-0.583748,0.38837636,-0.27554142,-11.474735,-47.22107,-13.126015,
33197170,0.89830405,-1.2867314,12.046062,-0.47908577,0.40781742,-0.2286698,-12.242642,-47.53914,-13.915253,
33197180,1.0336486,-1.3388331,12.188594,-0.35444993,0.37133217,-0.21881613,-9.013046,-47.911495,-12.437729,
33197190,1.142044,-1.2430139,12.301781,-0.22741726,0.22246157,-0.2568993,-9.937619,-47.036415,-12.161339,
33197200,1.1013209,-1.0627542,12.155656,-0.08014458,-0.004972186,-0.32001618,-11.320524,-47.36846,-13.275238,
33197210,0.9803492,-0.6968448,11.601702,0.062068097,-0.25477648,-0.3794046,-12.399591,-45.7633,-13.320663,
33197220,0.8402137,-0.27823496,10.557273,0.13477235,-0.47262287,-0.41189516,-11.473984,-47.52052,-13.43206,
33197230,0.63659805,-0.0650374,9.238563,0.1108039,-0.58500814,-0.40177512,-11.935026,-47.24429,-14.220551,21.0
33197240,0.49766028,0.18109803,8.222879,0.0026796572,-0.55651236,-0.33972353,-9.628519,-46.32713,-14.3285675,
33197250,0.49526483,0.2703296,7.380269,-0.1592404,-0.3828744,-0.2505077,-10.862018,-46.163654,-12.039673,
33197260,0.5605416,0.12779863,7.1730604,-0.35045522,-0.11336275,-0.15782979,-11.320268,-47.806053,-12.96064,
33197270,0.6401913,-0.044675812,8.070168,-0.4894721,0.10581522,-0.08192977,-9.781724,-46.916786,-14.170784,
33197280,0.7917053,-0.177026,9.076268,-0.5326153,0.19343315,-0.03186238,-10.704419,-46.79033,-14.659485,
33197290,1.2145073,-0.39381683,9.481704,-0.50678265,0.20568368,-0.038786594,-11.166505,-46.500202,-14.519585,
33197300,1.3019422,-0.5231727,9.785929,-0.43727416,0.20515104,-0.09284872,-11.935969,-45.92919,-15.009621,
33197310,1.1186881,-0.3824383,10.182381,-0.32675308,0.10688048,-0.15090558,-10.0898075,-47.494873,-13.088394,
33197320,0.8539877,-0.13510513,10.155432,-0.2013183,-0.09551959,-0.19404873,-8.703716,-47.49471,-14.446808,
33197330,0.6719314,0.0733015,9.458347,-0.08946563,-0.2907291,-0.20709823,-10.858311,-46.502483,-14.976181,
33197340,0.74259794,0.11103028,8.621127,-0.02528351,-0.3863365,-0.19910875,-9.627914,-46.769356,-14.323425,
33197350,0.8989029,0.29069117,7.243727,-0.04712141,-0.38926598,-0.19910875,-9.781322,-47.211605,-14.167358,
33197360,0.7755358,0.5002955,6.499931,-0.11316775,-0.28114173,-0.19751085,-9.010866,-47.50633,-14.918602,
33197370,0.49047387,0.5667701,6.787987,-0.18374145,-0.13759749,-0.17780349,-9.780104,-47.227818,-15.250496,
33197380,0.2114006,0.7104988,7.5311847,-0.24073306,0.003283605,-0.13945399,-10.245017,-45.7422,-14.041138,
33197390,0.083242506,0.78535753,8.110891,-0.24872252,0.046426773,-0.09604451,-9.629215,-46.317863,-13.709633,
33197400,0.13474531,0.78116536,8.672031,-0.20264989,0.026453085,-0.049439225,-9.01268,-46.17965,-14.934013,
33197410,0.22757009,0.6805553,9.054111,-0.10091721,-0.03453325,-0.020943431,-8.548975,-46.780807,-16.153625,
33197420,0.4892761,0.59551585,8.76306,0.03224072,-0.104840636,-0.012155008,-8.090698,-45.2835,-15.076218,
33197430,0.9953209,0.5907249,8.201919,0.120124966,-0.14665222,-0.024938166,-10.085898,-47.981113,-16.023201,
33197440,1.036643,0.50628424,8.232462,0.14356077,-0.10697116,-0.057695016,-9.166662,-46.324757,-14.626625,
33197450,1.0989254,0.4380131,8.327083,0.15874076,-0.05796905,-0.06994556,-9.164227,-46.357185,-16.7929,
33197460,1.2528349,0.40507525,8.466021,0.16859445,-0.039326936,-0.08459294,-7.7807293,-47.335613,-14.580452,
33197470,1.4097388,0.36554986,8.6355,0.16140392,-0.067556426,-0.11042557,-8.088144,-47.777874,-14.273453,
33197480,1.4804053,0.35177588,8.781624,0.14702287,-0.10697117,-0.14051926,-8.088144,-47.777874,-14.273453,
33197490,1.3426653,0.38591146,8.982245,0.1374355,-0.11362906,-0.1660856,-7.7825775,-46.732075,-13.658905,
33197500,1.1079084,0.4895159,9.491884,0.13530497,-0.07448063,-0.18233085,-8.089207,-46.75064,-14.594894,
33197510,1.0246656,0.47035205,9.986549,0.16033867,-0.057702735,-0.18339612,-8.703909,-46.47906,-15.541916,
33197520,0.9743605,0.5326345,10.394381,0.20667762,-0.101644844,-0.18046664,-6.5525227,-46.12608,-13.790085,
33197530,1.0078973,0.60509765,10.289578,0.2833766,-0.19006172,-0.16848242,-7.934473,-46.904984,-15.208321,
33197540,1.0462248,0.73325586,9.851805,0.34436294,-0.27767965,-0.16049296,-8.088337,-46.762222,-15.368561,
33197550,1.0480216,0.88117665,9.489489,0.35261872,-0.32295334,-0.16342244,-7.779602,-47.784786,-15.03952,
33197560,1.0560064,1.0201144,9.035545,0.29562712,-0.35384598,-0.1796677,-8.089363,-47.761658,-13.190315,
33197570,0.9108803,1.2848147,8.723535,0.17525235,-0.34798706,-0.19910875,-7.321289,-45.56433,-14.899063,
33197580,0.5096377,1.426148,8.812765,0.018125977,-0.29632175,-0.18579295,-7.4738617,-46.741302,-14.579697,
33197590,0.3048243,1.4417186,9.02776,-0.15151723,-0.22867754,-0.13519295,-8.242611,-47.19289,-14.438835,
33197600,0.07905044,1.4027921,9.609861,-0.3049152,-0.10537327,-0.06408661,-7.6251984,-48.947826,-14.09362,
33197610,-0.016768709,1.1243178,10.6590805,-0.36883098,0.09462994,0.038711324,-6.703619,-47.756863,-14.239258,
33197620,0.12396565,0.911719,11.847238,-0.3472594,0.26720265,0.13059029,-5.9341736,-47.31455,-14.999062,
33197630,0.2473328,0.7332558,12.856933,-0.25324988,0.34683108,0.2008977,-7.317856,-47.202045,-15.963371,23.0
33197640,0.4838863,0.64043105,13.6174965,-0.10864038,0.32366163,0.25016615,-6.704279,-47.02445,-14.557274,
33197650,0.9001007,0.4260357,13.676785,0.0671281,0.17985103,0.25602508,-8.704063,-47.490078,-14.137337,
33197660,1.4450719,0.2170302,12.881485,0.22212395,-0.02095114,0.23205665,-6.6988297,-50.136257,-15.604462,
33197670,2.0020208,0.24517709,11.466356,0.28577346,-0.16582698,0.17533137,-6.3954334,-48.627384,-13.602455,
33197680,2.213422,0.41046512,9.956008,0.19309552,-0.17940909,0.07839239,-7.469713,-49.40162,-15.013084,
33197690,2.0529246,0.51526725,9.399059,-0.02927825,-0.11096591,-0.014019218,-4.5493565,-47.00798,-15.587219,
33197700,1.57862,0.5859339,9.999726,-0.26922888,-0.010564822,-0.07979925,-7.6264553,-46.904945,-15.510185,
33197710,0.99053,0.66618246,10.886053,-0.44739416,0.047492035,-0.10296873,-7.469614,-48.100418,-16.73056,
33197720,0.53239477,0.51886046,11.57655,-0.5515237,0.049888883,-0.07287503,-5.93095,-49.673088,-14.971664,
33197730,0.14612383,0.13079299,11.878979,-0.60824895,0.06533521,-0.007627638,-4.3930206,-49.20983,-15.093544,
33197740,-0.111988984,-0.30398637,12.059837,-0.6282227,0.10155417,0.061081856,-5.7787457,-47.478146,-16.231415,
33197750,-0.3581244,-0.70582795,12.3101635,-0.6410059,0.10608154,0.13351977,-5.16502,-47.15778,-15.136513,
33197760,-0.5108361,-1.0891044,12.538334,-0.6420711,0.054682568,0.2126156,-4.54652,-47.335228,-17.750061,
33197770,-0.44076842,-1.4681889,12.839565,-0.61757004,-0.02414693,0.29490718,-4.54521,-49.66829,-16.0206,
33197780,-0.23835047,-1.8412846,13.210865,-0.5480616,-0.08779643,0.36095357,-4.5488358,-47.014927,-16.051414,26.0
33197790,0.18864357,-2.1425161,13.277938,-0.42875206,-0.10271011,0.39051458,-4.6998596,-47.199417,-18.374504,
33197800,0.4365756,-2.1766517,13.53126,-0.25937515,-0.072083786,0.37719882,-4.5468674,-47.330597,-17.440598,
33197810,0.49646258,-2.1359286,13.856445,-0.0401972,-0.12055328,0.33618617,-5.1623936,-48.205853,-16.207657,
33197820,0.36770558,-1.9113523,13.3797455,0.20987341,-0.24439016,0.28452086,-4.392864,-48.198814,-16.498123,
33197830,0.17666617,-1.5496352,12.068819,0.41333875,-0.37222177,0.25176403,-3.6228695,-47.90854,-17.565681,29.0
33197840,0.13534418,-1.2681664,10.285985,0.5062829,-0.38953233,0.25868824,-3.467945,-49.07853,-17.083992,
33197850,0.2413441,-1.0573645,8.93793,0.46367246,-0.2907291,0.27839562,-4.0841656,-47.194714,-18.668777,
33197860,0.25451922,-0.91243786,8.2881565,0.35794502,-0.13733117,0.29810297,-5.46784,-48.963783,-17.289825,
33197870,0.5078411,-1.0561666,8.067773,0.26579976,0.03284467,0.32047355,-5.466934,-48.252216,-19.000458,
33197880,0.6755246,-1.0280197,8.243839,0.19176394,0.19849315,0.313283,-4.3921146,-48.498264,-16.804161,
33197890,0.62042856,-0.9160311,8.704969,0.13290814,0.27412686,0.27413458,-3.4669018,-49.092426,-18.01239,
33197900,0.5329936,-0.8423701,9.024765,0.10095021,0.21473841,0.2211377,-4.390896,-48.51448,-17.887299,
33197910,0.4617281,-0.691455,8.901998,0.098553374,0.09516259,0.16734189,-5.7737637,-50.87319,-16.501503,
33197920,0.4838863,-0.57587326,8.615139,0.09136285,-0.029206933,0.120736614,-3.622118,-48.20799,-17.871727,
33197930,0.4784965,-0.46148908,8.2025175,0.07112284,-0.11176485,0.081321865,-4.386997,-49.868958,-19.728691,
33197940,0.34734398,-0.33392987,7.7419868,0.049284935,-0.10324274,0.07306607,-4.392708,-47.1878,-17.90271,
33197950,0.27008983,-0.2680542,7.539569,0.034104932,0.011006764,0.09730081,-4.69866,-48.95211,-17.270828,
33197960,0.17247409,-0.26206547,7.716235,0.025582824,0.16813314,0.11754082,-5.4671555,-49.84129,-16.815353,
33197970,0.17367181,-0.2794327,8.098314,0.0452902,0.26720265,0.12606293,-3.6222744,-49.219006,-16.467148,
33197980,0.21619156,-0.33033663,8.485184,0.08923232,0.23551103,0.1154103,-4.0814114,-49.836494,-17.864296,
33197990,0.18684697,-0.39681116,8.385173,0.15128392,0.1138047,0.08851239,-3.928547,-48.373966,-18.806015,
33198000,0.19044018,-0.3650711,7.9426084,0.19229656,-0.020684825,0.0650766,-4.07959,-50.294937,-18.942291,
33198010,0.20900513,-0.38543266,7.5210037,0.20534605,-0.08193748,0.053625017,-3.313631,-47.924717,-18.950691,
33198020,0.06827077,-0.30218977,7.505433,0.1976229,-0.04465325,0.062946066,-3.1560783,-50.142784,-19.540138,
33198030,0.035332948,-0.2722463,7.6761107,0.19629131,0.04189941,0.10315976,-3.4631386,-49.721436,-20.636002,
33198040,0.12456452,-0.37884507,7.995908,0.20561236,0.116201535,0.15961874,-3.0024357,-51.87461,-17.194794,
33198050,0.3120107,-0.38064167,8.302528,0.23410818,0.15348576,0.20968612,-3.465765,-48.673363,-19.564857,
33198060,0.52880156,-0.44232526,8.488178,0.26553345,0.14682788,0.21847454,-4.5406036,-50.163795,-19.574333,
33198070,0.7264285,-0.55131954,8.510935,0.30255133,0.10634785,0.18678296,-3.3099499,-50.868267,-18.60698,
33198080,0.7988918,-0.5231727,8.352834,0.32279134,0.05255204,0.1255303,-3.9269981,-50.131294,-18.011803,
33198090,0.66414607,-0.37824622,8.364212,0.33610713,-0.014293243,0.061081856,-4.6957493,-50.58288,-17.870934,
33198100,0.4329824,-0.22972654,8.570223,0.3401019,-0.08326905,0.021134477,-2.8480034,-50.43293,-19.529114,
33198110,0.28925365,-0.03389617,8.774437,0.3302482,-0.16689223,0.012612369,-3.4619389,-51.474133,-19.532333,
33198120,0.23894861,0.058329754,8.936132,0.31480187,-0.2531786,0.02406395,-2.2338524,-50.55247,-18.274338,
33198130,0.28466234,0.021998331,8.963681,0.31693238,-0.25903752,0.06054923,-1.7699986,-51.01086,-19.805138,27.0
33198140,0.33357006,0.023595318,9.158314,0.3353082,-0.16822383,0.106089234,-1.7699986,-51.01086,-19.805138,
33198150,0.3299768,0.13797942,9.336178,0.3632714,-0.02228272,0.14736821,-3.923256,-52.496788,-18.448608,
33198160,0.18684696,0.26014882,9.517036,0.3755219,0.1020868,0.18065768,-3.617485,-51.5984,-17.832352,
33198170,0.10480181,0.41585493,9.653579,0.35927662,0.11886469,0.2078219,-1.9240723,-51.588932,-18.873695,
33198180,0.23954749,0.51526725,9.684121,0.30574712,0.037904672,0.2227356,-1.9240723,-51.588932,-18.873695,
33198190,0.53359246,0.49071366,9.826652,0.23437446,-0.07421432,0.22886086,-2.0797577,-50.987736,-17.95594,
33198200,1.0234678,0.30686066,9.77994,0.1542134,-0.17940909,0.21794191,-3.9237232,-52.78002,-17.671516,
33198210,1.5079534,0.0032337494,9.80689,0.056475468,-0.24598804,0.1891798,-4.3868217,-52.621086,-16.446762,
33198220,1.8091848,-0.24829152,9.862584,-0.0452572,-0.22068805,0.14790085,-4.386366,-53.206093,-16.130447,
33198230,1.9726762,-0.5016134,10.208132,-0.12781513,-0.11496064,0.10289344,-3.6167717,-52.620995,-17.201431,
33198240,1.9852524,-0.66151154,10.960312,-0.1826762,0.001952026,0.068538696,-4.0792046,-52.326233,-16.752052,
33198250,2.0385518,-0.829195,11.471746,-0.21676463,0.029116245,0.0315208,-3.466545,-50.978634,-15.9786,
33198260,2.097241,-1.0693419,11.772978,-0.22581935,-0.01642377,-0.015617114,-3.4647865,-52.01513,-16.276085,
33198270,2.162518,-1.0256242,11.950243,-0.20185092,-0.03400062,-0.05822766,-2.8494415,-52.00579,-16.260887,
33198280,2.212224,-1.0058615,12.583248,-0.14512566,-0.037995357,-0.11628452,-3.461811,-53.067837,-17.656693,
33198290,2.2014446,-0.9974773,13.130017,-0.045523513,-0.102177486,-0.17487401,-4.2309914,-53.07951,-17.67569,
33198300,2.1631167,-0.9064492,13.059949,0.11293444,-0.18659961,-0.2201477,-4.231743,-52.78006,-17.369652,
33198310,2.1014333,-0.71001995,11.965815,0.2298471,-0.21935646,-0.25556773,-3.461462,-53.07247,-17.966164,
33198320,1.9355463,-0.44831395,10.678843,0.21866184,-0.14691855,-0.2680846,-3.1537895,-53.067802,-17.958565,
33198330,1.7702583,-0.3429129,9.857195,0.10680917,-0.0033742925,-0.25876352,-3.3080006,-52.92041,-17.809341,29.0
33198340,1.6846199,-0.33931968,9.496675,-0.075084575,0.1020868,-0.23878983,-2.5374107,-53.940605,-17.778358,
33198350,1.6768346,-0.4219637,9.406245,-0.29905623,0.1356426,-0.21801718,-2.3846092,-53.05613,-17.939568,
33198360,1.7804391,-0.7309804,9.617048,-0.50864685,0.14815944,-0.20709823,-0.0796051,-51.54007,-17.435493,
33198370,1.821761,-1.0525734,10.199747,-0.66390896,0.16147524,-0.20443507,-2.5372925,-53.65273,-18.24598,
33198380,1.6846199,-1.2256466,10.804606,-0.7291564,0.20461841,-0.19218454,-3.9262295,-51.444077,-17.067993,
33198390,1.628925,-1.3825506,11.354368,-0.7118459,0.27892053,-0.17700453,-1.1564579,-51.55641,-17.46209,
33198400,1.5223262,-1.5154996,12.027498,-0.62209743,0.34443426,-0.1812656,-2.8452473,-53.074715,-18.724632,
33198410,1.4462698,-1.5670024,12.642536,-0.45964473,0.2962311,-0.19724454,-1.3101101,-50.69282,-18.714035,
33198420,1.4103374,-1.5220872,12.640141,-0.26390254,0.16467103,-0.21801719,-1.7712708,-50.704456,-19.03489,
33198430,1.3169141,-1.2591834,12.1909895,-0.08360669,0.008343605,-0.23372981,-2.5407696,-50.856594,-18.587982,33.0
33198440,1.2181004,-0.9124378,11.270527,0.024783876,-0.14212486,-0.24384981,-1.1540222,-51.58884,-19.628365,
33198450,1.1282699,-0.6112065,10.225499,0.059671253,-0.2537112,-0.23612666,-1.1559563,-50.550026,-19.17614,
33198460,1.2091174,-0.402201,9.017579,0.009337556,-0.28939754,-0.21348982,-0.23279,-50.39324,-19.464523,
33198470,1.4624393,-0.3135683,8.247433,-0.10997196,-0.24359122,-0.20603296,-0.07844353,-51.266098,-18.83152,
33198480,1.431298,-0.2560768,8.000698,-0.23860252,-0.13386907,-0.21322349,0.22909164,-50.535965,-19.606148,
33198490,1.0929368,-0.23272088,8.207309,-0.3307478,-0.01509219,-0.20523402,-0.8475666,-51.56796,-18.537628,
33198500,0.6336037,-0.11713905,8.422302,-0.3757552,0.050155196,-0.18579297,-2.07942,-49.11079,-20.608658,
33198510,0.35512936,0.05533541,8.655862,-0.4055826,0.08211311,-0.1429161,0.23131561,-51.289223,-20.680717,
33198520,0.37908414,-0.013534594,9.036743,-0.41756678,0.1138047,-0.06382029,0.3860855,-50.720413,-22.231102,
33198530,0.8054793,-0.17463052,9.421816,-0.37921733,0.14789313,0.0035576294,-2.3830166,-50.47225,-22.612381,37.0
33198540,1.1504283,-0.25787342,9.505657,-0.30225202,0.16626893,0.030988164,-1.0022182,-49.099083,-20.891533,
33198550,1.2534338,-0.22194123,9.003206,-0.21836253,0.15508366,0.027259743,0.69104004,-50.10063,-20.528282,
33198560,1.2558292,-0.11893566,8.253422,-0.18826881,0.14043628,0.013145001,-1.6155128,-49.859364,-21.826569,
33198570,1.0605978,0.09545967,7.8952975,-0.22422147,0.12498996,-0.013752903,-0.5388241,-48.97246,-22.738647,
33198580,0.7030726,0.2805104,7.653354,-0.27961516,0.122326806,-0.018546589,-1.3091965,-49.113014,-21.518059,
33198590,0.46292585,0.37273633,7.694077,-0.34299836,0.14283313,0.015275528,-0.08129883,-47.175705,-21.355186,
33198600,0.3868694,0.36794534,8.045614,-0.37868467,0.22299421,0.073598705,0.5354557,-48.198227,-21.328003,
33198610,0.5270049,0.18708673,8.728325,-0.35658044,0.34257004,0.12526399,0.5347595,-48.18896,-20.709076,
33198620,0.83422494,-0.083003476,9.562551,-0.28973517,0.38198477,0.14443873,0.23116112,-49.55043,-22.7128,
33198630,1.1067107,-0.28841576,10.046436,-0.17495301,0.29596478,0.10768713,0.38299942,-49.087334,-21.476265,40.0
33198640,1.2935579,-0.31895813,9.988945,-0.030609826,0.11007628,0.025661848,1.1507702,-48.0438,-21.469254,
33198650,1.3169138,-0.16504861,9.38828,0.11293444,-0.11789012,-0.08033187,0.0751915,-48.36654,-22.26609,
33198660,1.1330609,0.016408887,8.624721,0.21706395,-0.26622808,-0.16368875,1.3062572,-48.49759,-22.388718,
33198670,0.71744543,0.39070243,7.897094,0.27085972,-0.23933017,-0.19511402,2.07312,-48.165615,-20.671082,
33198680,0.29883555,0.71049875,7.4251842,0.2735229,-0.059833255,-0.17221084,1.459158,-49.06173,-20.830742,
33198690,0.023954418,0.9290862,7.7270145,0.25727764,0.16706787,-0.10350136,0.6894741,-47.329975,-22.57235,
33198700,-0.07146548,1.0320917,8.181956,0.23783658,0.2738605,-0.011356059,0.69059944,-47.779144,-23.03141,
33198710,0.014971387,1.0392781,8.553455,0.23011342,0.2594795,0.08105555,-0.08150864,-47.896538,-20.263496,
33198720,0.43058687,0.8889619,8.697184,0.23251027,0.17958471,0.14949873,0.53632545,-48.20981,-22.10167,
33198730,0.9773548,0.64941406,8.682812,0.22478712,0.09942364,0.1777282,1.3055611,-48.488323,-21.76979,
33198740,1.3917726,0.42663458,8.87924,0.21892816,0.06453626,0.16521138,-0.2356472,-46.30285,-21.988197,
33198750,1.7037838,0.2152336,9.264313,0.22239026,0.048823617,0.10662188,1.6127758,-47.89865,-22.078499,
33198760,1.8499079,0.12959525,9.542788,0.25035343,-0.0031079762,0.030189216,-0.23516273,-47.032944,-21.515434,
33198770,1.7463036,0.23020534,9.5302105,0.2700608,-0.100046955,-0.051303443,1.7656307,-47.304367,-21.926819,
33198780,1.394767,0.3493804,9.312822,0.27085978,-0.1762133,-0.10882767,3.3042393,-48.586853,-20.480812,
33198790,1.0204735,0.5829395,9.182867,0.24795659,-0.19405645,-0.12054557,1.6129684,-48.9143,-20.983383,
33198800,0.73421377,0.8063179,9.184664,0.20747657,-0.15837014,-0.09045188,2.6869354,-47.412285,-20.200241,
33198810,0.7114568,0.87938,9.164302,0.16220286,-0.09924801,-0.024405537,1.1500206,-47.744347,-21.163216,
33198820,0.83602166,0.8494366,9.070879,0.10174917,-0.0017763991,0.051228166,1.3047562,-47.89869,-21.776634,
33198830,1.0055017,0.7608038,9.454155,0.044757567,0.1460289,0.120736614,2.8426762,-48.303673,-20.805107,
33198840,1.1827672,0.49969667,10.05542,0.005609133,0.26214263,0.16414611,3.7629814,-46.80631,-20.180496,
33198850,1.2923603,0.28769684,10.758493,-0.022087717,0.27093107,0.1724019,2.531973,-46.965443,-19.744972,
33198860,1.3546427,0.15714325,11.1872835,-0.022354035,0.20195526,0.155624,4.0714607,-47.391273,-20.166046,
33198870,1.3318857,0.011019051,11.195069,-0.020223506,0.12072891,0.12819347,2.5338497,-47.71407,-20.510078,
33198880,1.4085411,-0.01712782,11.1214075,-0.0351372,0.077852055,0.1036924,2.5338497,-47.71407,-20.510078,
33198890,1.509151,0.025990803,11.256752,-0.05750773,0.104749955,0.07279976,2.532322,-46.970078,-20.054443,
33198900,1.4893883,0.0020360127,11.904131,-0.050317205,0.1726605,0.029656585,2.839243,-46.665955,-19.740799,
33198910,1.4097388,-0.019523293,12.393407,0.0013480792,0.16706787,-0.025204483,2.379383,-47.129086,-20.67546,
33198920,1.2863716,-0.120133385,12.309566,0.054344937,0.069063626,-0.074206606,3.6084232,-46.65428,-19.721802,
33198930,1.013886,-0.20277739,12.084989,0.08949864,-0.01642377,-0.12001294,2.6848297,-46.37116,-19.5933,44.0
33198940,0.7054681,-0.20936495,11.85622,0.10494496,-0.037462726,-0.17034663,2.3775063,-46.38046,-19.910355,
33198950,0.3551293,-0.25308245,11.617271,0.0807102,-0.06755642,-0.21562034,5.606598,-45.009388,-20.155449,
33198960,-0.12636185,-0.17163618,10.931566,0.029311243,-0.09392169,-0.23000139,4.5296535,-45.458687,-19.557976,
33198970,-0.7294236,-0.02131991,10.385397,-0.08760142,-0.07155115,-0.18739085,3.9132118,-45.16394,-18.957657,
33198980,-1.1917509,0.04755011,10.314731,-0.26922885,-0.010032188,-0.0875224,4.529745,-45.02573,-20.182045,
33198990,-1.2486436,-0.08539896,10.550685,-0.44233418,0.067998365,0.05761975,5.1449986,-45.44935,-19.542778,
33199000,-0.796497,-0.48664162,10.796222,-0.58135104,0.13910471,0.19850086,5.4529095,-44.868942,-20.47042,
33199010,-0.03772915,-1.0861101,11.034572,-0.69799745,0.20674893,0.2898472,3.1440678,-44.45247,-19.91362,
33199020,0.47909534,-1.5999403,11.547803,-0.7850827,0.28451318,0.3079567,4.9886627,-43.247498,-20.036453,
33199030,0.59288055,-1.8885953,12.300582,-0.7874796,0.36094582,0.2725367,4.5268345,-43.394962,-19.581947,49.0
33199040,0.5060445,-2.0395107,13.091689,-0.7027911,0.36307636,0.21980612,5.7551327,-41.752472,-19.41565,
33199050,0.34135532,-2.0622678,13.529463,-0.5560511,0.24350053,0.15349346,4.3731823,-42.531372,-20.833878,
33199060,0.11558146,-1.8969797,13.318661,-0.3539173,0.07305837,0.085849226,5.603182,-41.635185,-21.277954,
33199070,-5.992353E-4,-1.6364713,12.806627,-0.1493867,-0.072083786,0.03977659,5.9115143,-42.36293,-20.952332,
33199080,-0.10540142,-1.4011155,12.204164,-0.0077066617,-0.19911647,0.004356577,4.989687,-42.248062,-22.214706,54.0
33199090,-0.30063292,-1.2034885,11.320831,0.0873681,-0.3019144,-0.018280271,6.0642967,-43.214943,-18.92672,
33199100,-0.428791,-0.9872966,10.416538,0.13929972,-0.3525144,-0.014818166,6.986418,-40.29445,-21.723373,
33199110,-0.57012427,-0.76331925,9.755386,0.12119022,-0.374086,0.0046228925,5.7566986,-41.773315,-20.808243,
33199120,-0.7378077,-0.6698957,9.247545,0.061801784,-0.36263442,0.050162904,6.8332844,-42.18762,-20.002846,
33199130,-0.7947004,-0.6698957,8.658855,-0.011967715,-0.28966385,0.12659556,5.9093533,-41.03162,-20.658272,
33199140,-0.474904,-0.79266393,8.285162,-0.09958564,-0.14185855,0.2160777,6.9863033,-40.582314,-21.255745,
33199150,0.0796493,-1.2388219,8.649873,-0.16696355,0.06666678,0.2714714,5.755644,-39.877846,-22.223099,
33199160,0.4144174,-1.4334545,9.58351,-0.17308882,0.2128742,0.2725367,6.8302746,-39.108242,-21.121933,
33199170,0.54556984,-1.4675901,10.127883,-0.11210248,0.22113,0.23658404,6.986822,-40.589264,-21.719948,
33199180,0.6282139,-1.4717821,10.226098,-0.0069077136,0.13937102,0.17160295,7.9063206,-38.502266,-21.102188,61.0
33199190,0.6809144,-1.3903358,9.764969,0.11559759,0.017132029,0.0903766,7.4456196,-39.098904,-21.106735,
33199200,0.52880156,-1.1489913,9.033749,0.19842184,-0.09498695,0.014742896,6.980917,-36.892456,-20.989082,
33199210,0.30781862,-0.93160164,8.199524,0.23277658,-0.1274775,-0.03505817,6.984606,-38.967766,-21.738777,
33199220,0.11019165,-0.68786174,7.5102243,0.22265658,-0.08486695,-0.065418184,8.213331,-37.765182,-21.412613,
33199230,0.014971375,-0.47406533,6.9383035,0.17551868,-0.01056482,-0.071543455,8.061808,-38.956055,-22.021645,
33199240,-0.007785663,-0.300992,6.8131404,0.094026,0.06453626,-0.064619236,7.7488194,-36.574387,-20.199844,
33199250,-0.15570647,-0.26925197,7.0682583,0.021588085,0.114603646,-0.06089081,8.062902,-39.26014,-22.637161,
33199260,-0.35093796,-0.24709377,7.347931,-0.029011931,0.14283313,-0.043846592,8.215017,-37.49816,-23.272835,
33199270,-0.5002561,-0.22473598,7.573505,-0.045523517,0.18038367,-0.018280271,8.215071,-37.788345,-22.959946,
33199280,-0.6713332,-0.2680542,7.717433,-0.04099615,0.2277879,0.01847132,6.9823246,-37.924316,-20.977097,
33199290,-0.750384,-0.39800888,8.089332,-0.029011931,0.22166263,0.06267975,10.678961,-39.086937,-23.502678,
33199300,-0.70007896,-0.5573082,8.721738,0.021055453,0.15508366,0.092507124,7.443266,-36.75194,-21.907799,
33199310,-0.6359999,-0.6016246,9.061296,0.11559759,0.0501552,0.10955134,9.289698,-37.018745,-21.85878,
33199320,-0.42160457,-0.549523,9.005003,0.20188394,-0.09924801,0.13112295,10.214155,-38.181694,-21.66755,
33199330,-0.004192449,-0.4968224,8.467817,0.23943448,-0.23959647,0.14204189,7.9024944,-35.701492,-21.134712,
33199340,0.34315193,-0.44711623,7.836608,0.24742395,-0.25877124,0.13671556,10.675177,-37.444595,-22.128906,
33199350,0.65516305,-0.3926191,7.494055,0.22052605,-0.16076697,0.12260082,8.828569,-37.17547,-22.023193,
33199360,0.67612344,-0.27404287,7.6383824,0.1659313,-0.01722272,0.10076292,10.826815,-36.83409,-20.894096,
33199370,0.393457,-0.13450627,8.284562,0.1323755,0.09249943,0.0919745,9.750364,-37.14525,-20.917267,
33199380,0.0736606,-0.09917295,8.972065,0.14888708,0.13084891,0.101295546,10.365629,-36.700638,-21.371399,
33199390,0.011378158,-0.039285988,9.558358,0.18004604,0.07492258,0.1204703,10.675634,-38.029594,-21.8126,65.0
33199400,0.06886964,-0.062641904,9.854799,0.22904816,-0.015358507,0.12579662,10.672815,-35.96587,-21.83657,
33199410,0.22517464,-0.15247235,9.593692,0.26606607,-0.08007326,0.11434503,11.290239,-36.852566,-22.584763,
33199420,0.35273382,-0.14468706,9.425409,0.2799145,-0.08300273,0.097567126,10.825754,-35.806858,-21.215538,
33199430,0.30542314,-0.17942148,9.588302,0.26926184,-0.064360626,0.09303976,11.288076,-35.52125,-22.290703,
33199440,0.31979603,-0.22313896,9.972776,0.23757027,-0.08832906,0.087713435,12.674208,-37.547752,-21.149406,
33199450,0.26350224,-0.38483375,9.786528,0.18590498,-0.12161854,0.082120806,12.055372,-35.62919,-20.413193,
33199460,0.39944565,-0.5932404,10.206933,0.11639655,-0.14984801,0.070402905,11.904421,-37.117195,-21.173538,
33199470,0.5473665,-0.7291838,10.125488,0.020789137,-0.14425538,0.046700805,12.98139,-36.81299,-21.61457,
33199480,0.5126321,-0.84596336,10.902222,-0.055110887,-0.13679853,0.035781853,11.597368,-35.827614,-23.362816,
33199490,0.4802931,-1.0244265,11.465159,-0.07588352,-0.12454802,0.04297238,12.519701,-37.685913,-20.377823,
33199500,0.4874795,-1.0693417,11.537622,-0.046855096,-0.12907538,0.07679449,11.287867,-36.24208,-21.199005,
33199510,0.7282251,-1.1753416,11.136379,-0.046322465,-0.1325375,0.12899241,12.059965,-36.992935,-22.87352,
33199520,1.1504282,-1.4035109,10.86569,-0.08999826,-0.09658485,0.17453241,13.902967,-35.622025,-21.7602,
33199530,1.7331283,-1.5987425,11.48612,-0.11716249,0.0030172896,0.18252191,13.749105,-35.479263,-21.92044,
33199540,2.2397718,-1.6029346,12.385622,-0.060969837,0.0602752,0.124731354,12.825926,-34.62272,-22.881912,69.0
33199550,2.5032747,-1.5340647,12.93239,0.037833355,-0.0068363994,0.022732373,13.442186,-35.783386,-22.234085,
33199560,2.5996928,-1.4753754,12.7916565,0.14808813,-0.15996802,-0.09710978,11.903284,-34.78645,-23.057732,
33199570,2.4757266,-1.2076806,12.117329,0.23011342,-0.30697438,-0.2230772,12.828783,-35.963295,-23.794907,
33199580,2.281094,-0.9010593,11.023193,0.2146671,-0.43267548,-0.342653,12.828783,-35.963295,-23.794907,
33199590,2.0547214,-0.6124042,9.552969,0.058872305,-0.5000534,-0.4350646,13.442186,-35.783386,-22.234085,
33199600,1.7319305,-0.50221217,8.370201,-0.18667093,-0.40497863,-0.48087096,11.597368,-35.827614,-23.362816,
33199610,1.3690155,-0.72858495,7.9635687,-0.47668892,-0.13147223,-0.47607726,14.210798,-34.60634,-23.157188,
33199620,0.806677,-1.0699406,8.925353,-0.75339115,0.16839945,-0.43852675,13.593889,-34.59483,-21.779785,
33199630,0.16289216,-1.352607,10.430912,-0.8945385,0.3319174,-0.38766038,15.132166,-34.136204,-22.211128,
33199640,-0.17187595,-1.7119288,11.686741,-0.9555249,0.4158069,-0.31841826,14.209738,-33.579105,-23.47863,76.0
33199650,-0.1802601,-2.1676688,12.703622,-0.95978594,0.4674722,-0.2150877,14.054178,-31.821798,-24.121918,
33199660,0.10540068,-2.6150243,13.586355,-0.87376595,0.48531532,-0.12613821,15.133539,-33.141403,-24.698845,
33199670,0.5425755,-2.942007,14.157678,-0.68627954,0.46640688,-0.08006556,13.748262,-32.86296,-24.426994,
33199680,0.99831533,-3.0635777,14.265474,-0.41463733,0.39929533,-0.07766872,15.438429,-33.09967,-22.215508,
33199690,1.3229027,-2.823431,13.738468,-0.11130354,0.2685342,-0.116018206,16.052893,-31.197178,-23.769905,83.0
33199700,1.5426878,-2.3994312,12.551509,0.16673025,0.09729311,-0.190054,15.130621,-32.378876,-23.005333,
33199710,1.6397047,-1.8568553,10.726154,0.3622061,-0.048914306,-0.28885722,16.208166,-32.371803,-23.597672,
33199720,1.5840099,-1.3064941,8.985839,0.3909682,-0.18580067,-0.38899195,16.362032,-32.514557,-23.437424,
33199730,1.3582358,-0.7962572,7.6467667,0.26500082,-0.30697438,-0.45770147,16.211313,-33.426826,-25.133018,
33199740,0.7581686,-0.30757958,7.155094,0.045290202,-0.3242849,-0.48406675,16.824755,-32.52377,-24.509163,
33199750,0.105999574,-0.10037068,7.561727,-0.19013304,-0.25451016,-0.43240145,18.208685,-31.19229,-25.57351,
33199760,-0.32398883,-0.01293572,8.388767,-0.3653689,-0.1024438,-0.30243933,18.51439,-30.871956,-24.176735,
33199770,-0.52940106,-0.1476814,9.521229,-0.42555624,0.11300575,-0.13439399,18.363363,-31.056444,-26.499817,
33199780,-0.13474602,-0.4956247,10.564459,-0.38534257,0.25335422,0.025661848,17.131376,-30.623629,-25.91642,
33199790,0.43537787,-0.7723023,10.7980175,-0.2700278,0.25015843,0.12579662,19.130869,-30.443552,-25.714005,89.0
33199800,0.87135494,-0.88788426,10.538708,-0.12461933,0.16440472,0.16414611,18.362093,-30.750046,-25.729576,
33199810,1.2426542,-0.9333983,10.032663,-0.012234032,0.01766466,0.15296084,17.286806,-30.787235,-27.14878,
33199820,1.4289026,-0.8501555,9.377501,0.05940494,-0.13839644,0.112214506,18.513079,-28.53889,-25.906189,
33199830,1.3270948,-0.6752856,8.722936,0.1190597,-0.1831375,0.07892501,18.666128,-28.960253,-24.659393,
33199840,1.1725863,-0.4994175,8.344849,0.16539866,-0.09978065,0.06987028,19.131426,-29.727354,-27.115166,
33199850,1.0492191,-0.33812198,8.059388,0.18830183,0.042165723,0.0735987,18.515608,-30.88817,-25.259865,
33199860,1.0402362,-0.2105627,7.8150487,0.16486603,0.14629523,0.07599554,18.054575,-29.743696,-27.141762,
33199870,1.0264621,-0.13031417,7.870145,0.113999695,0.13324575,0.056288175,20.974459,-28.501537,-25.845398,
33199880,0.847999,-0.06324078,7.856371,0.06979126,0.04775836,0.03258606,19.285345,-30.1603,-26.642029,
33199890,0.7156489,-0.0027549416,7.9072747,0.02957756,-0.05077852,0.023797635,19.746214,-30.434214,-25.698807,
33199900,0.90968263,-0.081805736,7.85158,5.4913084E-4,-0.10111222,0.022998689,20.362608,-29.570536,-27.705414,
33199910,1.2019309,-0.15846105,7.59167,-0.03700141,-0.06862168,0.0040902607,20.362299,-28.842754,-28.332909,
33199920,1.2270834,-0.19858533,7.8503823,-0.06576352,0.001952026,-0.027601328,18.822721,-28.849886,-27.287766,
33199930,1.1414452,-0.21774915,8.443862,-0.051382467,0.05681309,-0.04917291,20.20875,-29.427776,-27.865662,
33199940,0.95998764,-0.08539896,8.99063,-0.0023803432,0.019262558,-0.061956074,21.899939,-28.66505,-27.832428,97.0
33199950,0.99292547,0.0200021,9.145139,0.08337337,-0.056637466,-0.057695024,18.824755,-28.587498,-29.457466,
33199960,1.1809705,-0.11234809,8.881037,0.19416079,-0.061431155,-0.05449923,19.592772,-28.849794,-28.042435,
33199970,1.2486429,-0.18960226,8.73671,0.27192503,0.0070120282,-0.055298176,21.13246,-29.423035,-28.4618,
33199980,1.2660102,-0.18780565,8.777432,0.31906295,0.058410987,-0.05130344,21.132322,-28.69757,-29.244026,
33199990,1.3378744,-0.15486783,8.885229,0.3502219,0.07572153,-0.04171607,20.824839,-29.717888,-28.156502,
33200000,1.583411,-0.18241581,8.8433075,0.368864,0.07039521,-0.037987646,19.595865,-29.614635,-29.890678,
33200010,2.0846648,-0.2716474,8.819952,0.3440966,0.025387822,-0.079000294,22.208826,-28.676596,-28.907959,
33200020,2.2751052,-0.3249468,8.940325,0.29562712,-0.040125884,-0.16954769,21.594366,-29.710848,-28.446976,
33200030,2.1780884,-0.2656587,8.996618,0.26793027,-0.09685116,-0.26435614,20.362005,-29.128307,-27.710556,
33200040,2.212823,-0.16564748,8.828337,0.21706393,-0.17221856,-0.3660888,22.51869,-30.148333,-29.037971,
33200050,1.7984052,0.054137673,8.831331,0.12358707,-0.2617007,-0.4683541,21.593077,-28.391115,-28.926582,
33200060,1.1234791,0.32782108,9.014585,0.032773353,-0.30617544,-0.5165572,21.90378,-29.729342,-29.98671,
33200070,0.45693716,0.47693962,9.039737,-0.05111615,-0.30617547,-0.49072462,22.054617,-28.529205,-28.758736,
33200080,0.09761539,0.4931091,9.33498,-0.13314144,-0.22228596,-0.39405197,22.671904,-28.690437,-30.289162,
33200090,-0.099412724,0.47035205,10.01829,-0.17521934,-0.028407983,-0.26755193,22.825014,-28.533747,-29.822876,104.0
33200100,-0.088633075,0.31524482,11.075295,-0.15977302,0.15561628,-0.13572557,22.517221,-28.826284,-29.362854,
33200110,0.1814571,0.05054445,11.978391,-0.08174248,0.21021104,-0.028666591,22.667055,-26.02086,-29.236847,
33200120,0.44795412,-0.2165514,12.377836,0.03623546,0.14869207,0.026993427,22.973913,-26.294796,-28.142685,
33200130,0.79050756,-0.43992978,12.084391,0.12971234,-0.0012437664,0.03977659,23.130613,-26.764801,-30.145287,
33200140,0.9066882,-0.54712737,11.623859,0.15341446,-0.18207225,0.009416578,24.20651,-27.169838,-28.720955,
33200150,0.99651873,-0.5004156,11.169318,0.112135485,-0.2798102,-0.020943431,25.59173,-27.158092,-29.305695,
33200160,1.1222813,-0.4872405,11.174706,0.0604702,-0.2385312,-0.040384486,24.975378,-26.430386,-29.329453,
33200170,0.99771655,-0.26745534,11.638831,0.04102914,-0.102177486,-0.04171607,25.28602,-27.478426,-30.702469,
33200180,0.7186431,-0.04347808,12.089181,0.082308106,0.063471,-0.016416062,24.209135,-28.217916,-29.792107,
33200190,0.5108354,-0.002754949,12.255068,0.15900709,0.1777205,0.03072185,25.898417,-26.56147,-29.150208,113.0
33200200,0.5545529,-0.038088255,11.847239,0.20694393,0.19316682,0.06880502,24.823442,-27.32644,-29.94191,
33200210,0.59647375,-0.27044967,11.187883,0.1542134,0.1457626,0.080256596,27.59435,-27.01971,-31.888474,
33200220,0.6066545,-0.51898056,10.809996,0.0058754478,0.0821131,0.06800607,26.053446,-26.430256,-30.385986,
33200230,0.5515585,-0.70762444,10.723759,-0.17228986,0.034442563,0.032852378,25.900991,-27.319363,-30.534248,
33200240,0.48867726,-0.9543587,10.923182,-0.33474255,-0.0031079755,0.0016934178,26.05184,-24.382744,-31.493088,
33200250,0.32518584,-1.3370365,11.342989,-0.43887207,-0.017222717,-0.013220271,26.361586,-26.142353,-31.155472,
33200260,0.0754572,-1.6568328,11.563973,-0.4828142,0.0016857106,-0.007627638,27.59178,-26.261818,-30.50444,
33200270,-0.37070066,-1.9047649,11.4513855,-0.47189522,0.051486775,0.035515536,28.364141,-26.582024,-32.95775,
33200280,-0.6988812,-1.9101548,11.34299,-0.44446468,0.12339206,0.1375145,28.364141,-26.582024,-32.95775,
33200290,-0.5815028,-1.8329005,11.628052,-0.3962615,0.21607,0.26561245,27.898722,-24.221218,-32.37761,124.0
33200300,0.0023951158,-1.9466857,12.198175,-0.2937299,0.27039844,0.358823,28.207308,-25.386557,-31.737381,
33200310,0.4599315,-2.0574768,12.473656,-0.12621722,0.21899948,0.37773144,29.900023,-25.367825,-32.15979,
33200320,0.74499345,-1.9748325,12.198774,0.084971264,0.09942364,0.33911562,29.899504,-25.360876,-31.695587,
33200330,0.7545754,-1.7424711,11.194469,0.28044713,-0.0073690303,0.27040613,30.054651,-24.941792,-33.398987,
33200340,0.6665416,-1.4130929,9.921273,0.35927662,-0.119221695,0.18944612,27.899817,-24.525301,-32.99312,
33200350,0.48448515,-1.0741327,8.959488,0.29935554,-0.25770596,0.11088292,28.977732,-25.53619,-32.645065,
33200360,0.32219148,-0.9190254,8.302529,0.18617131,-0.3541123,0.05708712,28.827852,-27.183186,-34.17737,
33200370,0.18265487,-0.79685605,8.009681,0.05487757,-0.39805442,0.029656585,29.133104,-25.40961,-34.190308,
33200380,-0.0047913305,-0.7303815,7.9240427,-0.06975826,-0.3796786,0.03311869,29.745848,-24.497286,-32.947525,
33200390,-0.1551076,-0.80284476,7.9402127,-0.15284881,-0.2635649,0.07812607,30.211489,-26.13726,-34.619354,138.0
33200400,-0.06887037,-0.9878955,8.051003,-0.1997204,-0.0856659,0.14071032,29.59574,-25.851782,-34.63797,
33200410,0.09062857,-1.1996957,8.245037,-0.23247726,0.09143416,0.1889135,29.748892,-24.971941,-35.108658,
33200420,0.32039487,-1.3981211,8.689399,-0.24099937,0.22512472,0.20728928,30.826494,-25.25505,-35.388092,
33200430,0.48987496,-1.6346745,9.288268,-0.20930777,0.25042474,0.18704927,31.907785,-27.613466,-36.417236,
33200440,0.6144399,-1.7688215,9.57872,-0.15284881,0.16733418,0.13644925,31.136236,-27.014656,-35.05049,
33200450,0.72702736,-1.8257141,9.578121,-0.07668248,0.06426994,0.07386502,30.211779,-25.851707,-35.241714,
33200460,0.7156489,-1.7616351,9.339771,0.0010817647,-0.014825874,0.0051555242,31.133764,-24.955563,-35.383926,
33200470,0.4862818,-1.486155,9.016981,0.06979126,-0.07368168,-0.048373964,30.214052,-27.763393,-34.90999,
33200480,0.3491406,-1.2603811,8.320495,0.10787442,-0.11469433,-0.07180977,31.138662,-27.915325,-36.123352,
33200490,0.46472245,-1.0885056,7.4910603,0.08763442,-0.115226954,-0.099772945,32.21154,-25.240988,-35.818115,153.0
33200500,0.36830443,-0.8639294,7.1994104,0.033305984,-0.04145746,-0.129334,31.287333,-25.383873,-34.60132,
33200510,0.103005216,-0.64594096,7.314993,-0.014630875,0.017930979,-0.12986663,30.982168,-26.72449,-35.21245,
33200520,-0.20900586,-0.4123818,7.6150265,-0.0468551,0.023523612,-0.09125083,31.598494,-27.307104,-35.345123,
33200530,-0.4257967,-0.23511636,7.7940884,-0.038599305,0.046959408,-0.024405539,30.829332,-25.582294,-37.55095,
33200540,-0.30242956,-0.35369253,7.961173,-0.0063750823,0.124989964,0.046434484,32.522324,-27.014492,-36.40889,
33200550,0.07845156,-0.5087998,8.2222805,0.016528083,0.18331313,0.07279975,32.218086,-28.656876,-37.48079,
33200560,0.09102781,-0.438732,8.472009,0.05354599,0.19636261,0.08185449,32.058372,-25.107494,-36.59729,
33200570,0.07964929,-0.44831395,8.696585,0.10441232,0.14869207,0.090642914,33.2909,-26.560593,-36.395035,
33200580,0.09402216,-0.40878856,8.837319,0.15181655,0.06027521,0.0853166,32.983833,-27.007488,-36.39749,
33200590,0.18325374,-0.30698073,8.798392,0.17525235,-0.061697464,0.06827238,32.985855,-27.613338,-37.473785,
33200600,0.39166036,-0.2997943,8.537885,0.16513234,-0.17514804,0.040575538,33.908638,-28.17507,-36.515747,
33200610,0.526406,-0.23631412,8.168982,0.111869164,-0.22308488,0.025129214,34.218452,-28.488382,-38.052048,
33200620,0.5695247,-0.20038192,8.194134,0.05940494,-0.15810382,0.03072185,33.138855,-27.744514,-36.53987,
33200630,0.5503608,-0.26326323,8.6582575,0.022387033,-0.03000588,0.044570275,32.83351,-29.082813,-36.99626,
33200640,0.60605574,-0.36686766,9.360132,0.010935451,0.057345726,0.064810276,33.448265,-27.763008,-38.079605,164.0
33200650,0.613841,-0.44831395,10.111713,0.054078624,0.09356469,0.066674486,35.142937,-28.928183,-38.79779,
33200660,0.60066587,-0.49981675,10.623747,0.14675656,0.08610784,0.05202712,32.833702,-30.098465,-35.90114,
33200670,0.62102747,-0.5411387,10.911204,0.2498208,0.03257835,0.022466058,32.373825,-29.54826,-38.085663,
33200680,0.59347945,-0.42316142,10.961511,0.34649348,-0.06622484,-0.017481325,35.297806,-29.807985,-38.628967,
33200690,0.6180331,-0.3764496,10.416538,0.39682716,-0.19379014,-0.051836073,35.145477,-30.40922,-39.244858,
33200700,0.7078635,-0.383636,9.725443,0.37126082,-0.25877124,-0.076337144,36.98738,-28.734228,-37.51602,
33200710,0.7096601,-0.35728577,9.2457485,0.29775766,-0.19485542,-0.08858767,33.45244,-30.568413,-38.356537,
33200720,0.48328745,-0.40339872,9.010992,0.17844814,-0.065159574,-0.06967924,33.453186,-30.867865,-38.662582,
33200730,0.29883555,-0.5201783,9.415827,0.030376509,0.06640047,-0.018013956,35.606598,-31.120731,-37.987045,
33200740,0.26949096,-0.8297938,10.230888,-0.08919932,0.16227418,0.03258606,35.146378,-29.697655,-40.95549,
33200750,0.27248532,-0.9974773,11.275317,-0.14326143,0.20302053,0.05868502,34.682747,-30.400011,-38.173126,
33200760,0.41142303,-1.2531947,12.174221,-0.13074459,0.16040997,0.058685016,35.454903,-32.309288,-38.441345,
33200770,0.51382977,-1.3957257,12.727576,-0.08653616,0.086374156,0.040575538,34.53157,-31.595516,-39.09163,
33200780,0.59168285,-1.6328781,12.73057,-0.02661509,-0.010831137,0.010748157,34.84053,-32.910583,-38.604416,
33200790,0.7419991,-1.8472733,12.364662,0.035969142,-0.13972802,-0.028133959,33.914078,-32.155113,-36.469513,
33200800,0.7060669,-1.6203017,12.357475,0.07804705,-0.19671962,-0.061423443,35.608574,-30.568157,-40.46962,
33200810,0.6611517,-1.3831494,12.346097,0.11852706,-0.19432276,-0.07127714,36.378944,-33.17742,-38.253525,
33200820,0.7617618,-1.2543924,12.25387,0.15021867,-0.17408276,-0.05316765,35.148582,-33.055634,-38.749847,
33200830,1.1025186,-1.155579,12.028096,0.18164393,-0.1509133,-0.023872906,35.14894,-34.0736,-37.809464,
33200840,1.4696257,-1.0130479,11.613679,0.19788921,-0.16076697,-0.020144485,34.07482,-33.83682,-40.62468,180.0
33200850,1.6624618,-0.8118278,11.039363,0.18137762,-0.20897016,-0.042515013,35.1491,-33.062584,-39.21405,
33200860,1.7283374,-0.57587314,10.1835785,0.1225218,-0.24998279,-0.07127714,34.38215,-33.827515,-40.307617,
33200870,1.8373318,-0.54233646,9.344562,0.022387033,-0.2252154,-0.07793504,35.460045,-33.825073,-41.20941,
33200880,1.9996254,-0.6447432,8.8828335,-0.13553828,-0.1141617,-0.064619236,33.306046,-34.14331,-40.640244,
33200890,2.1104162,-1.0387994,8.89541,-0.32568783,0.07252573,-0.035058174,35.151672,-33.820477,-40.598083,
33200900,2.3451731,-1.4981323,9.625432,-0.50891316,0.27599108,0.0016934185,33.460907,-35.891357,-39.378036,
33200910,2.6158621,-1.8897932,10.541702,-0.63541317,0.40009427,0.01128079,32.534897,-33.839317,-39.27008,
33200920,2.8781672,-2.305409,11.344788,-0.67749107,0.4341827,-0.017481325,32.53196,-32.06346,-38.82643,
33200930,3.098551,-2.5012393,11.759204,-0.62529325,0.419269,-0.07367398,34.844833,-34.559875,-40.442383,
33200940,3.2123365,-2.6090357,12.319746,-0.49852684,0.4107469,-0.15170452,33.612305,-33.106777,-40.644638,193.0
33200950,3.1153195,-2.3988323,12.33891,-0.31476885,0.3689353,-0.25956246,34.229088,-34.274395,-40.461014,
33200960,2.7877376,-2.0407085,12.294594,-0.10597721,0.29942685,-0.3724804,35.763924,-33.046295,-38.73465,
33200970,2.3619413,-1.6550362,11.523848,0.08577021,0.13138154,-0.46569094,35.763924,-33.046295,-38.73465,
33200980,2.1770904,-1.392931,10.379409,0.1997534,-0.06196378,-0.5138941,36.691216,-34.53649,-40.70627,
33200990,2.1056252,-1.1957033,9.258924,0.21493343,-0.14452171,-0.5258783,35.614426,-33.974777,-41.513382,
33201000,2.0092072,-1.0435903,8.567228,0.15527867,-0.07661116,-0.51149726,34.538986,-35.022984,-41.527985,
33201010,1.959501,-0.9094435,8.333071,0.07005757,0.049356252,-0.48406672,34.845245,-33.98645,-41.53238,
33201020,1.9942355,-0.8986639,8.518721,0.001880711,0.16147524,-0.4603646,33.307823,-33.44332,-43.124542,
33201030,2.1319754,-0.9196243,8.635501,-0.030876141,0.19582999,-0.4614299,35.307716,-33.558067,-42.9187,
33201040,2.2667212,-0.9585508,8.650472,-0.041262463,0.16680156,-0.49844778,34.382507,-32.09567,-42.803894,206.0
33201050,2.1966534,-0.85135317,8.596574,-0.03220772,0.110608906,-0.566092,34.074913,-33.403854,-41.24875,
33201060,1.9241676,-0.61839294,8.40254,-0.034604564,0.015267819,-0.64066046,34.226753,-32.940765,-40.012222,
33201070,1.5474787,-0.41896936,7.8126535,-0.07268773,-0.089128,-0.68699944,35.305153,-31.931934,-42.628082,
33201080,1.3145185,-0.35548916,7.539569,-0.1342067,-0.14026065,-0.703511,34.846207,-33.56507,-42.9301,
33201090,1.100722,-0.3524948,7.6288004,-0.21862882,-0.12401538,-0.708571,35.150764,-31.782228,-42.324127,
33201100,0.9486091,-0.35908237,7.9995008,-0.27455515,-0.08353537,-0.7019131,35.766724,-31.346876,-43.3972,
33201110,1.0294566,-0.4590936,8.265998,-0.2915994,-0.039326936,-0.6901952,34.68978,-31.796183,-42.799713,
33201120,1.1390496,-0.67289,8.397749,-0.27801728,0.0064793956,-0.69925,34.07383,-31.363293,-42.820053,
33201130,0.9737616,-0.57407653,8.560042,-0.25085303,0.08211311,-0.7093699,34.842117,-31.194944,-42.183823,
33201140,0.86297077,-0.6189918,8.540879,-0.22635199,0.13457733,-0.7053752,34.224472,-29.147505,-42.68721,221.0
33201150,0.60785234,-0.5734776,8.705567,-0.22368884,0.13457733,-0.6955215,35.458252,-30.761911,-43.411636,
33201160,0.5431744,-0.49802014,9.190054,-0.22502041,0.080515206,-0.67128676,35.762,-28.389431,-42.8125,
33201170,0.5557507,-0.457297,9.48889,-0.17681724,0.0046151853,-0.6457205,35.304382,-30.619152,-43.571884,
33201180,0.66234946,-0.43214446,9.580516,-0.0905309,-0.058501676,-0.62201834,36.376556,-28.80379,-41.554306,
33201190,0.7964963,-0.39441568,9.615252,0.007473345,-0.09285642,-0.6023109,35.301155,-28.260607,-43.599274,
33201200,0.903095,-0.34171516,9.456551,0.10680917,-0.1261459,-0.58233726,34.533302,-28.868866,-44.075623,
33201210,1.2186993,-0.34351173,8.940325,0.19948709,-0.12295012,-0.54878145,35.764214,-30.010933,-42.79367,
33201220,1.7139645,-0.47586197,8.456438,0.256745,-0.032136407,-0.53306884,37.305305,-29.734459,-45.544296,
33201230,1.9780661,-0.4351388,8.168382,0.25061974,0.09569521,-0.5658257,36.99691,-29.584772,-45.0894,
33201240,1.9014106,-0.39261904,8.673228,0.21679763,0.17239419,-0.62255096,35.151733,-30.492607,-44.81526,237.0
33201250,1.6319193,-0.28182817,9.199037,0.22478712,0.13697419,-0.6750152,35.765068,-29.009178,-44.817184,
33201260,1.522925,-0.078212515,9.266709,0.24076605,0.008077291,-0.7133647,36.842888,-30.453028,-43.845062,
33201270,1.4474676,0.08947098,9.211014,0.24263027,-0.14345643,-0.7570405,35.61354,-30.20005,-45.426224,
33201280,1.261219,0.33979848,8.941523,0.24502712,-0.23453647,-0.78899837,36.37964,-28.555298,-44.65239,
33201290,1.1061119,0.62246495,8.740303,0.23863553,-0.25610805,-0.77967733,35.151848,-31.072979,-44.189484,
33201300,1.09114,0.70750445,8.54567,0.221325,-0.226547,-0.733871,36.384422,-30.934689,-46.017593,
33201310,1.2402586,0.6601937,8.391162,0.19682392,-0.12880906,-0.6768794,37.76584,-29.135502,-45.38501,
33201320,1.5265182,0.48412606,8.400144,0.13956602,-0.007369031,-0.63959515,37.30687,-29.755304,-46.93689,
33201330,1.628925,0.3391996,8.914574,0.055676516,0.09249943,-0.6385299,36.841568,-28.988205,-44.48111,
33201340,1.4989703,0.3397985,9.614054,0.015196504,0.15774682,-0.63746464,36.999283,-30.195253,-46.47516,253.0
33201350,1.2959535,0.42962894,10.324312,0.022387031,0.15748051,-0.632671,36.69136,-28.894089,-47.890762,
33201360,1.2157049,0.43681538,10.830358,0.037567038,0.06426994,-0.6254804,36.846634,-30.06871,-47.718536,
33201370,1.3384733,0.33500755,10.7183695,0.060203888,-0.05503957,-0.6212194,38.22888,-29.004253,-46.922653,
33201380,1.5013658,0.17810369,10.227896,0.051149145,-0.110699594,-0.62255096,37.919106,-27.967794,-46.323303,
33201390,1.5876031,-0.039884873,10.206335,-0.020489825,-0.103775375,-0.62068677,37.614143,-29.455818,-46.932724,
33201400,1.642699,-0.19738758,10.64411,-0.0804109,-0.037729036,-0.61456144,37.922424,-29.025137,-48.013397,
33201410,1.669648,-0.4453196,11.234594,-0.08440564,0.068531,-0.60870254,40.076736,-29.434679,-47.955063,
33201420,1.8019984,-0.71061885,11.7813635,-0.04925194,0.15295313,-0.59352255,37.770844,-29.925823,-48.935318,
33201430,1.817569,-0.88009894,12.146673,0.0021470264,0.21740156,-0.59352255,37.61738,-30.077885,-49.092133,
33201440,1.7289363,-0.95555645,12.395803,0.077514425,0.2560174,-0.5959194,41.307793,-29.56573,-48.077682,
33201450,1.6798289,-0.8627317,12.598221,0.17152393,0.24669632,-0.5996478,39.31054,-30.499062,-49.354675,
33201460,1.684021,-0.7483476,12.703621,0.26366922,0.15961102,-0.61456144,40.232277,-30.178656,-48.56163,
33201470,1.8810493,-0.7842798,12.414967,0.34649345,0.020061504,-0.6459868,39.309578,-30.052204,-49.05034,
33201480,1.9026085,-0.6459409,11.821486,0.41307244,-0.094188005,-0.6944562,40.84854,-30.471083,-49.007202,
33201490,1.8900323,-0.54233646,10.8609,0.43064928,-0.1410596,-0.7437247,39.772438,-30.786879,-49.339844,
33201500,2.0625067,-0.61839294,9.926662,0.35661346,-0.11789012,-0.78447104,41.619247,-31.203403,-49.443863,
33201510,1.964891,-0.71780527,9.369714,0.1976229,-0.02095114,-0.83640265,40.5438,-32.25161,-49.458466,
33201520,1.5636482,-0.94357914,9.161308,-0.025549825,0.102619424,-0.877149,41.007454,-32.562588,-50.990982,
33201530,0.962982,-1.3508105,9.475714,-0.27562043,0.2416363,-0.8896658,40.237823,-31.989256,-51.32628,
33201540,0.27268493,-1.718716,10.16701,-0.5081142,0.34549952,-0.8664963,41.315475,-32.562553,-51.29283,275.0
33201550,-0.34195492,-1.844279,10.814188,-0.6761595,0.3721311,-0.7839384,40.544136,-31.242908,-51.01779,
33201560,-0.7473897,-1.6604261,12.001148,-0.7640438,0.31061214,-0.6126973,40.08168,-30.803055,-50.724854,
33201570,-0.3527346,-1.9053638,12.99587,-0.7105143,0.23950578,-0.4182867,42.389977,-30.199245,-52.067307,
33201580,0.52041733,-2.2676797,13.424061,-0.5275553,0.21580367,-0.2853951,42.700073,-31.963484,-52.039154,
33201590,1.5307105,-2.539567,13.400106,-0.26896253,0.21500473,-0.24571402,41.162895,-31.857952,-53.316742,
33201600,2.1367664,-2.5934653,13.207271,-0.021288773,0.1457626,-0.29631406,41.31629,-32.28395,-52.379395,
33201610,2.4098513,-2.4629116,12.606007,0.1661976,-0.043854304,-0.40390566,41.316048,-30.978111,-53.787415,
33201620,2.5146532,-2.1922224,11.478334,0.2596745,-0.2755491,-0.53333515,43.1653,-33.30864,-53.71443,
33201630,2.3805065,-1.8682339,10.093149,0.2397008,-0.44679022,-0.65876997,40.088966,-33.50506,-53.943436,
33201640,2.1966536,-1.6466521,9.079861,0.12891339,-0.51203763,-0.7607689,42.087906,-32.304703,-54.526672,
33201650,1.8025972,-1.5011268,8.731918,-2.498161E-4,-0.48114496,-0.83240783,41.318726,-32.316376,-54.54567,
33201660,1.2755921,-1.2573868,8.943918,-0.07987827,-0.40817443,-0.8507837,38.2444,-33.986885,-54.757553,
33201670,0.8599764,-0.96633613,9.258325,-0.079079315,-0.3266818,-0.80231416,38.2444,-33.986885,-54.757553,
33201680,0.71744543,-0.9004604,9.298449,-0.019158244,-0.2097691,-0.7133647,40.243576,-33.07903,-55.182632,
33201690,0.93124187,-0.9639407,9.182268,0.052480724,-0.075013265,-0.6361331,39.784065,-33.546787,-56.426773,
33201700,1.4199195,-1.1597711,9.085251,0.118793376,0.032312036,-0.61615944,40.401237,-33.99589,-57.489563,
33201710,1.7750492,-1.3526071,9.276291,0.18244287,0.050687827,-0.67181945,39.32216,-33.258972,-56.44159,
33201720,1.8912301,-1.4484262,9.316416,0.24689132,-0.040658515,-0.76769316,38.705307,-33.53765,-54.751297,
33201730,1.8870378,-1.3412286,8.662449,0.25621238,-0.2031112,-0.8760837,39.633842,-35.18915,-57.649597,
33201740,1.7337272,-1.0573643,7.961173,0.19043235,-0.3394649,-0.9751532,37.018143,-34.498745,-58.18695,255.0
33201750,1.3450608,-0.6962459,7.3371506,0.08523758,-0.35624284,-1.0244218,38.556442,-34.18521,-58.461853,
33201760,1.0031064,-0.43633658,6.991004,-0.031408776,-0.21935646,-1.0121713,38.86386,-33.74295,-58.76886,
33201770,0.69408953,-0.33213326,7.1598854,-0.115564585,0.04802467,-0.95704365,39.63405,-34.468323,-58.741302,
33201780,0.5880896,-0.319557,7.3892527,-0.13180986,0.38970795,-0.8835406,38.711464,-34.92224,-58.604218,
33201790,0.6180331,-0.4255569,7.801275,-0.08840037,0.74390805,-0.8188258,38.247795,-33.59793,-58.32155,
33201800,0.5593439,-0.49502578,8.469614,-0.039664567,0.9154155,-0.79991734,41.01838,-33.431664,-59.8022,
33201810,0.62761503,-0.5495229,8.7948,-0.028212983,0.81634593,-0.8302773,39.32514,-34.311684,-57.822205,
33201820,0.7366092,-0.6046189,8.964878,-0.042327724,0.5119469,-0.9229553,40.557724,-35.186726,-58.400467,
33201830,0.6773212,-0.5866529,9.06489,-0.065763526,0.10128784,-1.0345417,40.55741,-34.458946,-59.027954,
33201840,0.6102478,-0.4926303,8.893015,-0.066562474,-0.2686249,-1.1250892,39.169716,-32.4116,-58.776657,223.0
33201850,0.5030501,-0.37105975,8.331274,-0.041795094,-0.43880075,-1.1626396,39.94066,-33.436424,-59.05513,
33201860,0.4228016,-0.13869834,7.525196,-0.025816139,-0.3405302,-1.1405355,40.555244,-33.127632,-58.733902,
33201870,0.31620282,0.037369322,7.0185523,-0.052181415,-0.08380168,-1.0712934,39.32657,-33.607063,-59.997025,
33201880,0.22337799,0.15295115,6.9245296,-0.090797216,0.21154264,-0.97515315,40.866394,-34.03753,-60.72757,
33201890,0.14672269,0.10025062,7.389252,-0.11316775,0.44909638,-0.88407314,40.094337,-32.56353,-59.99002,208.0
33201900,0.19044018,0.0870755,8.212099,-0.09985196,0.5247301,-0.8209563,41.632782,-32.107224,-60.57608,
33201910,0.36710674,0.117018975,8.85828,-0.06523089,0.46187955,-0.8036458,41.632446,-33.115925,-59.01677,
33201920,0.6809144,0.13139185,9.1205845,-0.016228769,0.30661738,-0.8073741,42.249718,-32.263824,-61.79706,
33201930,1.1851625,-0.04407695,8.962483,0.042360723,0.04429625,-0.8481205,42.095695,-33.132084,-60.552704,
33201940,1.5480777,-0.10216731,8.636699,0.072720736,-0.21030171,-0.9248195,42.402763,-32.68519,-60.550232,190.0
33201950,1.4816031,0.046352368,8.219885,0.087900735,-0.34931862,-1.0063121,41.635284,-33.44317,-61.17961,
33201960,1.2725976,0.22661212,7.8012753,0.09429231,-0.32268703,-1.0539829,41.636154,-33.45475,-61.953278,
33201970,1.0037051,0.4068719,7.482676,0.060203884,-0.1863333,-1.0595753,41.94381,-33.30499,-62.102127,
33201980,1.040835,0.4655611,7.1640778,-0.013565611,0.0030172858,-1.0321448,41.94226,-31.54766,-62.89633,
33201990,1.2007332,0.32841998,7.5365744,-0.112901434,0.1995584,-1.015367,41.63691,-33.7542,-62.259323,177.0
33202000,1.1222813,0.20804717,8.836121,-0.21303621,0.32073215,-1.0276177,43.1734,-32.113987,-62.549637,
33202010,0.96537745,0.117617846,10.188369,-0.20451409,0.3404395,-1.0523849,41.94139,-31.53608,-62.122665,
33202020,0.81386346,0.10444271,10.996843,-0.08227511,0.2293858,-1.0806143,44.250023,-32.673386,-61.587784,
33202030,0.7198409,0.1637308,11.127397,0.09162916,0.0048814993,-1.1053817,42.561028,-34.044277,-62.852036,
33202040,0.8509934,0.36854422,10.193759,0.24848923,-0.2515807,-1.1229587,44.24951,-31.798195,-62.216995,159.0
33202050,1.0989255,0.562578,9.034946,0.3150682,-0.44545865,-1.1394702,43.019753,-31.250399,-63.801575,
33202060,1.2007333,0.7009169,8.250427,0.27565342,-0.49925447,-1.1517208,43.176834,-33.7517,-63.613922,
33202070,1.2175016,0.7901484,7.8030715,0.18457341,-0.4127018,-1.1421332,44.40528,-31.966433,-63.75882,
33202080,1.2175016,0.83147043,7.7988796,0.0721881,-0.22361752,-1.109909,44.71705,-34.331886,-64.49748,
33202090,1.1001232,0.7572106,8.28097,-0.037800357,0.0048814975,-1.0641029,45.33393,-34.198303,-66.03134,147.0
33202100,1.0647899,0.5739565,9.06489,-0.12808144,0.20355316,-1.0209596,45.638023,-32.6987,-64.648254,
33202110,1.0727748,0.48193026,9.7278385,-0.1643004,0.3050195,-1.0020511,44.714027,-31.252514,-65.61658,
33202120,1.1480328,0.3230301,10.351861,-0.17841513,0.25228894,-1.0108397,43.637375,-32.284504,-64.54805,
33202130,1.1833661,0.14396812,11.0022335,-0.16483301,0.06560152,-1.0497217,45.792496,-33.283684,-64.48288,
33202140,1.1671965,0.11162916,10.970492,-0.12195617,-0.16875646,-1.0910008,44.563187,-34.189133,-64.65773,130.0
33202150,1.2606202,0.06671393,10.7381315,-0.07561721,-0.3320081,-1.1141702,46.256653,-34.46985,-65.38617,
33202160,1.3229027,0.045154627,10.369826,-0.06017089,-0.37035757,-1.1170998,47.177574,-32.546474,-65.84984,
33202170,1.3432641,0.08048792,10.296764,-0.073753,-0.30431122,-1.1005881,45.48826,-34.057827,-66.64818,
33202180,1.3815919,0.060126357,10.537511,-0.08626984,-0.19458911,-1.0707607,47.028267,-34.490604,-67.53345,
33202190,1.7433091,-0.06743287,11.06751,-0.07455195,-0.106704846,-1.0513196,46.874596,-35.3635,-66.59857,113.0
33202200,2.2972636,-0.17762488,11.599905,-0.034071933,-0.094188005,-1.0736902,46.25775,-34.773933,-66.00169,
33202210,2.635625,-0.22194123,11.790345,0.01865861,-0.15171224,-1.1599765,45.799927,-34.97467,-69.10605,
33202220,2.7757607,-0.18900341,11.509476,0.07857968,-0.25983647,-1.2752912,45.79796,-34.65901,-67.71686,
33202230,2.7655795,-0.22014463,10.84473,0.07085652,-0.4009839,-1.3778229,46.104195,-35.358955,-65.53444,
33202240,2.7110825,-0.5363478,9.8997135,-0.010103503,-0.47874814,-1.4577177,45.334854,-34.500072,-66.49211,98.0
33202250,2.4475796,-0.6746867,9.222392,-0.1493867,-0.4177618,-1.5176387,45.495476,-37.337883,-69.08624,
33202260,1.9505179,-0.73577136,9.048719,-0.30757833,-0.20044804,-1.5325525,47.336136,-35.501587,-66.430725,
33202270,1.4396822,-0.97591805,9.526019,-0.4407363,0.09942363,-1.4939365,45.797836,-34.946877,-67.24924,
33202280,1.1677954,-1.3190703,10.557872,-0.51503843,0.3337816,-1.419102,44.568947,-35.2789,-68.51407,
33202290,1.1162927,-1.5682001,11.541814,-0.50704896,0.41633952,-1.3362777,46.257965,-33.184864,-68.18678,86.0
33202300,1.252236,-1.8293073,11.88796,-0.4362089,0.4008932,-1.2579808,46.873207,-32.595154,-68.79736,
33202310,1.6534786,-2.1646743,11.996956,-0.32755202,0.3905069,-1.2001902,47.33457,-32.730927,-68.47479,
33202320,2.042744,-2.285646,12.298785,-0.19359514,0.39769742,-1.2025871,46.260498,-35.53414,-67.54047,
33202330,2.1972525,-2.1431148,12.281419,-0.046056148,0.35295635,-1.2542524,46.563705,-33.00962,-66.63356,
33202340,2.1960545,-1.9448892,11.972402,0.086036526,0.2094121,-1.337343,46.563705,-33.00962,-66.63356,74.0
33202350,2.024179,-1.5131041,11.254356,0.17818183,0.0016857069,-1.4145746,46.563644,-33.587677,-65.85304,
33202360,1.6792301,-0.9298051,10.18837,0.19256288,-0.1828712,-1.4510598,46.563644,-33.587677,-65.85304,
33202370,1.3612303,-0.48304838,9.155319,0.1241197,-0.21695963,-1.4270914,45.33116,-32.424767,-65.74242,
33202380,1.2408575,-0.27883387,8.506743,5.4913014E-4,-0.078741685,-1.3445334,44.714897,-31.264095,-66.39024,
33202390,1.4342923,-0.25008813,8.554652,-0.14139724,0.11620154,-1.2409365,44.409042,-32.595444,-66.38243,65.0
33202400,1.7990041,-0.51957947,9.118189,-0.2481899,0.27252895,-1.1522534,45.329666,-31.825863,-65.130325,
33202410,2.225998,-0.8495566,9.712267,-0.29692566,0.3372437,-1.1061807,43.943787,-30.236958,-65.957016,
33202420,2.608077,-1.150788,10.130279,-0.30837727,0.3116774,-1.1168334,44.248116,-29.029852,-64.41577,
33202430,2.9033196,-1.3220646,10.459059,-0.27056044,0.24350053,-1.1714282,45.94294,-30.052248,-65.44513,
33202440,3.0955567,-1.2897258,10.510561,-0.18267618,0.17159525,-1.2545186,44.248466,-29.034485,-64.72525,58.0
33202450,2.9949465,-1.155579,10.045837,-0.09905301,0.104483634,-1.3554524,43.94082,-29.184246,-64.5764,
33202460,2.6242461,-0.8723136,9.481703,-0.06523089,0.029915191,-1.448663,43.63118,-28.873251,-63.194824,
33202470,2.152337,-0.6064155,8.798392,-0.0670951,-0.004439555,-1.4936702,42.555946,-29.200624,-64.30113,
33202480,1.7373204,-0.33213323,8.437873,-0.10198248,0.04562783,-1.4958007,44.706963,-27.829678,-63.489685,
33202490,1.57862,-0.20157966,8.360021,-0.16509934,0.13670787,-1.4705008,45.014587,-27.534822,-63.794983,
33202500,1.540891,-0.30817845,8.722336,-0.23221093,0.20594999,-1.4494619,44.247665,-28.444847,-64.7321,
33202510,1.5121455,-0.38543266,9.528416,-0.23274358,0.24270159,-1.4436029,43.166763,-26.381248,-63.699524,
33202520,1.5103489,-0.35009933,10.265024,-0.1493867,0.22832051,-1.4483967,43.01104,-26.503197,-61.84482,
33202530,1.4947782,-0.30638188,10.518346,-0.034071933,0.14363208,-1.4625114,43.010735,-25.775417,-62.472305,
33202540,1.50975,-0.25667566,10.1769905,0.083905995,0.050421514,-1.4723651,44.242058,-26.34406,-62.280334,53.0
33202550,1.5690382,-0.17762488,9.649386,0.18031235,0.020860452,-1.4814198,41.6224,-24.00899,-61.289185,
33202560,1.6403036,-0.18241584,9.318212,0.23357552,0.054682568,-1.4952682,42.082558,-23.260307,-60.976883,
33202570,1.6319194,-0.18900341,8.978054,0.25594604,0.11966365,-1.5115135,41.469345,-24.455868,-61.44258,
33202580,1.5540663,-0.10336504,8.687002,0.2578103,0.18704157,-1.5131114,41.313026,-23.26735,-60.6864,
33202590,1.6301227,-0.039884865,8.3348675,0.21706395,0.23338053,-1.5112472,39.007614,-24.488588,-61.19391,
33202600,1.7151623,-0.0410826,8.461229,0.1424955,0.25788158,-1.5261608,40.85183,-23.133892,-61.163727,
33202610,1.7840322,0.07150489,8.881636,0.10973864,0.28371423,-1.5477325,40.233055,-24.25533,-56.677963,
33202620,1.8439193,0.14636359,9.438584,0.12545128,0.2948995,-1.574364,41.002457,-22.654587,-58.84407,
33202630,1.6648573,0.1739116,9.899714,0.19975342,0.30422053,-1.6060557,39.15763,-23.567055,-58.87938,
33202640,1.578021,0.20505282,9.709873,0.3150682,0.29649737,-1.6276271,39.002014,-22.387802,-58.74214,
33202650,1.4324958,0.26793414,9.101421,0.40854508,0.2983616,-1.6441388,38.538162,-21.929415,-57.211334,
33202660,1.2971512,0.48532382,8.542676,0.4154693,0.28770894,-1.6505303,38.84423,-19.877232,-58.310852,
33202670,1.0001118,0.85901845,8.31271,0.3419661,0.24856052,-1.6353503,35.76834,-21.526894,-57.130142,
33202680,1.0558069,0.957233,8.213897,0.24422818,0.19556367,-1.5783589,39.30535,-21.456984,-55.95961,
33202690,1.3266954,1.0153234,8.098114,0.13051128,0.1726605,-1.5203019,38.99539,-20.41821,-55.205536,60.0
33202700,1.587603,0.8751879,8.237851,0.02771335,0.23737526,-1.4822187,37.30179,-19.412025,-55.259308,
33202710,1.7600775,0.81470203,8.669037,-0.043392986,0.3694679,-1.4627776,38.073105,-20.586575,-55.69081,
33202720,1.9032073,0.65001297,9.204426,-0.06496458,0.5044901,-1.482485,37.457153,-20.153687,-55.71115,
33202730,1.7331283,0.3320132,9.863182,-0.029011933,0.6048912,-1.5061872,35.915672,-19.267097,-54.057358,
33202740,1.5612528,0.17451046,10.780053,0.046888094,0.5231322,-1.5400093,36.37285,-17.465706,-52.364426,
33202750,0.83542275,0.12540315,11.338199,0.17445341,0.35748374,-1.5461346,36.373604,-17.765156,-52.67047,
33202760,0.52640605,0.048148975,11.244176,0.3198619,0.1726605,-1.4950019,34.67829,-16.012665,-52.11389,
33202770,0.7144511,-0.09797522,10.705791,0.41919768,0.029382559,-1.423363,33.294365,-17.344143,-51.04953,
33202780,1.3690157,-0.29620105,9.897319,0.42052928,-0.024945877,-1.3831493,34.061127,-15.5635605,-51.051086,
33202790,1.6989927,-0.59803134,9.567343,0.3872398,0.060541518,-1.3844807,33.444656,-15.123723,-50.607224,67.0
33202800,1.7810379,-0.74655104,9.717059,0.35474926,0.17851946,-1.3935356,32.05851,-14.833702,-49.561707,
33202810,1.701987,-0.88309324,10.387793,0.3456945,0.23204894,-1.4169713,30.827253,-13.687004,-50.534195,
33202820,1.394767,-0.92920625,10.845329,0.38857138,0.2546858,-1.437744,30.827906,-15.287657,-49.122772,
33202830,1.0588012,-0.9555565,11.117216,0.48124927,0.26347423,-1.4577177,29.135027,-13.567593,-50.732437,
33202840,0.65695965,-0.84775996,11.156742,0.5662041,0.18091631,-1.479023,30.05348,-12.334935,-48.092865,76.0
33202850,0.32818022,-0.650133,11.067511,0.6290546,6.204434E-4,-1.5013936,30.208284,-13.792793,-47.14354,
33202860,0.052700162,-0.30817845,10.746515,0.67086613,-0.18047434,-1.5008609,28.825727,-14.129469,-48.56691,
33202870,0.016169123,0.03257836,10.319522,0.6855135,-0.26489648,-1.4816861,28.361872,-13.671083,-47.036118,
33202880,0.10719731,0.4619679,9.848211,0.64077246,-0.2774133,-1.4513261,27.592913,-12.093684,-49.24022,
33202890,0.41022533,0.6290525,9.35594,0.51427245,-0.27368492,-1.4196346,27.130152,-12.807622,-47.231506,89.0
33202900,0.7114568,0.39309788,8.80498,0.3286503,-0.2550428,-1.4052534,26.515654,-12.683449,-48.176834,
33202910,0.907886,0.036770456,8.497162,0.10387969,-0.17381644,-1.4071176,24.514189,-12.547859,-46.990067,
33202920,0.8689594,-0.4201671,8.83133,-0.13074459,-0.064360626,-1.4241619,23.437346,-11.695961,-48.11006,
33202930,0.6018636,-0.9645395,9.806889,-0.29106677,0.032578353,-1.4260261,21.897135,-11.115773,-47.226517,
33202940,0.4814908,-1.5556238,11.140572,-0.3203615,0.0821131,-1.4196346,20.819876,-10.837297,-47.25653,99.0
33202950,0.38267732,-1.9676461,12.26465,-0.22555304,0.070927836,-1.4209661,20.509829,-11.099724,-44.784973,
33202960,0.14732155,-2.0898156,12.853339,-0.026881404,-0.020152193,-1.4222976,20.202375,-9.515322,-46.97766,
33202970,0.10360409,-2.0958042,12.754525,0.19016606,-0.1407933,-1.4334829,19.583616,-8.900279,-44.67871,
33202980,-0.029344972,-1.8700303,12.187395,0.3654019,-0.24758595,-1.4542556,19.427538,-7.1360216,-44.857803,
33202990,-0.25691542,-1.6412622,11.575351,0.46207458,-0.3541123,-1.4675714,18.198385,-7.030452,-46.43724,
33203000,-0.5916835,-1.3005054,10.853114,0.4732598,-0.49632496,-1.4438692,16.043867,-7.3417406,-45.40387,
33203010,-0.7138529,-0.9855,10.069195,0.40375137,-0.6292166,-1.3879428,17.12124,-7.332347,-45.841476,
33203020,-0.6180338,-0.79565823,9.367319,0.26127237,-0.7293514,-1.3210976,15.892473,-9.258076,-45.230667,
33203030,-0.29344645,-0.84716105,8.754076,0.07405231,-0.7538525,-1.2385397,14.04389,-6.7917185,-46.07904,
33203040,0.09521991,-0.9711271,8.518721,-0.07215511,-0.7109756,-1.1706291,15.117552,-6.4434986,-43.58014,
33203050,0.5377846,-1.2430139,8.579206,-0.20185092,-0.6087103,-1.1045828,10.349424,-6.092173,-44.940918,
33203060,1.1091062,-1.5604148,8.791206,-0.3272857,-0.3977881,-1.0217586,10.349424,-6.092173,-44.940918,
33203070,1.6546764,-1.8550587,9.339172,-0.38640785,-0.10856906,-0.9724901,9.119112,-6.260576,-45.124344,
33203080,1.9026084,-1.9287196,10.556075,-0.38880467,0.16653523,-0.97781634,9.119112,-6.260576,-45.124344,
33203090,1.9535123,-1.872426,11.636436,-0.318231,0.23417947,-1.0180302,8.9609165,-4.3234296,-43.603073,
33203100,1.9792638,-1.720313,11.862209,-0.17442039,0.08397732,-1.0838102,8.961596,-6.0691752,-42.035187,92.0
33203110,2.1152072,-1.4639968,11.387305,-0.030077195,-0.21935646,-1.1876733,7.731764,-4.2178607,-45.18251,
33203120,2.1726987,-1.2244489,10.610572,0.06419863,-0.56103975,-1.3288208,7.270918,-4.9572773,-44.875885,
33203130,1.9660885,-0.884291,9.811082,0.1108039,-0.846264,-1.4784904,5.421818,-4.365544,-42.916794,
33203140,1.3067333,-0.35009935,9.0068,0.11533128,-1.0393431,-1.6081862,5.7301464,-5.093288,-42.591156,
33203150,0.6060557,0.019403242,8.006088,0.08150916,-1.1011283,-1.656922,3.117939,-6.3307786,-43.879913,82.0
33203160,0.27787513,0.18349351,7.2191734,-0.0061087655,-1.0025915,-1.6289587,2.3466892,-4.5781755,-44.228928,
33203170,-0.3617176,0.46675882,6.8808126,-0.11822775,-0.7248241,-1.5671735,1.4249992,-5.1887684,-44.709076,
33203180,-1.0019093,1.0566454,7.40123,-0.24073304,-0.3874018,-1.4428041,0.34713936,-4.468065,-44.744232,
33203190,-1.1450391,1.4015944,8.401342,-0.32994884,-0.16050066,-1.256383,0.19111633,-2.9939923,-44.610428,
33203200,-0.35752553,1.150668,9.284077,-0.36696678,-0.12108591,-1.0784838,0.19202232,-5.0322404,-42.884384,61.0
33203210,0.7048692,0.71109766,9.442777,-0.353651,-0.2502491,-0.99565953,0.50004387,-5.032204,-43.18625,
33203220,1.5816144,0.35656685,9.15472,-0.31663308,-0.45424706,-1.0174975,-2.8859444,-4.9176254,-42.03369,
33203230,1.969083,0.053538807,8.558247,-0.28973514,-0.59859025,-1.101387,-0.26823997,-5.200551,-43.82248,
33203240,2.2289925,-0.13929722,7.864755,-0.29772463,-0.61190605,-1.2190986,-2.2691994,-4.0585766,-44.349762,
33203250,2.1451504,-0.20956458,7.623011,-0.34805834,-0.48034602,-1.3487945,-4.58,-2.4581985,-43.497177,49.0
33203260,1.5953884,-0.16265315,7.9857273,-0.409311,-0.26036912,-1.4630439,-3.192398,-4.9385085,-43.12442,
33203270,0.7366092,0.09725629,8.69898,-0.43221414,-0.08832906,-1.5285578,-3.9623947,-5.228786,-42.056854,
33203280,0.05928773,0.49790007,9.443376,-0.41543627,-0.047316417,-1.5354819,-4.579094,-4.496446,-41.77115,
33203290,-0.2395482,0.77098453,9.844618,-0.37628782,-0.15597329,-1.5019261,-4.425091,-5.364668,-40.82869,
33203300,-0.028147243,0.86740255,9.752991,-0.3339436,-0.3306765,-1.4662397,-5.810156,-4.365398,-41.64853,41.0
33203310,0.3102141,0.8368603,9.392471,-0.29559413,-0.45451337,-1.4590492,-5.195471,-3.6236467,-41.95134,
33203320,0.49466595,0.85422754,8.920562,-0.27615306,-0.48274288,-1.462245,-10.119031,-3.108717,-42.079773,
33203330,0.63659805,0.7775722,8.407929,-0.2934636,-0.39619023,-1.4686366,-7.653425,-6.1669536,-41.983032,
33203340,0.5844964,0.76020503,8.362415,-0.36217308,-0.24705333,-1.4734304,-6.7330627,-4.9597764,-41.045532,
33203350,0.43118575,0.7314592,8.723535,-0.44766048,-0.080605894,-1.4643755,-7.653837,-6.7403765,-40.893066,
33203360,0.21199949,0.7476287,9.427804,-0.50438577,0.050421517,-1.4526577,-7.9620476,-5.7247634,-41.68631,
33203370,-0.01557098,0.7847586,10.2776,-0.5025216,0.10448364,-1.4281566,-9.656297,-4.9995008,-40.808258,
33203380,-0.022757418,0.90153813,10.901024,-0.44233418,0.07678679,-1.3938019,-6.889721,-5.6481977,-37.636642,
33203390,0.049106944,1.0069392,11.02499,-0.35338467,8.781534E-5,-1.3634418,-9.348404,-6.155574,-39.549103,
33203400,0.26350224,0.94046474,10.886651,-0.2647015,-0.078741685,-1.3352123,-10.272859,-4.992625,-39.740326,38.0
33203410,0.34734404,0.91351557,10.71777,-0.21463409,-0.15810382,-1.320565,-9.6633,-6.4982376,-32.588562,
33203420,0.3066209,0.9105212,10.613566,-0.20584567,-0.24066174,-1.3040533,-7.9709206,-5.6066327,-33.794907,
33203430,0.3952536,0.8494365,10.510561,-0.21197093,-0.30457753,-1.2811502,-10.734705,-9.626384,-33.66234,
33203440,0.5389823,0.73505247,10.405161,-0.2383362,-0.3423944,-1.2619755,-11.039631,-7.6414475,-38.645386,
33203450,0.82464314,0.6290525,10.170403,-0.30997518,-0.37701547,-1.2702312,-11.964085,-6.478499,-38.836594,
33203460,0.82464314,0.57335764,10.372821,-0.40904468,-0.41137022,-1.3083144,-13.502766,-6.642305,-38.40869,
33203470,0.5371857,0.6092898,10.62734,-0.47482473,-0.43214285,-1.3274891,-12.271912,-7.494185,-37.439606,
33203480,0.32698244,0.636239,10.614764,-0.4963963,-0.35331336,-1.2955313,-13.653947,-7.8378096,-39.32718,
33203490,0.040123887,0.73325586,11.187882,-0.5075816,-0.15730485,-1.222827,-13.654761,-8.116413,-38.240616,
33203500,-0.23296064,0.83566254,11.807713,-0.5009237,0.032045722,-1.1336112,-14.270536,-7.6858416,-38.415695,
33203510,-0.39824867,0.77577555,12.619182,-0.45485103,0.15481734,-1.0318786,-15.657147,-7.679057,-36.593094,
33203520,-0.13354829,0.45358372,13.305485,-0.36590153,0.17319314,-0.9429289,-14.885688,-8.710829,-37.33577,
33203530,0.21199948,0.05293992,13.432446,-0.2750878,0.08610784,-0.9107048,-16.117878,-8.130604,-36.754074,
33203540,0.64019126,-0.2237378,13.158164,-0.24179831,-0.062230103,-0.93760264,-15.0429945,-7.7985973,-35.338318,
33203550,1.248044,-0.548924,12.766503,-0.23514041,-0.15011434,-1.0321448,-18.27193,-8.158656,-36.497818,35.0
33203560,1.5223262,-0.8639294,12.838367,-0.20211723,-0.07155116,-1.1642375,-14.580452,-8.673732,-35.16191,
33203570,1.1719874,-0.97531915,13.397113,-0.13873407,0.010207819,-1.3045862,-17.039045,-8.748146,-37.69844,
33203580,0.40064344,-0.84476554,13.356988,-0.050583515,-0.036131147,-1.3935356,-18.120558,-7.978801,-34.48419,
33203590,-0.291051,-0.6974437,12.685655,0.010136503,-0.11389538,-1.4105798,-16.117413,-7.8473673,-37.531174,
33203600,-0.94741213,-0.5297602,11.823882,-5.161315E-4,-0.14052698,-1.3629093,-17.809736,-9.029158,-36.011932,
33203610,-1.1947453,-0.42256254,11.335804,-0.087068796,-0.13733119,-1.2670355,-18.11803,-10.32808,-33.83786,
33203620,-1.3408694,-0.46628004,11.122007,-0.21037304,-0.12534696,-1.1309481,-20.578903,-9.35905,-35.6127,
33203630,-1.1186888,-0.75433636,10.941747,-0.3440636,-0.07820906,-0.9557122,-20.579601,-9.349785,-34.993774,
33203640,-0.5341921,-1.2352287,10.768075,-0.4697647,0.023789927,-0.779411,-20.73427,-8.61739,-35.160873,
33203650,0.08024816,-1.6807876,10.865092,-0.58587843,0.1606763,-0.6505141,-20.117981,-9.923152,-34.356598,
33203660,0.3102141,-2.0544822,11.580143,-0.6548543,0.28770894,-0.5775436,-20.272852,-9.043348,-34.525406,
33203670,0.2317622,-2.1455107,12.573668,-0.6186353,0.35269004,-0.5349331,-22.734266,-9.80385,-33.64923,
33203680,0.13714078,-2.0017817,13.210864,-0.47083,0.33644474,-0.49525198,-23.042305,-8.790553,-34.597214,
33203690,0.12576225,-1.6783922,13.45161,-0.24126568,0.26161,-0.45210883,-22.118767,-8.783495,-35.03862,
33203700,0.094022155,-1.187319,13.23961,-0.015962455,0.11034259,-0.40683514,-22.88779,-10.533964,-33.025543,32.0
33203710,0.07785268,-0.6974437,12.497011,0.18297552,-0.097916424,-0.3346635,-22.426868,-11.098066,-31.769424,
33203720,0.2904514,-0.35548916,11.09925,0.30468187,-0.29818594,-0.23878981,-23.814753,-8.035069,-32.613235,
33203730,0.6881008,-0.22254008,9.679929,0.31240505,-0.40764177,-0.1311982,-25.040003,-9.283977,-36.034073,
33203740,1.316914,-0.29380557,8.839115,0.216265,-0.399386,-0.034791853,-22.581932,-9.202614,-33.033356,
33203750,1.8996141,-0.4626868,8.487579,0.08816706,-0.27661437,0.026460797,-23.964287,-9.686699,-34.455,
33203760,2.5344157,-0.6992403,8.639093,-0.025017194,-0.11815643,0.04430396,-23.964287,-9.686699,-34.455,
33203770,2.9811728,-0.9022571,8.966077,-0.0971888,0.004082553,0.008883946,-24.427616,-9.235261,-33.388397,
33203780,3.3943927,-0.9962796,9.063093,-0.10917301,0.06666678,-0.061956078,-24.429585,-8.919597,-31.999237,
33203790,3.6854434,-1.1992965,8.854088,-0.07961194,0.1505563,-0.15862873,-25.50554,-9.092613,-32.64305,
33203800,3.6525056,-1.1483926,8.733116,-0.08919932,0.20222157,-0.2904551,-26.735716,-9.986479,-32.044235,
33203810,3.1907768,-0.86572605,8.651072,-0.1392667,0.1910363,-0.4326678,-26.121754,-9.09037,-31.884583,
33203820,2.5172484,-0.60721403,8.766454,-0.18240987,0.13484365,-0.5218836,-26.12266,-9.801936,-30.17395,
33203830,2.0277722,-0.48304838,8.72054,-0.20531304,0.030447822,-0.5495804,-27.96678,-9.855431,-31.921616,
33203840,1.5241228,-0.3345287,8.356427,-0.24312988,-0.05184378,-0.53306884,-25.814741,-8.353289,-32.195007,
33203850,1.068383,-0.28182817,7.9180546,-0.32195938,-0.04491957,-0.4923225,-27.044605,-9.974935,-30.968697,30.0
33203860,0.5791065,-0.24110508,8.020462,-0.40185416,0.049356252,-0.43799412,-26.890467,-8.818807,-32.680664,
33203870,0.25990906,-0.21176046,8.552258,-0.43461102,0.1340447,-0.3794046,-27.967384,-9.413203,-31.926743,
33203880,-0.07366133,-0.052461118,9.176279,-0.40797943,0.11859839,-0.30616772,-28.275267,-10.138704,-30.842659,
33203890,-0.2377516,0.20445395,9.339771,-0.35152045,0.015267819,-0.21322349,-28.275057,-9.417872,-31.934341,
33203900,0.15989783,0.22361776,8.965477,-0.32622045,-0.106704846,-0.13652451,-27.199303,-9.097447,-31.292236,
33203910,0.54976195,0.1757082,8.545071,-0.3187636,-0.1461196,-0.0957782,-27.81245,-9.7149515,-32.538452,
33203920,0.9528012,0.052341066,8.300733,-0.3091762,-0.10697117,-0.060624495,-28.276209,-8.823604,-31.63173,
33203930,1.3408687,-0.17942148,8.309715,-0.29319727,-0.008434295,-0.044112913,-28.123217,-8.954781,-30.697815,
33203940,1.5576595,-0.19738758,8.48159,-0.27482146,0.1004889,-0.052102387,-28.888954,-9.735927,-32.874527,
33203950,1.5031624,-0.20038193,8.725331,-0.23354252,0.24483213,-0.06994556,-27.967073,-10.140984,-31.299255,
33203960,1.3738065,-0.14887914,9.296053,-0.16696355,0.29276896,-0.08113082,-29.971218,-8.66713,-29.35424,
33203970,1.1546203,-0.04287921,9.841623,-0.060170893,0.23258157,-0.08645715,-29.35341,-8.835314,-31.348862,
33203980,1.1091062,0.12300767,9.947025,0.06366599,0.08104784,-0.08832136,-30.583935,-9.724546,-30.440582,
33203990,1.2270834,0.2900923,9.682923,0.16912708,-0.096052215,-0.103501365,-27.66114,-10.113152,-29.744324,
33204000,1.3091286,0.43142554,9.220595,0.26233763,-0.22628069,-0.118947685,-28.275963,-10.129438,-30.223717,27.0
33204010,1.4199195,0.49430686,8.793602,0.3401019,-0.2851365,-0.13013294,-29.356504,-8.070473,-29.500618,
33204020,1.551072,0.5643746,8.210902,0.38777244,-0.27102175,-0.13732347,-28.123684,-9.238017,-29.92073,
33204030,1.7415125,0.50269103,7.5713086,0.38510928,-0.18074067,-0.1429161,-29.657108,-11.497978,-31.635117,
33204040,1.8732638,0.5218549,7.1413207,0.30468187,-0.041191146,-0.16555294,-30.428852,-9.883519,-31.363464,
33204050,1.7948118,0.67995644,7.2521114,0.17844814,0.08184679,-0.21056034,-30.275923,-10.592751,-29.64904,
33204060,1.4672303,0.8051202,8.091127,0.092960745,0.1492247,-0.24518138,-29.351305,-9.876442,-31.95581,
33204070,1.1444395,0.89854383,9.261917,0.09695548,0.12472364,-0.26089403,-29.198467,-11.018636,-29.61731,
33204080,0.6749257,1.0470635,9.839228,0.17392078,0.041633096,-0.2284035,-29.503511,-12.0713825,-30.69606,
33204090,0.5383835,0.8859676,9.712268,0.2551471,-0.03346799,-0.14531294,-29.04344,-10.887423,-30.853096,
33204100,0.78391993,0.636239,9.448166,0.28896922,-0.06595852,-0.062488712,-30.275576,-10.5973835,-29.958511,
33204110,1.3001456,0.36794537,9.408042,0.29269767,-0.05184378,0.0032913126,-30.735737,-12.214305,-29.177414,
33204120,1.7427104,0.06791168,9.4044485,0.2620713,0.013137292,0.044037644,-29.96468,-12.951259,-29.923523,
33204130,2.1211958,-0.29440448,10.222506,0.24342921,0.07625416,0.037646063,-29.65646,-13.098631,-30.223671,
33204140,2.4032636,-0.42555696,10.358448,0.24129868,0.08770574,-0.023073958,-28.271585,-13.0822525,-30.498947,
33204150,2.4589581,-0.51898056,10.8902445,0.22958079,-0.011896402,-0.109892935,-32.275314,-12.221437,-28.13227,
33204160,2.2194104,-0.3824383,10.68603,0.21999341,-0.16769119,-0.19245085,-30.578001,-13.566447,-31.015,
33204170,1.8355352,-0.2405062,10.317725,0.1741871,-0.2651628,-0.24278456,-29.194979,-12.946535,-30.368721,
33204180,1.827151,-0.50879973,10.340482,0.09722179,-0.29232702,-0.26515508,-31.19609,-12.8155775,-29.491425,
33204190,1.6283262,-0.62258506,11.605893,0.036501776,-0.2707554,-0.29471615,-31.349205,-12.97227,-29.957718,
33204200,1.1552191,-0.58126307,12.798243,0.03943125,-0.25024912,-0.3256088,-30.732094,-13.131187,-31.333405,
33204210,0.5653326,-0.108156,13.119836,0.12971234,-0.27048913,-0.32001615,-29.96295,-13.842662,-30.377441,
33204220,0.06407869,0.39549336,13.426457,0.25594604,-0.26329857,-0.24944246,-29.04052,-14.39976,-29.10994,
33204230,0.13294868,0.5020921,12.610198,0.39016926,-0.26702702,-0.11948031,-28.42708,-13.496702,-28.486076,
33204240,0.39944565,0.62605816,11.6891365,0.4642051,-0.21189962,0.019003954,-32.58178,-13.11056,-28.129593,
33204250,0.6922929,0.6554028,10.768675,0.43384504,-0.09685116,0.12686187,-33.040283,-14.315367,-29.365166,
33204260,0.9084848,0.49849892,10.701002,0.29722503,0.057612047,0.17586401,-28.887829,-12.9349165,-29.896927,
33204270,0.9024961,0.36135778,11.169916,0.14435971,0.13431102,0.18678296,-32.42797,-12.963133,-28.282242,
33204280,0.8917165,0.090069845,11.172911,0.02584914,0.078650996,0.18465242,-31.1949,-15.436513,-27.294342,
33204290,1.0055017,-0.26685646,10.473432,-0.11982565,-0.056637462,0.18012506,-30.27184,-13.831118,-29.301918,
33204300,1.0588012,-0.80044925,10.079374,-0.3355415,-0.12295012,0.165744,-31.657738,-14.846931,-26.848389,25.0
33204310,0.8162589,-1.2496015,10.604584,-0.5725627,-0.035332195,0.15109663,-32.42595,-13.568983,-29.358528,
33204320,0.26170567,-1.5879629,11.707102,-0.7222322,0.14283313,0.15988505,-32.73448,-12.6938305,-29.685867,
33204330,-0.045514457,-1.6999514,12.978502,-0.73075426,0.28584474,0.2176756,-30.427269,-13.667513,-28.069557,
33204340,-0.23056519,-1.6304824,14.161869,-0.59786266,0.35482058,0.30529353,-29.043495,-13.347051,-27.729324,
33204350,0.056293387,-1.4094998,14.539157,-0.3469931,0.3004921,0.3905146,-30.273396,-12.94203,-29.002716,
33204360,0.7198409,-1.3256578,14.054672,-0.057774045,0.124191016,0.4360546,-28.580421,-13.360893,-29.11052,
33204370,1.3785975,-1.3166748,13.191701,0.20001973,-0.12161854,0.40303144,-29.65633,-14.692335,-28.348045,
33204380,1.560654,-1.1358162,11.993161,0.38644087,-0.3557102,0.31248406,-30.427727,-13.082509,-28.385872,
33204390,1.588202,-0.8777034,10.659679,0.4833798,-0.49339548,0.21714297,-29.194979,-12.946535,-30.368721,
33204400,1.5031624,-0.6165963,9.224788,0.48684192,-0.49632496,0.15136294,-30.581535,-13.229937,-28.233223,
33204410,1.2779874,-0.31596375,8.030043,0.39203346,-0.34931862,0.12526399,-31.040764,-14.280385,-29.00631,
33204420,1.0570045,-0.11294695,7.50723,0.2346408,-0.109900646,0.12632924,-31.195498,-14.126045,-28.392883,
33204430,0.87434936,-0.106958255,7.8731394,0.093759686,0.13111523,0.15455875,-29.352842,-12.750502,-26.9701,
33204440,0.834225,-0.21116158,8.534889,0.023452297,0.2999595,0.18864718,-32.271946,-14.437205,-28.416061,
33204450,0.92764866,-0.35009933,9.285872,0.027713351,0.3423037,0.19557138,-32.271946,-14.437205,-28.416061,23.0
33204460,0.8923154,-0.45849472,9.533805,0.10015127,0.29942685,0.17586401,-31.963083,-14.303658,-29.648033,
33204470,0.7671516,-0.3662688,9.345759,0.20587867,0.19476473,0.14497137,-31.655302,-14.879359,-29.014656,
33204480,0.73780704,-0.16983958,8.860077,0.2839092,0.022458352,0.11674187,-29.50341,-13.519994,-28.976875,
33204490,0.8509934,-0.06863061,8.011478,0.3089429,-0.17115329,0.09783344,-32.270676,-14.743605,-29.186302,
33204500,1.0737729,0.002634883,7.138326,0.28470817,-0.28540277,0.07546291,-29.041279,-14.96855,-27.710487,
33204510,1.146835,0.062521845,6.244813,0.21679762,-0.26249963,0.054157645,-31.809284,-15.024471,-28.707275,
33204520,1.1396486,0.07030715,5.639954,0.11053759,-0.08486695,0.05149449,-31.197063,-14.105199,-27.00029,
33204530,0.9414227,0.0056292266,5.765118,-0.01303298,0.1859763,0.06427765,-31.808159,-15.473647,-29.166344,
33204540,0.7078635,-0.062043034,6.623298,-0.11263512,0.41980165,0.077327125,-31.506493,-13.073372,-26.710403,
33204550,0.5252083,-0.21295819,7.7353992,-0.13846776,0.5164743,0.08824608,-31.347897,-15.305336,-28.228256,
33204560,0.42998803,-0.28122932,8.512732,-0.087867744,0.44243848,0.089843966,-30.11697,-14.71092,-29.13311,
33204570,0.49406707,-0.34470952,8.758268,0.005342817,0.2695995,0.085849226,-33.041046,-14.884157,-27.965714,
33204580,0.70367146,-0.40699193,8.688201,0.10414601,0.06746573,0.062946066,-31.3485,-14.863109,-28.23339,
33204590,0.7258296,-0.39681116,8.348641,0.20694394,-0.06995326,0.027259741,-31.198444,-15.968243,-23.419159,
33204600,0.7228353,-0.3033875,7.9779415,0.28577346,-0.119488016,0.008351315,-31.352253,-16.11567,-23.266518,22.0
33204610,0.6084512,-0.10336504,7.6084385,0.33291137,-0.10137853,0.0016934179,-30.273039,-17.57805,-23.532265,
33204620,0.37489203,0.21104153,7.398236,0.33956924,-0.049446937,0.013145,-31.501493,-14.731932,-29.167305,
33204630,0.32758135,0.4559792,7.011965,0.29935557,-0.009499557,0.053625014,-31.960522,-15.9297905,-29.938675,
33204640,0.42699373,0.63324463,6.752654,0.19709025,0.066933095,0.099431336,-32.575645,-17.09987,-28.702301,
33204650,0.6342026,0.59132373,7.198213,0.07325336,0.15561628,0.14710188,-30.422535,-15.756719,-29.747658,
33204660,0.7970952,0.44819388,7.919252,-0.031142458,0.21553737,0.18092401,-31.346622,-15.611735,-28.998497,
33204670,1.1665976,0.1325896,8.902596,-0.09106353,0.22139631,0.1942398,-30.574879,-17.226196,-29.270134,
33204680,1.3744054,-0.21774912,10.221906,-0.059638254,0.19982472,0.16707557,-29.652695,-16.477459,-29.41063,
33204690,1.3839874,-0.41298068,11.028583,0.04582283,0.15881208,0.114078715,-31.189785,-16.807203,-30.218864,
33204700,1.307931,-0.50939864,11.27951,0.17578498,0.062139418,0.050162904,-29.498028,-17.209854,-29.243538,
33204710,0.9120781,-0.2991954,10.9692955,0.2713924,-0.078741685,-9.69741E-4,-29.962162,-16.16878,-28.183784,
33204720,0.46532133,0.054736547,10.1308775,0.28630608,-0.15916908,-0.0038992157,-31.038548,-15.901884,-28.987473,
33204730,0.3401576,-0.066235125,10.310539,0.22531974,-0.16156593,0.026993427,-29.49864,-17.635866,-28.155266,
33204740,0.5958749,-0.36686766,9.812878,0.1424955,-0.15091328,0.06454396,-29.651543,-17.071728,-29.71325,
33204750,0.83602166,-0.5962348,9.971579,0.038365982,-0.033467986,0.09410502,-30.732359,-19.061462,-23.681282,
33204760,1.1713886,-1.2352287,10.359646,-0.07029089,0.09303205,0.12845978,-29.043331,-16.96742,-23.353989,
33204770,1.4007556,-1.5939515,11.08847,-0.1427288,0.26453948,0.12686189,-28.580814,-17.697462,-23.33403,
33204780,1.2995467,-1.7376801,12.408379,-0.12861407,0.41687217,0.10848608,-29.345592,-18.057228,-26.90847,
33204790,1.3336823,-1.8346971,13.783383,0.0069407113,0.41980165,0.10023029,-30.114964,-17.053251,-28.022583,
33204800,1.4792076,-1.6065278,14.081021,0.2343745,0.23710895,0.07785976,-31.190351,-18.391644,-27.724304,
33204810,1.8361338,-1.4190816,13.904955,0.47272718,-0.072083786,0.03924396,-29.19203,-16.603966,-28.469124,
33204820,2.1846762,-1.0944942,12.889271,0.66953456,-0.39619023,-0.031329747,-31.036095,-16.947647,-29.903893,
33204830,2.4505744,-0.75253975,11.210041,0.7664736,-0.61004186,-0.11388768,-30.57347,-18.258059,-29.258156,
33204840,2.8548112,-0.5465286,9.744607,0.73691255,-0.6712945,-0.19617927,-30.421337,-17.509413,-28.643974,
33204850,3.240483,-0.2536813,8.032438,0.57925355,-0.5882039,-0.29471615,-30.112795,-17.516325,-29.410042,
33204860,3.3931952,-0.030901812,6.813739,0.2713924,-0.40471232,-0.42015094,-31.647099,-20.632946,-29.257355,
33204870,2.9632065,0.0750981,6.247208,-0.12967932,-0.13120592,-0.5503794,-32.57464,-17.836916,-28.69374,
33204880,2.2655234,0.07809246,6.8370943,-0.56457317,0.14043629,-0.6265457,-30.726929,-18.410118,-29.41497,
33204890,1.5726312,-0.29260784,8.446258,-0.93315434,0.32632476,-0.64518785,-33.493187,-20.370775,-29.615837,
33204900,1.2252868,-0.80284476,10.296165,-1.1379511,0.41660586,-0.61536044,-31.187487,-18.863981,-29.730698,
33204910,0.9959198,-1.2046863,11.7616,-1.1813607,0.43950903,-0.56476045,-29.64994,-19.11924,-28.606148,
33204920,0.69947934,-1.4915448,12.982695,-1.0838891,0.45282483,-0.5013772,-30.57443,-18.67944,-27.860413,
33204930,0.53299356,-1.4969345,13.621688,-0.8788259,0.44030797,-0.4214825,-30.573818,-18.253426,-28.948685,
33204940,0.41980726,-1.2705619,14.065451,-0.6010585,0.40675217,-0.3394572,-31.497675,-18.400944,-28.041367,
33204950,0.3437508,-0.9952815,13.725094,-0.3291499,0.28238267,-0.26329088,-32.418842,-19.018486,-28.985718,20.0
33204960,0.40004453,-0.723794,12.961136,-0.16190356,0.07305836,-0.20709823,-30.574339,-18.246477,-28.48449,
33204970,0.7545754,-0.521376,11.917306,-0.09399301,-0.17221856,-0.18099928,-30.731022,-16.039991,-28.668694,
33204980,1.2594224,-0.3980089,10.796222,-0.10411301,-0.35810703,-0.19218454,-30.111586,-18.40078,-29.399773,
33204990,1.5612528,-0.42974898,9.9596,-0.18454039,-0.46516603,-0.21455507,-31.651073,-17.97495,-28.978706,
33205000,1.6942018,-0.48065293,9.370314,-0.29239833,-0.4598397,-0.21988139,-29.957466,-18.981133,-28.924927,
33205010,1.7415125,-0.58186185,9.1666975,-0.38001627,-0.3218881,-0.20656559,-31.804533,-18.12701,-29.135529,
33205020,1.7552865,-0.61839294,9.322404,-0.43248045,-0.13173854,-0.1865919,-31.959055,-17.251839,-29.613792,
33205030,1.6486877,-0.6070144,9.630822,-0.44206786,0.027784664,-0.17300978,-31.651594,-17.968002,-28.514503,
33205040,1.3785976,-0.57407665,10.14525,-0.39812574,0.12658787,-0.16528663,-31.188183,-18.854717,-29.11177,
33205050,1.1204847,-0.48125175,10.56985,-0.29799098,0.1438984,-0.17087927,-31.496109,-18.421791,-29.433968,
33205060,0.7539765,-0.25308245,10.885453,-0.17335513,0.026719404,-0.18499401,-31.649368,-18.72126,-29.589073,
33205070,0.6234229,-0.0057492927,10.597996,-0.058040366,-0.21935646,-0.19191822,-30.420822,-18.384602,-28.01477,
33205080,0.69109523,0.14576472,9.466132,-0.010103504,-0.5173639,-0.1815319,-31.80621,-17.525791,-28.368706,
33205090,1.0198746,0.21044266,7.8078623,-0.08147616,-0.70351875,-0.1679498,-32.41799,-18.016735,-31.009232,
33205100,1.3264959,0.27092847,6.4592075,-0.23514041,-0.59432924,-0.15676454,-32.87982,-18.164198,-30.554718,
33205110,1.3791963,0.25416014,6.132824,-0.40718046,-0.22947647,-0.1378561,-32.571957,-19.175179,-29.452003,
33205120,1.1456373,0.24397933,6.779603,-0.5235605,0.24509841,-0.11814873,-31.958864,-18.267488,-28.518684,
33205130,0.68750197,0.2643409,8.298936,-0.52196264,0.607288,-0.08166346,-31.956932,-19.306301,-28.970894,
33205140,0.35093725,0.13079298,9.696099,-0.3861415,0.7540281,-0.044911858,-32.72723,-18.000557,-29.62423,
33205150,0.23475653,0.1679229,10.522539,-0.19066566,0.6746659,-0.028932909,-31.803837,-18.136274,-29.754456,
33205160,0.12216905,0.23260082,10.734539,0.014930187,0.45016164,-0.021476064,-31.803837,-18.136274,-29.754456,
33205170,0.21199948,0.27691716,9.962595,0.15128392,0.15534997,-0.02174238,-32.57528,-18.117836,-27.761925,
33205180,0.40663213,0.34339172,9.034946,0.18936709,-0.10297643,-0.04278133,-31.803179,-18.868687,-29.436424,
33205190,0.5737167,0.33321092,8.4241,0.15794182,-0.2571733,-0.06674977,-33.340668,-18.903614,-30.248085,
33205200,0.7575697,0.2882957,8.337863,0.11160285,-0.27901125,-0.0824624,-32.418495,-19.023119,-29.295189,
33205210,0.8468013,0.36854422,8.664845,0.10654285,-0.20391014,-0.08192977,-32.26272,-19.191357,-30.837006,
33205220,0.81206685,0.45358372,8.921161,0.17631762,-0.05370799,-0.06435292,-31.494892,-18.438005,-30.517097,
33205230,0.78392,0.49790007,9.164901,0.28284395,0.11646786,-0.041982383,-33.493187,-20.370775,-29.615837,
33205240,0.7964963,0.51646507,9.279884,0.38031557,0.21234158,-0.027068697,-31.186157,-19.460567,-30.18805,
33205250,0.64917433,0.5320356,9.009195,0.44210085,0.20381945,-0.018812904,-34.108532,-20.380114,-29.631035,
33205260,0.62222517,0.6182729,8.46063,0.41893137,0.14469734,-0.010290796,-32.723347,-21.091515,-29.278816,
33205270,0.50065464,0.7811654,8.1588,0.3185303,0.093298376,-0.007361321,-33.02919,-20.686386,-31.45781,
33205280,0.5192196,0.72187734,8.310314,0.19256288,0.08291206,0.0067534195,-33.02959,-20.391567,-31.461243,
33205290,0.72223645,0.5895271,8.612743,0.061002836,0.07252574,8.9447014E-4,-33.490158,-21.71367,-30.683563,
33205300,0.7647562,0.55000174,8.915771,-0.05244773,0.056014147,-0.028133959,-31.032158,-20.328789,-29.245583,
33205310,0.61863196,0.37752727,9.65298,-0.109971955,0.04669309,-0.026003433,-34.110134,-18.3326,-30.738136,
33205320,0.58749074,0.14037488,10.445284,-0.10517827,0.035241507,-0.01641606,-35.646946,-20.113274,-29.981918,
33205330,0.5120332,0.06731281,10.857904,-0.051382467,0.042165723,0.0046228934,-31.952253,-21.10532,-30.961876,
33205340,0.42938915,0.058329757,10.88186,0.05461126,0.07066153,0.050429225,-33.494247,-19.343544,-29.937286,
33205350,0.3461463,0.0050303563,10.8609,0.14435971,0.078650996,0.11168187,-33.492023,-20.096804,-31.011856,
33205360,0.498858,-0.124924354,10.709985,0.20055236,0.06746573,0.18305454,-34.878773,-19.364555,-29.971481,
33205370,0.70187485,-0.26625758,10.755499,0.22718394,0.06560152,0.23818192,-33.488995,-21.439697,-32.07959,
33205380,1.0390384,-0.46148908,10.607577,0.23757026,0.10448364,0.28185773,-33.80051,-20.380077,-29.932907,
33205390,1.3492529,-0.5099975,10.533318,0.20534605,0.1606763,0.2933093,-33.490963,-21.124035,-30.690414,
33205400,1.3324846,-0.4692744,10.876471,0.1475555,0.21393946,0.2698735,-33.030323,-21.10545,-29.90535,
33205410,1.1216824,-0.3393197,11.461565,0.11426601,0.24456578,0.2344535,-33.3376,-19.523363,-32.252777,
33205420,0.9528012,-0.27284518,11.976593,0.11000496,0.16839945,0.20302823,-34.261524,-20.248936,-30.564949,
33205430,0.77613467,-0.34231403,11.781363,0.11373338,0.0056804456,0.18039137,-34.724316,-20.817781,-28.712692,
33205440,0.49167156,-0.4944269,11.007624,0.074584946,-0.10723748,0.17213558,-34.261177,-20.25357,-30.874413,
33205450,0.2449373,-0.6028223,10.536312,-0.07242142,-0.07501326,0.19690296,-33.02721,-20.133808,-33.9404,
33205460,-0.0047913194,-0.79745483,10.887848,-0.26976147,0.10528259,0.23471981,-33.34032,-18.908247,-30.557556,
33205470,-0.23056519,-0.95735306,11.789746,-0.42182785,0.31993318,0.27919453,-35.95429,-19.109241,-31.548843,
33205480,-0.46412432,-1.1136581,12.541927,-0.49080366,0.44190586,0.33405566,-34.568474,-20.407963,-31.035027,
33205490,-0.7599659,-1.3328444,13.021023,-0.4897384,0.4576185,0.3905146,-35.79983,-20.562468,-30.290047,
33205500,-0.90549123,-1.4053075,13.344413,-0.45005733,0.3984964,0.45283252,-34.108376,-19.369097,-31.035614,22.0
33205510,-0.6605536,-1.5885617,13.628277,-0.36377096,0.29489946,0.5239389,-34.722565,-19.972704,-31.35344,
33205520,-0.27587965,-1.8097444,13.646043,-0.21303621,0.17479104,0.5705441,-35.18673,-18.786537,-30.450127,
33205530,0.17247409,-1.9203355,13.199486,-0.04206141,0.04189941,0.56708205,-34.569885,-19.3761,-31.047012,
33205540,0.5258072,-1.876618,12.211351,0.07911231,-0.115493275,0.5074273,-32.88017,-18.159565,-30.245247,
33205550,0.553954,-1.6161097,11.347781,0.12092391,-0.23347121,0.42699987,-34.724983,-18.203794,-31.373978,23.0
33205560,0.39944568,-1.2034885,10.882458,0.12385338,-0.29126176,0.35749143,-36.417583,-17.934658,-31.419205,
33205570,0.10599955,-0.9094435,10.720763,0.14222918,-0.28779966,0.32899565,-34.111286,-17.73833,-30.435516,
33205580,-0.0664749,-0.650133,10.617161,0.19176394,-0.24279225,0.343643,-35.80229,-17.635134,-31.716888,
33205590,-0.23715274,-0.42376032,10.303352,0.2735229,-0.18846384,0.36947566,-35.034588,-17.169651,-30.929367,
33205600,-0.3814803,-0.20637059,9.857194,0.35261872,-0.14505434,0.41395038,-36.111248,-18.201643,-29.86084,25.0
33205610,-0.41801137,-0.009941384,9.22838,0.40108824,-0.13333645,0.46668094,-36.4213,-18.46407,-27.389282,
33205620,-0.19103977,0.088273235,8.07376,0.38963664,-0.14931539,0.52473783,-37.341442,-18.082176,-30.511879,
33205630,0.5527563,-0.010540251,6.668812,0.24715763,-0.15197855,0.5550978,-37.341442,-18.082176,-30.511879,
33205640,1.2145073,-0.22254011,6.0932984,0.016261768,-0.07607853,0.5218084,-36.88299,-16.587185,-29.589203,
33205650,1.5223262,-0.47885633,6.4999313,-0.2149004,0.0450952,0.44723988,-36.881424,-16.60803,-30.981804,
33205660,1.583411,-0.7489464,7.696472,-0.3722931,0.12099522,0.34976828,-38.575443,-16.17527,-29.945602,
33205670,1.5223262,-0.9399859,8.787014,-0.40052256,0.115136266,0.257623,-37.1908,-15.86639,-30.379028,
33205680,1.4630382,-1.0376017,9.263115,-0.30464888,0.09170048,0.16467875,-35.805737,-16.86566,-29.559181,
33205690,1.1659989,-0.94298023,9.431398,-0.14645723,0.05601415,0.07972397,-35.34564,-15.826794,-29.559769,
33205700,0.7437957,-0.71121764,9.169691,0.0141312415,-0.015358507,0.022732373,-36.267563,-17.013124,-29.104668,28.0
33205710,0.43118575,-0.356088,8.412122,0.12971233,-0.11629222,-9.6974097E-4,-37.501503,-14.528163,-29.318909,
33205720,0.2623045,-0.06863061,7.26888,0.17818183,-0.16689225,0.012878684,-37.347,-14.390001,-30.090485,
33205730,0.14552495,0.17870256,6.3520103,0.11799443,-0.1075038,0.043238696,-38.270958,-15.838722,-27.46569,
33205740,0.01916346,0.25475898,6.0974903,-0.023419298,0.037638355,0.080256596,-36.424057,-15.8222885,-28.193764,
33205750,-0.017966453,0.101448365,6.6352754,-0.17681724,0.17106262,0.13325346,-37.037918,-15.417195,-30.0709,
33205760,0.34135532,-0.24409941,7.5329814,-0.29612672,0.1960963,0.15509138,-35.19359,-14.64287,-29.41494,
33205770,0.78571653,-0.61839294,8.48698,-0.3576457,0.08477627,0.10608925,-37.501625,-14.816032,-28.85128,
33205780,0.8587787,-0.84835875,9.348754,-0.34299833,-0.08832906,0.015808161,-36.11682,-13.496135,-30.689293,
33205790,0.6306094,-1.0154434,10.15603,-0.2180962,-0.20976909,-0.061956078,-35.19465,-13.615639,-29.736382,
33205800,0.3635135,-0.88848305,10.574041,0.015196504,-0.2686249,-0.09764241,-36.117638,-13.774739,-29.60273,30.0
33205810,0.08204477,-0.5255681,10.381206,0.28896925,-0.35810703,-0.08219609,-38.272907,-13.786577,-28.263329,
