Date created: 2021-10-22-22-16-6-722000000
Timestamp,acc_x,acc_y,acc_z,gyro_x,gyro_y,gyro_z,mag_x,mag_y,mag_z,light
33194660,0.49706143,-0.37884507,10.937555,-0.030077195,0.0086099235,-0.0062960587,,,,
33194680,0.54826474,-0.3533931,10.348866,0.044624407,-0.078741685,-5.7026686E-4,-3.6083326,-52.299217,-25.2527,
33194700,0.70516866,-0.30338746,9.5427885,0.06113599,-0.057436418,0.009549736,-4.6838007,-53.20233,-25.423756,
33194720,0.57987654,-0.13963942,9.250455,-0.03247404,0.013669924,0.015675,-4.3749933,-52.778595,-26.968624,
33194740,0.5841969,-0.1072577,9.821861,-0.12368722,0.13577576,0.055888698,-4.1446886,-52.696754,-26.654316,
33194760,1.1258744,-0.20307684,10.716871,-0.08626985,0.1356426,0.044437118,-3.7600012,-53.198746,-26.097263,
33194780,1.174383,-0.17403167,10.697409,0.045689672,0.07944995,0.0048892084,-3.2993393,-52.384468,-26.327377,
33194800,0.72433245,0.007425837,10.158126,0.1032139,0.041100457,0.011813423,-3.4542933,-52.44429,-25.247189,
33194820,0.74529284,0.21223927,9.809584,0.036634933,-0.067955896,0.03551554,-3.91333,-53.135483,-26.643482,
33194840,1.0519142,0.22780986,10.064703,-0.0045108707,-0.2097691,0.042040274,-3.4544172,-51.791374,-25.95119,
33194860,1.6489872,0.31374764,9.801498,0.021588085,-0.32228753,0.013011842,-3.9905138,-53.567295,-25.866577,
33194880,1.9490209,0.42364025,8.96428,-0.05417878,-0.17528118,-0.022008695,-3.607356,-53.325287,-24.853882,
33194900,1.7735521,0.3227307,9.548477,-0.15125093,0.06253889,-0.035723962,-3.3773441,-52.1541,-25.635544,
33194920,1.5923939,0.114922926,10.503973,-0.1544467,0.1289847,-0.019212378,-4.2227697,-51.596985,-26.978527,
33194940,1.9301565,-0.183913,11.250465,-0.042327724,0.10301891,-0.03798765,-3.2231646,-52.590515,-25.394512,
33194960,1.9978286,-0.23811072,10.993249,0.10254811,0.02099361,-0.115485564,-3.8371782,-52.762318,-26.413761,
33194980,1.7151622,-0.11923508,10.598894,0.18404078,0.03271151,-0.17953454,-3.7620306,-51.652107,-26.1926,
33195000,1.4854957,-0.050065648,10.350064,0.2121371,0.0019520256,-0.21801718,-3.760131,-52.97995,-26.254559,
33195020,1.0626938,0.11192859,10.087759,0.19922078,-0.04651747,-0.23333035,-3.6849852,-51.86974,-26.033401,
33195040,0.909982,0.31793976,10.201842,0.19629131,0.025654137,-0.19218454,-3.2987242,-52.89924,-26.244019,
33195060,0.9261515,0.28080985,10.681238,0.28071344,0.022192031,-0.18046665,-4.991396,-52.701492,-26.133648,
33195080,0.9270498,0.268533,9.706579,0.29269764,-0.069331855,-0.21686314,-3.3766718,-52.959053,-25.239296,
33195100,0.39046264,0.40447643,9.386183,0.22185764,-0.043188516,-0.21961507,-2.6833925,-52.817352,-26.307041,
33195120,0.09432159,0.40208092,9.787426,0.21200395,0.094496794,-0.11708346,-2.0695553,-52.643234,-25.133057,
33195140,0.20870571,0.26643696,10.124889,0.31213874,0.20421894,-0.027867645,-3.2241173,-52.143654,-25.090176,
33195160,0.09971141,0.38890576,10.210827,0.4277198,0.0568131,-0.05090397,-2.6085892,-52.6433,-24.60479,
33195180,-0.021559672,0.89105797,8.980149,0.5002909,-0.24385752,-0.09431346,-2.99166,-54.261368,-23.97652,
33195200,0.004191721,1.2138487,7.8503823,0.351154,-0.27488333,-0.077136084,-4.0687275,-54.057755,-24.08305,
33195220,0.18475091,1.1446793,8.469614,0.13543813,-0.04611799,-0.030264486,-2.6082191,-53.227142,-24.21111,
33195240,0.20032154,0.9224986,9.726641,0.0671281,0.08504258,-0.053833447,-3.3003302,-54.035664,-23.367756,
33195260,-0.040723503,1.0374817,9.297551,0.14902024,0.017930975,-0.09657715,-4.0689106,-53.548775,-24.553246,
33195280,0.036102924,1.1635008,8.296712,0.03397177,-0.008700607,-0.12653768,-3.6094513,-52.79083,-23.62201,
33195300,-0.29224876,1.1243176,8.688201,-0.16097145,0.0434973,-0.14424768,-2.5323248,-52.85051,-23.74929,
33195320,-0.851593,1.088086,9.19724,-0.25591305,0.08544205,-0.084060304,-2.5313463,-53.44246,-23.897175,
33195340,-0.66474557,0.96202403,9.512844,-0.29839045,0.17705472,0.05948396,-2.6850777,-54.459282,-22.728489,
33195360,-0.053000327,0.63623893,10.2782,-0.26190513,0.3252595,0.14736821,-2.531725,-53.726852,-23.197449,
33195380,0.032039158,0.54191697,10.994449,-0.10384669,0.2935679,0.13897926,-2.685938,-53.57946,-23.048233,
33195400,0.23475653,0.5691656,10.217714,-0.026082456,-0.04172378,0.091974504,-1.9956207,-52.4576,-22.657143,
33195420,0.8806374,0.33261204,9.334082,-0.1611046,-0.282207,-0.016682375,-2.2249928,-53.34787,-22.807297,
33195440,0.5689258,0.4664594,10.229092,-0.20770988,-0.10457433,-0.06475239,-2.1490278,-52.89984,-22.501068,
33195460,0.47669983,0.47514305,10.539007,-0.07455195,0.07825153,-0.024671853,-2.7624435,-54.38212,-22.421776,68.0
33195480,0.54227614,0.34009793,10.606979,0.033305984,0.048290987,-0.03266133,-2.994851,-52.9887,-22.675838,
33195500,0.69858104,0.364951,10.164413,0.117728114,-0.13733117,-0.09058504,-2.7649355,-52.684593,-22.286732,
33195520,0.6162365,0.6676796,9.540392,0.12451918,-0.11482749,-0.13812241,-2.6105127,-53.48606,-21.809322,
33195540,0.30961522,1.0581425,10.009906,0.108806536,-0.07075221,-0.15383504,-1.7642078,-53.18651,-22.333412,
33195560,0.1287566,1.2911028,9.984454,0.15021865,-0.18833067,-0.15796293,-2.5322704,-53.140694,-23.436398,
33195580,0.0050900225,1.5126847,9.780838,0.17924708,-0.22281857,-0.11308873,-2.3031416,-53.260277,-21.804287,
33195600,0.42639482,1.55221,9.683223,0.20814234,-0.13333644,-0.033593435,-3.303567,-52.979477,-21.755043,
33195620,1.0686824,1.5096903,9.445171,0.15314813,-0.014160087,-0.0967103,-2.3056183,-53.01021,-19.872688,61.0
33195640,0.5368863,1.653419,10.725555,0.09256126,-0.030405354,-0.22747138,-2.996704,-52.81929,-21.207588,
33195660,0.22936669,1.7438483,10.974984,0.20641132,-0.22707963,-0.2449151,-2.3067255,-52.199463,-19.882107,
33195680,0.33057567,1.5845491,10.043144,0.24396184,-0.17701223,-0.19538033,-3.843668,-53.761337,-19.283192,
33195700,0.47160947,1.1380918,10.52134,0.19003287,0.07412363,-0.12893453,-2.9970894,-53.537804,-19.961163,
33195720,0.58210087,0.8332671,11.655899,0.19562551,0.043097835,-0.13386136,-3.2295513,-53.229115,-18.809784,
33195740,0.9135753,0.78176427,11.67656,0.22585237,-0.18992856,-0.20430191,-2.7661572,-54.47741,-18.938568,
33195760,0.6898975,1.1482725,11.3657465,0.24036658,-0.33653548,-0.31189352,-3.4623604,-52.915794,-17.348942,
33195780,0.1572029,1.2946961,10.190166,0.14342761,-0.3123007,-0.29338458,-3.7686539,-52.866447,-18.67263,56.0
33195800,0.18594864,0.8808772,9.784431,-0.20145147,-0.041057993,-0.13519293,-3.4611778,-53.65516,-17.495117,
33195820,0.5401801,0.027188558,11.341193,-0.5170358,0.20315367,0.03631448,-3.3859272,-52.184532,-17.819805,
33195840,1.268705,-0.9241159,12.860525,-0.5378084,0.22845368,0.12406556,-3.309763,-52.318035,-16.965157,
33195860,1.7885666,-1.5954059,13.359041,-0.31809783,0.17439155,0.06361186,-3.311243,-50.92344,-17.368256,
33195880,2.1235912,-1.7011491,12.190391,-0.15577827,-0.17608014,-0.09311504,-3.3881054,-51.214794,-17.057262,52.0
33195900,2.2047381,-1.376562,10.104227,-0.2611062,-0.37009126,-0.22827034,-3.7720318,-51.51892,-17.295437,
33195920,1.5420889,-0.80853397,10.141958,-0.3804157,0.05867731,-0.19165191,-5.464196,-51.255577,-17.72749,
33195940,0.942321,-0.5037094,11.648712,-0.21130513,0.3831832,-0.07180977,-4.542655,-50.787758,-16.936165,
33195960,1.1534226,-0.3782462,11.4085655,0.054744415,0.21260786,-0.02879975,-4.389162,-50.346672,-17.169598,
33195980,1.5621511,-0.15965877,10.016493,0.1532813,-0.026676932,-0.06555134,-4.3885994,-50.57126,-17.399132,46.0
33196000,1.9912412,-0.039585426,8.929845,0.10055075,0.0577452,-0.14398137,-4.623601,-49.215652,-15.253971,
33196020,1.4525578,0.30177027,9.085251,0.0033454471,0.22033103,-0.20603296,-3.4687319,-49.502228,-15.840988,
33196040,1.0420327,0.48502436,8.901399,-0.088533536,0.15907839,-0.16781662,-4.006686,-50.167946,-15.459747,
33196060,1.1725863,0.30027306,8.357325,-0.25151885,0.16174155,-0.1413182,-6.083107,-49.84252,-16.28899,
33196080,0.92345667,0.08947098,9.580815,-0.2915994,0.26174316,-0.122010306,-5.236143,-50.275383,-16.495056,
33196100,0.60845125,0.15295117,10.3389845,-0.11409985,0.15321945,-0.094047144,-5.0084743,-48.6388,-15.734524,
33196120,0.5572479,0.24068555,9.713465,0.067660734,-5.7797506E-4,-0.08512556,-4.7767735,-49.516277,-15.486446,42.0
33196140,0.7434963,0.32482675,8.619032,0.11027127,-0.088994846,-0.07034504,-5.7795763,-46.743423,-16.394707,
33196160,0.78811204,0.54012036,8.329778,0.05301336,-0.0454522,-0.07101083,-5.933399,-48.193207,-14.601955,
33196180,0.7129539,0.7566117,8.640291,0.045556515,0.0055472907,-0.047441863,-6.0095625,-48.059708,-15.456596,
33196200,0.64258677,0.9141145,9.110404,0.15234919,0.020594139,-0.007095006,-5.624135,-48.35448,-15.830513,
33196220,0.8584793,0.94196194,9.280183,0.33885908,-0.08655361,0.0048892084,-5.856739,-47.754448,-14.914654,
33196240,1.119287,1.088685,8.242043,0.48324665,-0.1284096,-0.012554482,-5.7788715,-48.634262,-14.670387,
33196260,1.1597106,1.4483062,8.028845,0.44503033,-0.019486401,-0.005896585,-6.627136,-47.74991,-13.850521,
33196280,1.4301003,1.433035,8.703471,0.3219924,-0.031603776,-0.03186238,-5.550311,-47.58847,-13.98037,
33196300,1.2381626,1.4054871,9.17598,0.28164554,-0.10830275,-0.10469978,-5.2437344,-48.220505,-12.185635,
33196320,0.8593775,1.3755436,9.479008,0.27432185,-0.111498535,-0.108428195,-6.1655855,-49.33545,-11.886127,
33196340,0.77044535,1.1937866,9.790719,0.20454709,-0.13906223,-0.0831282,-6.088971,-49.11317,-11.886791,
33196360,0.4832874,1.2542725,10.959115,0.1801792,-0.011097452,0.0036907876,-6.0900335,-48.085938,-12.208244,
33196380,1.1019198,1.274634,11.3723345,0.2606066,0.006346238,0.14004453,-7.3980875,-48.027443,-11.931931,
33196400,1.9202752,1.2327131,10.949532,0.28257766,-0.10177801,0.11900556,-7.3200674,-49.27114,-11.373909,
33196420,1.898074,1.1515235,10.792115,0.173255,-0.2362675,-0.011356059,-7.3988104,-47.873085,-11.46944,
33196440,1.6307216,1.118329,10.807899,0.041428618,-0.19671962,-0.04943923,-7.6289883,-48.17372,-11.626446,
33196460,1.2806824,1.0638318,11.107634,-0.054578252,0.07159363,-0.010557113,-7.7046843,-49.13189,-11.539852,
33196480,1.130965,0.854527,11.566069,-0.10198248,0.19236788,0.014343422,-6.399638,-48.426697,-10.045296,38.0
33196500,0.88572776,0.4457984,10.936656,-0.20331566,0.03577414,-0.055165023,-7.3223457,-48.227703,-10.612228,
33196520,0.10779615,-0.02341595,10.041046,-0.50771475,-0.05770273,-0.07540503,-8.322373,-48.67584,-10.012856,
33196540,-0.29554254,-0.787873,10.905517,-0.82116854,0.022058874,0.032586057,-8.013134,-48.692017,-11.397854,
33196560,-0.1293562,-1.1139574,12.966526,-0.68534744,0.12751997,0.18811454,-8.937004,-46.95796,-12.833794,
33196580,0.6704341,-1.4196806,13.035396,-0.07122299,0.08504258,0.21567823,-7.860018,-48.101204,-11.4782715,33.0
33196600,0.5635359,-0.93579376,10.229392,0.3555482,-0.083135895,0.08491712,-10.013247,-46.982407,-13.401958,
33196620,0.140734,-0.15037632,7.8479867,0.20587867,-0.3458565,-0.040384494,-9.783737,-46.8176,-12.469574,
33196640,-0.38417524,0.36435214,7.546456,-0.16097145,-0.47515288,-0.041183434,-8.63127,-46.782722,-11.280579,
33196660,-0.5937796,0.19457261,8.575014,-0.23926832,-0.00563797,0.14363977,-9.705217,-47.489037,-13.078899,
33196680,-0.34405097,-0.20966439,9.964392,-0.044191934,0.37692478,0.28492033,-10.089739,-47.85761,-12.697285,30.0
33196700,0.20631023,-0.3620767,9.779042,0.20920762,0.0830452,0.28372192,-10.476082,-46.39283,-12.956001,
33196720,0.9773548,-0.31805983,7.774626,0.2307792,-0.272087,0.1714698,-10.321354,-46.981285,-13.022724,
33196740,0.93782943,0.061324097,7.417699,0.0620681,-0.20763858,0.0150092095,-11.320774,-47.87165,-12.418213,
33196760,-0.004491888,0.5314368,7.5608287,-0.007440345,0.07625416,0.006487106,-10.553892,-45.8032,-12.887386,
33196780,-0.60755354,0.63504124,8.412122,-0.03473772,0.4576185,0.17253506,-11.553516,-46.546154,-12.284588,28.0
33196800,-0.12097203,0.23888892,9.456551,0.038499143,0.4717332,0.32646564,-11.245628,-46.761444,-12.197052,
33196820,0.76715165,0.051742196,9.317015,0.1307776,0.10568206,0.29823613,-11.169361,-46.53453,-11.888256,
33196840,1.1222814,0.16313195,8.941223,0.18031237,-0.22428331,0.15162925,-11.937997,-47.132362,-11.668301,
33196860,0.9261515,0.40687186,8.270789,0.21719712,-0.14492117,0.07972396,-11.478759,-46.58858,-10.270302,
33196880,1.0144848,0.6413293,7.7156367,0.08483811,0.08184679,0.06214712,-11.478355,-46.8834,-10.266876,
33196900,0.6842082,0.6389339,8.769947,-0.09066406,0.27452633,0.07173449,-12.092615,-47.124275,-10.975807,
33196920,0.5045473,0.4577758,10.135069,-0.14512564,0.2128742,0.091308706,-13.0172205,-46.538223,-10.309151,26.0
33196940,0.4251971,0.29368556,11.322029,-0.027147721,0.100755215,0.07652818,-11.709042,-45.87473,-11.5997925,
33196960,0.36710674,0.2212223,10.916595,0.18390761,0.057345726,0.102627136,-10.706539,-47.051563,-12.41243,
33196980,0.9689707,0.04036366,9.470624,0.09189548,0.08517574,0.14750136,-11.55299,-47.49389,-11.577164,
33197000,1.3067331,-0.12047561,10.598765,-0.16882777,0.20701526,0.1214024,-11.478508,-46.08539,-11.127323,
33197020,1.3229027,-0.047071293,12.344002,-0.10690931,0.2926358,0.1055566,-12.398842,-47.43766,-11.908379,
33197040,1.6513826,0.04186085,12.753028,0.12025812,0.08064837,0.029390268,-11.167923,-47.711487,-11.71983,
33197060,2.1310773,0.15205285,11.497798,0.239035,-0.14478803,-0.12480663,-11.55472,-46.602486,-11.123234,
33197080,2.0208852,0.36255553,10.239872,0.10827391,-0.057702728,-0.2730114,-11.783011,-48.158417,-11.420422,23.0
33197100,1.7555859,0.31374764,9.275093,-0.24166515,0.14576261,-0.34797937,-12.322893,-47.351204,-11.133671,
33197120,1.5657444,-0.18930283,10.245263,-0.62329584,0.28011894,-0.38579622,-12.015894,-46.54158,-11.52232,
33197140,1.105513,-0.7405623,11.59152,-0.6770916,0.3461653,-0.34917775,-11.092274,-46.969795,-11.494385,
33197160,0.8803381,-1.2028897,12.023905,-0.5314169,0.39809686,-0.25210562,-11.858688,-47.380104,-13.520634,
33197180,1.0878463,-1.2909235,12.245188,-0.2909336,0.29689685,-0.23785771,-9.475332,-47.473953,-12.299534,
33197200,1.040835,-0.8797995,11.878679,-0.00903824,-0.12987433,-0.34971038,-11.860058,-46.56588,-13.297951,
33197220,0.7384059,-0.17163618,9.897918,0.12278812,-0.5288155,-0.40683514,-11.704505,-47.382404,-13.826305,21.0
33197240,0.49646255,0.22571382,7.801575,-0.07828037,-0.4696934,-0.29511562,-10.245268,-46.24539,-13.18412,
33197260,0.6003665,0.04156141,7.621614,-0.41996366,-0.0037737675,-0.11987978,-10.550996,-47.36142,-13.565712,
33197280,1.0031062,-0.28542143,9.278985,-0.519699,0.1995584,-0.035324488,-10.935462,-46.645264,-14.589535,
33197300,1.2103152,-0.4528055,9.984155,-0.38201362,0.15601575,-0.12187715,-11.012888,-46.712032,-14.049007,
33197320,0.76295954,-0.03090182,9.806889,-0.14539197,-0.19312435,-0.20057349,-9.7810135,-46.998596,-14.711494,
33197340,0.82075036,0.20086072,7.9324274,-0.03620246,-0.38780123,-0.19910875,-9.704618,-46.99048,-14.245392,
33197360,0.6330049,0.53353286,6.643959,-0.16021688,-0.18544556,-0.1843726,-9.395485,-47.367073,-15.084549,
33197380,0.14732157,0.74792814,7.8210382,-0.24472779,0.024855189,-0.11774926,-9.937117,-46.03003,-13.875385,
33197400,0.18115771,0.73086035,8.86307,-0.15178354,-0.004040084,-0.035191327,-8.7808275,-46.48023,-15.543819,
33197420,0.7422985,0.5931204,8.48249,0.07618284,-0.12574643,-0.018546587,-9.088299,-46.63231,-15.549709,
33197440,1.0677843,0.47214866,8.279773,0.15115076,-0.082470104,-0.06382029,-9.165444,-46.340973,-15.709763,
33197460,1.3312869,0.38531256,8.55076,0.16499919,-0.053441677,-0.09750926,-7.934437,-47.556744,-14.426952,
33197480,1.4115354,0.36884367,8.881935,0.14222918,-0.110300116,-0.15330243,-7.935361,-47.254974,-13.966179,
33197500,1.066287,0.47993395,9.739217,0.14782183,-0.06609168,-0.18286347,-8.396558,-46.614853,-15.068405,
33197520,0.9911288,0.56886613,10.34198,0.24502711,-0.14585328,-0.17447454,-7.243498,-46.515533,-14.499203,
33197540,1.0471232,0.8072163,9.670646,0.34849083,-0.30031648,-0.16195768,-7.9339695,-47.273506,-15.204041,
33197560,0.97307724,1.1713717,8.857253,0.23543973,-0.3509165,-0.18938823,-7.705326,-46.662994,-14.044689,
33197580,0.407231,1.4339334,8.920263,-0.06669563,-0.26249966,-0.16049294,-7.8582363,-46.967094,-14.509266,
33197600,0.031140866,1.2635548,10.134471,-0.33687308,-0.0053716637,-0.012687642,-7.1644087,-48.352345,-14.166439,
33197620,0.18564922,0.8224875,12.352084,-0.30025464,0.30701688,0.165744,-6.6260147,-47.258297,-15.481216,23.0
33197640,0.69199353,0.5332334,13.6471405,-0.020756146,0.2517563,0.25309563,-7.704171,-47.257263,-14.347305,
33197660,1.7235464,0.23110364,12.173921,0.2539487,-0.09338906,0.203694,-6.5471315,-49.38182,-14.603458,
33197680,2.1331735,0.4628662,9.677533,0.08190863,-0.1451875,0.032186583,-6.009535,-48.2048,-15.300152,
33197700,1.284575,0.6260582,10.44289,-0.35831153,0.018463608,-0.09138399,-7.5480347,-47.50268,-16.120373,
33197720,0.3392593,0.32482672,11.727764,-0.5798863,0.057612043,-0.040251337,-5.1619854,-49.44146,-15.032604,
33197740,-0.2350567,-0.50490713,12.185001,-0.6346142,0.10381786,0.09730081,-5.471883,-47.317963,-15.683964,
33197760,-0.47580227,-1.2786467,12.688949,-0.6298206,0.015267821,0.25376138,-4.545865,-48.50176,-16.88533,
33197780,-0.02485346,-1.9919004,13.244402,-0.48840684,-0.095253274,0.3757341,-4.6243477,-47.10717,-17.21296,26.0
33197800,0.4665191,-2.15629,13.693852,-0.14978617,-0.096318536,0.3566925,-4.8546305,-47.768227,-16.824127,
33197820,0.27218586,-1.7304937,12.724282,0.31160608,-0.30830598,0.26814246,-4.007867,-48.053677,-17.031902,29.0
33197840,0.18834414,-1.1627654,9.611958,0.4849777,-0.34013072,0.26854193,-3.7760553,-48.13662,-17.876385,
33197860,0.38118017,-0.9843022,8.177964,0.31187236,-0.052243255,0.30928826,-5.467387,-48.608,-18.145142,
33197880,0.6479766,-0.9720254,8.474403,0.16233602,0.23631,0.2937088,-3.9295082,-48.795345,-17.408276,
33197900,0.49736086,-0.7669126,8.963382,0.099751785,0.15495051,0.1942398,-5.0823298,-49.693836,-17.1944,
33197920,0.48119137,-0.51868117,8.408829,0.081242844,-0.07048589,0.10102924,-4.0045576,-49.038475,-18.800209,
33197940,0.30871692,-0.30099204,7.6407776,0.04169493,-0.046117984,0.08518344,-4.545684,-48.069954,-17.58677,
33197960,0.17307296,-0.27074906,7.907275,0.03543651,0.2176679,0.12180188,-4.544715,-49.530148,-16.64125,
33197980,0.20151925,-0.36357388,8.435178,0.12025812,0.17465787,0.101961344,-4.004979,-49.105232,-18.335155,
33198000,0.19972265,-0.37525186,7.7318063,0.1988213,-0.05131115,0.059350803,-3.6966105,-49.109825,-18.946491,
33198020,0.051801864,-0.28721803,7.5907717,0.19695711,-0.0013769213,0.08305291,-3.3096085,-49.93211,-20.08807,
33198040,0.21828762,-0.37974337,8.149218,0.21986027,0.13484365,0.18465242,-3.2341003,-50.273987,-18.379826,
33198060,0.62761503,-0.49682242,8.499557,0.2840424,0.12658785,0.20262875,-3.9252768,-50.51603,-19.090656,
33198080,0.73151886,-0.45070943,8.358523,0.32944924,0.0191294,0.09330608,-4.3113737,-50.357086,-17.941368,
33198100,0.36111802,-0.13181135,8.672331,0.33517504,-0.12508065,0.016873423,-3.1549711,-50.95353,-19.530724,
33198120,0.2585402,0.042759147,8.947938,0.31586713,-0.25610805,0.042306587,-2.0019255,-50.781666,-19.039738,27.0
33198140,0.33177346,0.08078737,9.247246,0.3492898,-0.095253274,0.12672871,-2.8466272,-51.753822,-19.126873,
33198160,0.14582439,0.33800185,9.585308,0.36739928,0.11047575,0.1942398,-2.7707787,-51.593666,-18.353024,
33198180,0.38656998,0.5029904,9.755386,0.27006078,-0.018154822,0.22579823,-2.001915,-51.288334,-18.414818,
33198200,1.2657106,0.15504721,9.793415,0.10534444,-0.21269858,0.20356084,-4.1552725,-52.700554,-17.05914,
33198220,1.8909307,-0.37495244,10.035358,-0.086536154,-0.16782434,0.12539715,-4.001569,-52.913544,-16.66594,
33198240,2.011902,-0.7453532,11.216029,-0.19972041,0.0155341355,0.050029747,-3.7728748,-51.652435,-16.365326,
33198260,2.1298797,-1.0474831,11.861611,-0.21383514,-0.025212195,-0.036922388,-3.157114,-52.01046,-16.268486,
33198280,2.2068338,-1.0016695,12.856632,-0.09532459,-0.07008642,-0.14557926,-3.8464012,-53.073673,-17.666191,
33198300,2.1322749,-0.8082346,12.512881,0.17139079,-0.20297803,-0.2378577,-3.8466024,-52.926266,-17.667908,
33198320,1.8529024,-0.3956134,10.268019,0.1627355,-0.07514642,-0.26342404,-3.230895,-52.994106,-17.883953,29.0
33198340,1.6807272,-0.38064167,9.45146,-0.1870704,0.1188647,-0.22840351,-2.46101,-53.498367,-17.858963,
33198360,1.8011001,-0.8917768,9.908398,-0.5862779,0.15481734,-0.20576665,-1.3084488,-52.596397,-17.840736,
33198380,1.6567725,-1.3040986,11.079487,-0.72050107,0.2417695,-0.18459453,-2.5413437,-51.500244,-17.265041,
33198400,1.484298,-1.5412511,12.335017,-0.5408711,0.32033265,-0.18925506,-2.0776787,-51.883766,-18.719334,
33198420,1.3636258,-1.3906353,12.415565,-0.17375462,0.08650732,-0.2258735,-2.1560202,-50.780525,-18.811436,33.0
33198440,1.1731852,-0.7618221,10.7480135,0.042227566,-0.19791803,-0.23998822,-1.1549892,-51.069435,-19.402252,
33198460,1.3357784,-0.35788465,8.632505,-0.050317205,-0.2664944,-0.2097614,-0.15561676,-50.82967,-19.148022,
33198480,1.2621174,-0.24439886,8.104004,-0.28467515,-0.07448063,-0.20922875,-0.30923748,-51.051964,-19.071888,
33198500,0.4943665,-0.030901814,8.539083,-0.39564013,0.07146047,-0.15720838,-0.92405224,-50.200005,-20.644688,
33198520,0.5922817,-0.094082564,9.22928,-0.39839202,0.13084891,-0.030131329,-0.99846554,-50.596333,-22.421741,37.0
33198540,1.201931,-0.23990732,9.254431,-0.26030728,0.1606763,0.029123953,-0.1555891,-49.599857,-20.709908,
33198560,1.1582135,-0.011738,8.07436,-0.20624514,0.13271311,-3.039511E-4,-1.0771685,-49.415913,-22.282608,
33198580,0.5829992,0.32662332,7.673716,-0.31130677,0.13257997,-0.0016355305,-0.69524765,-48.14436,-21.436623,
33198600,0.45693716,0.27751607,8.38697,-0.36763257,0.28278214,0.09943135,0.5351076,-48.193596,-21.01854,
33198620,0.97046787,-0.18570963,9.804494,-0.23234409,0.33897477,0.12606293,0.30708027,-49.318882,-22.094532,40.0
33198640,1.3052359,-0.24200338,9.688612,0.041162305,-0.0039069243,-0.02733501,0.61298084,-48.20517,-21.867672,
33198660,0.9252532,0.20355564,8.260906,0.24396184,-0.25277913,-0.17940138,1.6896887,-48.331604,-21.5299,
33198680,0.161395,0.81979245,7.5760994,0.2654003,0.053617306,-0.1378561,1.074316,-48.195854,-21.701546,
33198700,-0.022072984,1.0361983,8.394241,0.23397501,0.26667002,0.034849744,0.3045454,-47.83784,-21.647453,
33198720,0.7039709,0.76918805,8.689998,0.22864869,0.13950418,0.16361347,0.92094326,-48.349068,-21.93573,
33198740,1.5477781,0.32093406,9.071776,0.22065921,0.05667994,0.13591662,0.6885643,-47.10075,-22.033348,
33198760,1.7981057,0.17990029,9.5365,0.26020712,-0.051577464,-0.010557113,0.765234,-47.168655,-21.721127,
33198780,1.2076201,0.46616,9.247845,0.25940818,-0.18513487,-0.11468662,2.4586039,-48.750576,-20.732098,
33198800,0.7228353,0.84284896,9.174482,0.18483973,-0.12880906,-0.057428714,1.918478,-47.578316,-20.681728,
33198820,0.9207617,0.80512017,9.262517,0.07325336,0.072126254,0.08598239,2.0737162,-48.10118,-21.29087,
33198840,1.2375638,0.39369676,10.406957,-0.008239293,0.26653686,0.16827402,3.1474771,-46.885876,-19.962734,
33198860,1.3432643,0.08408116,11.191176,-0.021288771,0.16134208,0.14190872,3.3026552,-47.552673,-20.338062,
33198880,1.4588461,0.0044314917,11.189079,-0.046322465,0.09130101,0.08824607,2.5330858,-47.34207,-20.28226,
33198900,1.4495636,-0.00874364,12.148769,-0.024484564,0.16986418,0.002226051,2.609313,-46.897522,-20.20813,
33198920,1.1501287,-0.16145538,12.197278,0.07192179,0.026319928,-0.09710977,3.1466265,-46.51272,-19.65755,44.0
33198940,0.5302987,-0.2312237,11.736746,0.09282759,-0.052509576,-0.19298348,3.992052,-45.694923,-20.032902,
33198960,-0.42789274,-0.096478045,10.658481,-0.029145092,-0.08273642,-0.20869613,4.2214327,-45.311314,-19.257816,
33198980,-1.2201972,-0.018924423,10.432709,-0.3557815,0.028983086,-0.014951324,4.837372,-45.23754,-19.862411,
33199000,-0.41711307,-0.7863758,10.915397,-0.6396742,0.17292683,0.24417402,4.2984886,-44.660706,-20.19202,
33199020,0.535988,-1.7442677,11.924192,-0.7862811,0.3227295,0.29024667,4.7577486,-43.321228,-19.8092,49.0
33199040,0.4236999,-2.050889,13.310576,-0.6294211,0.30328846,0.18664978,5.0641575,-42.141922,-20.124763,
33199060,0.057491116,-1.7667254,13.062644,-0.251652,4.8728846E-4,0.06281291,5.757348,-41.999058,-21.115143,
33199080,-0.20301718,-1.3023021,11.762497,0.039830722,-0.25051543,-0.006961847,5.526992,-42.731503,-20.570713,54.0
33199100,-0.49945763,-0.8753079,10.085961,0.13024497,-0.36330017,-0.0050976365,6.371558,-41.033882,-21.265808,
33199120,-0.76625407,-0.6698957,8.953199,0.024917036,-0.3261491,0.088379234,6.371319,-41.60962,-20.330559,
33199140,-0.19762735,-1.0157429,8.467518,-0.13327459,-0.037595883,0.24377456,6.3709736,-40.23008,-21.739422,
33199160,0.4799936,-1.4505223,9.855697,-0.14259565,0.2170021,0.25456035,6.9085484,-39.848755,-21.42094,
33199180,0.65456414,-1.4310589,9.995534,0.054344937,0.078251526,0.13098978,7.67597,-38.800583,-21.104462,61.0
33199200,0.41831008,-1.0402966,8.616635,0.21559921,-0.11123222,-0.010157637,6.9827614,-37.93011,-21.36393,
33199220,0.06258151,-0.58096355,7.2242637,0.19908762,-0.047715884,-0.06848082,8.137569,-38.36062,-21.717129,
33199240,-0.081746064,-0.285122,6.9406996,0.057807043,0.089569956,-0.06275502,7.905861,-37.917263,-21.418503,
33199260,-0.41493145,-0.23751186,7.4446054,-0.037267726,0.1616084,-0.031063432,8.215044,-37.643253,-23.11639,
33199280,-0.7108586,-0.33303156,7.903382,-0.035004042,0.22472526,0.040575534,8.830643,-38.505627,-22.239887,
33199300,-0.66803944,-0.5794664,8.891518,0.06832652,0.102619424,0.10102923,8.366482,-36.885345,-21.88329,
33199320,-0.21289851,-0.5231727,8.73641,0.22065921,-0.16942224,0.13658242,9.058325,-36.941593,-21.40113,
33199340,0.4991575,-0.41986766,7.665331,0.233975,-0.20976911,0.12965819,9.751873,-37.31003,-22.07605,
33199360,0.5347902,-0.20427458,7.9614725,0.1491534,0.037638355,0.09636871,10.2885895,-36.98967,-20.905682,
33199380,0.042519372,-0.06922947,9.265212,0.16446656,0.102885745,0.110882916,10.520632,-37.365116,-21.592,65.0
33199400,0.14702213,-0.10755713,9.724245,0.24755712,-0.047715884,0.12007082,10.981527,-36.409218,-22.210667,
33199420,0.3290785,-0.16205427,9.506855,0.27458817,-0.073681675,0.09530344,11.056915,-35.664055,-21.75312,
33199440,0.29164916,-0.30398637,9.879652,0.21173762,-0.1049738,0.08491712,12.36479,-36.58847,-20.7813,
33199460,0.4734061,-0.661212,10.16621,0.06859284,-0.1470517,0.058551855,12.442905,-36.96509,-21.394054,
33199480,0.49646258,-0.9351949,11.183691,-0.065497205,-0.13067327,0.039377116,12.058535,-36.756763,-21.87032,
33199500,0.60785234,-1.1223418,11.337001,-0.04658878,-0.13080643,0.10289345,11.673916,-36.617508,-22.036263,
33199520,1.4417783,-1.5011266,11.175905,-0.10358037,-0.046783783,0.17852715,13.826036,-35.550644,-21.84032,
33199540,2.3715234,-1.5684996,12.659005,-0.011568241,0.026719399,0.07373186,13.134056,-35.203053,-22.557999,69.0
33199560,2.53771,-1.341528,12.454492,0.18910077,-0.23347118,-0.16009349,12.366034,-35.37487,-23.42632,
33199580,2.1679077,-0.7567318,10.28808,0.13676971,-0.46636444,-0.3888588,13.135485,-35.87334,-23.014496,
33199600,1.550473,-0.6153985,8.166885,-0.33167994,-0.26822543,-0.4784741,12.904083,-35.216976,-23.260002,
33199620,0.48478457,-1.2112739,9.678133,-0.8004403,0.22290544,-0.42157128,14.363028,-34.365517,-21.995457,
33199640,-0.17606804,-1.9397988,12.195181,-0.95765543,0.44163954,-0.266753,14.131958,-32.70045,-23.800274,76.0
33199660,0.32398808,-2.7785158,13.872017,-0.78002274,0.4758611,-0.10310189,14.440901,-33.002182,-24.56292,
33199680,1.160609,-2.9435043,14.001971,-0.26297042,0.33391476,-0.096843466,15.745661,-32.148422,-22.992706,83.0
33199700,1.5911962,-2.1281433,11.638832,0.26446816,0.024189401,-0.23945561,15.669394,-32.37534,-23.301502,
33199720,1.471123,-1.0513756,8.316302,0.3279845,-0.24638753,-0.4233467,16.286673,-32.97069,-24.285221,
33199740,0.43208405,-0.20397514,7.3584104,-0.07242142,-0.28939754,-0.45823407,17.51672,-31.858028,-25.041336,
33199760,-0.426695,-0.08030856,8.954998,-0.3954626,0.0052809753,-0.21841665,18.438877,-30.9642,-25.338276,
33199780,0.15031593,-0.6339636,10.681238,-0.3276852,0.25175634,0.07572923,18.131123,-30.53359,-25.815212,89.0
33199800,1.0570045,-0.9106413,10.285685,-0.06842668,0.09103469,0.15855348,17.82445,-30.76864,-26.439178,
33199820,1.3779988,-0.76272047,9.050218,0.08923232,-0.16076697,0.09556976,18.589603,-28.749573,-25.282791,
33199840,1.1020908,-0.4072486,8.181728,0.17685024,-0.028807461,0.07173449,18.823517,-30.307762,-26.187515,
33199860,1.0333493,-0.17043844,7.842597,0.13943286,0.1397705,0.06614186,19.514517,-29.122616,-26.49358,
33199880,0.78182393,-0.03299786,7.881823,0.049684413,-0.00151008,0.028191848,19.51578,-30.297256,-26.170418,
33199900,1.0558069,-0.120133385,7.7216253,-0.01822614,-0.08486695,0.013544474,20.362453,-29.206646,-28.019161,
33199920,1.1842642,-0.20816723,8.147121,-0.058572996,0.02938256,-0.03838712,19.515736,-29.138832,-27.576714,
33199940,0.9764566,-0.032698426,9.0678835,0.040496513,-0.018687453,-0.059825547,20.362347,-28.626274,-28.644947,97.0
33199960,1.2148067,-0.15097517,8.808873,0.23304291,-0.027209563,-0.0548987,20.362616,-29.136414,-28.252117,
33199980,1.3019422,-0.17133674,8.83133,0.33464244,0.06706626,-0.04650975,20.97858,-29.20773,-28.700264,
33200000,1.8340378,-0.2270316,8.83163,0.35648033,0.047891513,-0.058493968,20.902346,-29.145615,-29.399319,
33200020,2.226597,-0.29530275,8.9684725,0.28177872,-0.06848852,-0.2169519,20.978186,-29.419579,-28.078766,
33200040,2.005614,-0.055754915,8.829834,0.1703255,-0.21695963,-0.41722143,22.055883,-29.269724,-28.982277,
33200060,0.7902081,0.40238035,9.027161,-0.009171398,-0.30617544,-0.50364095,21.979198,-29.129272,-29.372723,
33200080,-8.986648E-4,0.48173064,9.676635,-0.15418038,-0.12534697,-0.33080196,22.748459,-28.612091,-30.056019,104.0
33200100,0.04641202,0.18289463,11.526842,-0.12075775,0.18291366,-0.08219608,22.592138,-27.423573,-29.29985,
33200120,0.61923087,-0.32824063,12.231113,0.0829739,0.07372415,0.03338501,23.052263,-26.529799,-29.143986,
33200140,0.9516034,-0.52377146,11.396588,0.13277496,-0.23094122,-0.0057634264,24.89912,-27.163965,-29.013325,
33200160,1.0599989,-0.37734792,11.406769,0.050749674,-0.17035434,-0.041050278,25.1307,-26.954407,-30.01596,
33200180,0.6147393,-0.023116514,12.172125,0.12065759,0.120595746,0.007152894,25.053776,-27.389694,-29.471157,113.0
33200200,0.57551336,-0.15426897,11.517561,0.18057868,0.1694647,0.07453081,26.208897,-27.173077,-30.915192,
33200220,0.57910657,-0.6133025,10.766877,-0.083207205,0.058277834,0.05042922,25.977219,-26.87481,-30.460117,
33200240,0.40693155,-1.1456975,11.133085,-0.3868073,-0.010165347,-0.0057634264,26.206713,-25.262548,-31.32428,
33200260,-0.14762172,-1.7807988,11.507679,-0.4773547,0.026586244,0.01394395,27.97796,-26.42192,-31.731094,
33200280,-0.640192,-1.8715277,11.485521,-0.4203631,0.16973102,0.20156348,28.131432,-25.40162,-32.66768,124.0
33200300,0.23116331,-2.0020812,12.335916,-0.20997357,0.24469897,0.3682772,29.053665,-25.37719,-31.948586,
33200320,0.74978435,-1.8586519,11.696622,0.18270919,0.046027306,0.3047609,29.977077,-25.151333,-32.547287,
33200340,0.57551336,-1.2436128,9.440381,0.32931608,-0.18846382,0.15016451,28.438774,-25.030746,-32.81909,
33200360,0.25242317,-0.8579408,8.156105,0.12052445,-0.37608334,0.043371852,28.980478,-26.296398,-34.183838,
33200380,-0.07994947,-0.7666131,7.9321275,-0.11130354,-0.32162178,0.055622377,29.978668,-25.317272,-33.78344,138.0
33200400,-5.136813E-4,-1.078667,8.134161,-0.21609883,0.002884131,0.16481191,29.672316,-25.411861,-34.873314,
33200420,0.40513492,-1.5163978,8.988833,-0.22515357,0.23777473,0.19716927,31.36714,-26.434258,-35.902664,
33200440,0.67073363,-1.7972678,9.578421,-0.11476564,0.11580207,0.10515714,30.674007,-26.433182,-35.146103,
33200460,0.6009653,-1.6238949,9.178376,0.03543651,-0.044253778,-0.02160922,30.673908,-26.359478,-35.146957,
33200480,0.40693152,-1.1744432,7.9057784,0.09775442,-0.11496064,-0.08579136,31.675102,-26.578156,-35.970734,153.0
33200500,0.23565483,-0.75493515,7.257201,0.009337554,-0.011763241,-0.12960032,31.13475,-26.05418,-34.906883,
33200520,-0.31740126,-0.32374907,7.7045574,-0.042727202,0.03524151,-0.05782818,31.213913,-26.444698,-36.448036,
33200540,-0.111989,-0.43124616,8.091727,0.0050765006,0.15415154,0.059617117,32.370205,-27.835684,-36.94484,
33200560,0.08533855,-0.443523,8.584297,0.07897916,0.17252734,0.08624871,32.674637,-25.834044,-36.496162,
33200580,0.13863796,-0.35788465,8.817857,0.16353445,-7.111281E-4,0.07679449,32.984844,-27.310413,-36.93564,
33200600,0.45903322,-0.2680542,8.353433,0.13850075,-0.19911645,0.032852374,34.063545,-28.331726,-37.283897,
33200620,0.55994284,-0.23182257,8.426195,0.040895987,-0.09405485,0.037646063,32.986183,-28.413664,-36.768066,
33200640,0.60994834,-0.4075908,9.735924,0.032507036,0.0754552,0.06574238,34.2956,-28.345596,-38.438698,164.0
33200660,0.6108467,-0.5204778,10.767476,0.19828868,0.059343096,0.03724659,32.603764,-29.823362,-36.9934,
33200680,0.6057563,-0.3998055,10.689025,0.37166032,-0.13000749,-0.0346587,35.22164,-30.108603,-38.936913,
33200700,0.7087618,-0.3704609,9.485597,0.33450925,-0.22681333,-0.08246241,35.21991,-29.651321,-37.93628,
33200720,0.39106148,-0.46178848,9.21341,0.10441233,6.2044524E-4,-0.043846596,34.529892,-30.994297,-38.324814,
33200740,0.27098817,-0.91363555,10.753102,-0.116230376,0.18264735,0.04563554,34.914562,-30.048832,-39.56431,
33200760,0.4626264,-1.3244603,12.450899,-0.11600845,0.13573137,0.052648526,34.993237,-31.952402,-38.766487,
33200780,0.66684103,-1.7400757,12.547616,0.0046770256,-0.07527958,-0.0086929,34.377304,-32.53285,-37.536964,
33200800,0.6836093,-1.5017257,12.351785,0.09828706,-0.19552119,-0.06635029,35.99376,-31.87279,-39.361572,
33200820,0.9321402,-1.2049856,12.140984,0.1659313,-0.16249803,-0.03852028,35.14876,-33.564617,-38.279655,
33200840,1.5660437,-0.91243786,11.326521,0.18963341,-0.18486857,-0.031329747,34.61196,-33.4497,-39.919365,180.0
33200860,1.7828345,-0.55910474,9.7640705,0.07245442,-0.2375991,-0.07460609,34.921097,-33.826294,-40.758514,
33200880,2.0550208,-0.8417713,8.889122,-0.23061305,-0.020817984,-0.049838707,34.22886,-33.981895,-40.619164,
33200900,2.4805179,-1.6939628,10.083568,-0.57216316,0.33804268,0.006487104,32.997902,-34.865337,-39.32406,
33200920,2.9883592,-2.4033244,11.551995,-0.65139216,0.42672583,-0.045577653,33.688396,-33.31167,-39.634407,
33200940,3.163828,-2.503934,12.329328,-0.40664783,0.3898411,-0.20563349,33.920696,-33.690586,-40.552826,193.0
33200960,2.5748396,-1.8478723,11.909221,-0.010103498,0.2154042,-0.41908565,35.763924,-33.046295,-38.73465,
33200980,2.136253,-1.2802293,9.73913,0.20734341,-0.10324275,-0.5198862,36.15282,-34.255634,-41.109825,
33201000,1.9843543,-0.97651684,8.4501505,0.11266812,-0.0136274565,-0.497782,34.692116,-34.504715,-41.53018,
33201020,2.0631056,-0.9091441,8.577111,-0.014497715,0.17865261,-0.46089727,34.30777,-33.500694,-43.02162,
33201040,2.2316873,-0.904952,8.623523,-0.03673509,0.13870524,-0.5322699,34.22871,-32.749763,-42.02632,206.0
33201060,1.7358233,-0.51868117,8.107597,-0.05364615,-0.03693009,-0.6638299,34.765953,-32.436348,-41.320152,
33201080,1.2076203,-0.35399196,7.5841846,-0.17641777,-0.13213801,-0.706041,34.998486,-32.67365,-42.627113,
33201100,0.9890328,-0.409088,8.132749,-0.28307727,-0.061431155,-0.6960541,35.228252,-31.57153,-43.098457,
33201120,1.0564057,-0.62348336,8.478896,-0.26443514,0.044296253,-0.70430994,34.457973,-31.279118,-42.501938,
33201140,0.7354116,-0.59623474,8.623223,-0.22502041,0.13457733,-0.7004484,34.841362,-29.954708,-43.049423,221.0
33201160,0.5494625,-0.47765854,9.339472,-0.20091882,0.042565197,-0.65850365,35.53319,-29.504292,-43.192192,
33201180,0.72942287,-0.4132801,9.597884,-0.041528776,-0.07567905,-0.6121646,35.838856,-28.532198,-42.57679,
33201200,1.0608972,-0.34261346,9.198439,0.15314813,-0.124548,-0.5655593,35.148758,-29.4399,-43.434647,
33201220,1.8460152,-0.4555004,8.31241,0.25368237,0.0317794,-0.5494473,37.151108,-29.659615,-45.31685,
33201240,1.766665,-0.33722362,8.936132,0.22079238,0.15468419,-0.6487831,35.4584,-29.750893,-44.816223,237.0
33201260,1.4851962,0.0056292303,9.23886,0.24169815,-0.067689575,-0.73520267,36.228214,-30.326538,-44.635643,
33201280,1.1836654,0.48113173,8.840912,0.24183133,-0.24532226,-0.7843378,35.765743,-29.814138,-44.420937,
33201300,1.1656994,0.6838491,8.468415,0.20907447,-0.17767803,-0.7053752,37.07513,-30.035095,-45.7013,
33201320,1.5777216,0.41166285,8.657359,0.09762127,0.042565197,-0.6390625,37.07422,-29.371754,-45.709,
33201340,1.3974619,0.3847137,9.969183,0.018791769,0.15761366,-0.63506776,36.84532,-29.54467,-47.18296,253.0
33201360,1.2770891,0.38591146,10.774363,0.04888546,0.004615182,-0.6233499,37.537758,-29.536482,-47.320595,
33201380,1.5444844,0.06910942,10.217115,0.01532966,-0.10723749,-0.62161887,37.766624,-28.711807,-46.628014,
33201400,1.6561736,-0.3213536,10.939352,-0.082408264,0.015400981,-0.611632,38.99958,-29.229908,-47.98423,
33201420,1.8097838,-0.7953589,11.964018,-0.023552455,0.18517734,-0.59352255,37.69411,-30.001854,-49.013725,
33201440,1.7043827,-0.90914404,12.497011,0.12451917,0.25135687,-0.59778357,40.309166,-30.032394,-48.71618,
33201460,1.7825351,-0.7663137,12.559293,0.30508134,0.089836255,-0.6302741,39.770927,-30.115429,-48.805984,
33201480,1.8963205,-0.5941387,11.341193,0.42186087,-0.117623806,-0.71909046,40.31049,-30.62898,-49.173523,
33201500,2.0136988,-0.66809905,9.648188,0.27711815,-0.06942063,-0.81043684,41.081524,-31.727507,-49.451164,
33201520,1.2633152,-1.1471949,9.318512,-0.15058513,0.17212787,-0.8834074,40.62264,-32.27592,-51.15863,
33201540,-0.07853784,-1.7904663,10.536826,-0.59213686,0.3588153,-0.82521737,40.929806,-31.90273,-51.15531,275.0
33201560,-0.5500621,-1.782895,12.498509,-0.73727906,0.27505895,-0.515492,41.23583,-30.50115,-51.39608,
33201580,1.0255638,-2.4036236,13.412084,-0.3982589,0.2154042,-0.26555455,41.931484,-31.910717,-52.677948,
33201600,2.273309,-2.5281882,12.906637,0.072454415,0.05095414,-0.35010988,41.31617,-31.631031,-53.083405,
33201620,2.4475799,-2.0302284,10.785742,0.24968766,-0.36116967,-0.5960525,41.627132,-33.40685,-53.828934,
33201640,1.9996252,-1.5738894,8.90589,0.064331785,-0.4965913,-0.79658836,41.703316,-32.31054,-54.53617,
33201660,1.0677842,-1.1118615,9.101122,-0.0794788,-0.36742812,-0.82654893,38.2444,-33.986885,-54.757553,
33201680,0.8243437,-0.93220055,9.240358,0.01666124,-0.14239119,-0.6747489,40.01382,-33.31291,-55.804703,
33201700,1.5974844,-1.2561891,9.18077,0.15061814,0.04149993,-0.64398944,39.8617,-33.627434,-56.965576,
33201720,1.8891339,-1.3948274,8.989433,0.25155187,-0.12188485,-0.8218884,39.169575,-34.363403,-56.200447,
33201740,1.5393939,-0.87680507,7.649162,0.13783497,-0.34785384,-0.99978757,37.787292,-34.34198,-58.3244,255.0
33201760,0.84859794,-0.3842349,7.0754447,-0.073486686,-0.0856659,-0.98460746,39.248955,-34.105637,-58.75508,
33201780,0.6030613,-0.37255695,7.5952644,-0.11010511,0.566808,-0.8511832,38.47963,-34.260086,-58.462883,
33201800,0.59347945,-0.5222744,8.632206,-0.033938773,0.8658807,-0.81509733,40.17176,-33.871674,-58.812202,
33201820,0.7069652,-0.59563583,9.014884,-0.054045625,0.30661738,-0.97874844,40.557568,-34.822838,-58.71421,
33201840,0.5566489,-0.43184504,8.612145,-0.05417878,-0.35371283,-1.1438644,39.555187,-32.92401,-58.915894,223.0
33201860,0.36950225,-0.050664507,7.271874,-0.038998775,-0.21216592,-1.1059145,39.940907,-33.367348,-59.365463,
33201880,0.18505034,0.12660088,7.156891,-0.10198249,0.33031952,-0.9296132,40.480366,-33.30053,-60.358795,208.0
33201900,0.2787735,0.102047235,8.53519,-0.088311605,0.5037799,-0.8151861,41.632614,-32.611572,-59.796425,
33201920,0.9330385,0.043657452,9.041533,0.013065978,0.1754568,-0.82774734,42.172707,-32.697952,-61.17488,
33201940,1.5148404,-0.027907465,8.428292,0.08031073,-0.27981016,-0.96556586,42.019024,-33.06418,-60.86492,190.0
33201960,1.1381513,0.316742,7.6419754,0.0772481,-0.25451016,-1.0567791,41.78998,-33.379868,-62.027702,
33201980,1.120784,0.3969905,7.3503265,-0.063233525,0.10128784,-1.023756,41.789585,-32.650932,-62.577827,177.0
33202000,1.0438294,0.16283251,9.512244,-0.20877515,0.33058584,-1.0400013,42.557396,-31.825033,-62.33615,
33202020,0.7668522,0.13408676,11.0621195,0.0046770275,0.117133655,-1.092998,43.405525,-33.358833,-62.21991,
33202040,0.9749594,0.46556112,9.614352,0.2817787,-0.34851965,-1.1312145,43.634632,-31.524296,-63.009285,159.0
33202060,1.2091175,0.7455327,8.026751,0.23011342,-0.45597813,-1.1469271,43.791058,-32.859066,-63.68637,
33202080,1.1588125,0.79434055,8.039925,0.017193872,-0.10936801,-1.087006,45.02549,-34.265095,-65.26441,147.0
33202100,1.068212,0.53451663,9.3490095,-0.14619093,0.25428632,-1.0115054,45.176025,-31.975607,-65.132416,
33202120,1.1656994,0.23349914,10.677047,-0.17162408,0.15894523,-1.0302807,44.714935,-32.784096,-64.515465,
33202140,1.2139084,0.08917154,10.854313,-0.09878669,-0.25038227,-1.1025854,45.40992,-34.32949,-65.02195,130.0
33202160,1.3330835,0.06282128,10.333295,-0.066961944,-0.3373344,-1.1088439,46.332916,-33.30215,-66.24901,
33202180,1.5624505,-0.003653258,10.80251,-0.0804109,-0.15064698,-1.0610402,46.95143,-34.92705,-67.06601,113.0
33202200,2.4664445,-0.19978306,11.695126,-0.0077066626,-0.12295012,-1.1168334,46.02884,-34.874302,-67.55387,
33202220,2.7706704,-0.20457402,11.177103,0.0747181,-0.33041018,-1.3265572,45.951077,-35.008984,-66.62565,
33202240,2.5793312,-0.60551727,9.561053,-0.0797451,-0.44825497,-1.4876783,45.415165,-35.918976,-67.78918,98.0
33202260,1.6951,-0.85584474,9.287369,-0.3741573,-0.0505122,-1.5132446,46.566986,-35.22423,-66.83998,
33202280,1.1420441,-1.4436352,11.049843,-0.51104367,0.37506056,-1.3776898,45.413456,-34.23188,-68.350426,86.0
33202300,1.4528574,-1.9969909,11.942458,-0.38188046,0.39570004,-1.2290854,47.10389,-32.66304,-68.63608,
33202320,2.119998,-2.2143805,12.290102,-0.119825654,0.3753269,-1.2284197,46.4121,-34.27188,-67.08701,
33202340,2.1101165,-1.7289966,11.613379,0.13210917,0.1055489,-1.3759588,46.563675,-33.29865,-66.2433,74.0
33202360,1.5202302,-0.70642674,9.671845,0.15834129,-0.19991541,-1.4390755,45.947403,-33.00622,-65.79773,
33202380,1.337575,-0.26446098,8.530698,-0.07042405,0.018729929,-1.292735,44.56197,-31.92977,-66.38634,65.0
33202400,2.012501,-0.68456805,9.415227,-0.2725578,0.30488634,-1.129217,44.636726,-31.03141,-65.54367,
33202420,2.7556984,-1.2364262,10.294668,-0.28946885,0.27758896,-1.1441308,45.095528,-29.54105,-64.93045,
33202440,3.0452516,-1.2226524,10.278199,-0.14086461,0.13803944,-1.3049855,44.094643,-29.109365,-64.650826,58.0
33202460,2.3882914,-0.7393646,9.140048,-0.066163,0.012737818,-1.4711666,43.093563,-29.036938,-63.74798,
33202480,1.6579702,-0.26685643,8.398947,-0.13354091,0.09116785,-1.4831507,44.860775,-27.682251,-63.642334,
33202500,1.5265182,-0.34680557,9.125376,-0.23247725,0.22432578,-1.4465324,43.707214,-27.413048,-64.21581,
33202520,1.5025637,-0.3282406,10.391686,-0.09172932,0.1859763,-1.4554541,43.010887,-26.139307,-62.15856,
33202540,1.539394,-0.21715027,9.913189,0.13210917,0.035640985,-1.4768925,42.932228,-25.176525,-61.78476,53.0
33202560,1.6361115,-0.18570963,9.148132,0.2447608,0.087173104,-1.5033908,41.77595,-23.858088,-61.209732,
33202580,1.5920945,-0.07162494,8.510935,0.23743711,0.21021104,-1.5121791,40.16032,-23.877968,-60.940155,
33202600,1.7495973,0.015211144,8.671432,0.12611707,0.2707979,-1.5369467,40.542442,-23.69461,-58.920845,
33202620,1.7543883,0.16013758,9.669148,0.16260235,0.29956,-1.5902097,40.080044,-23.11082,-58.861725,
33202640,1.5052583,0.23649347,9.405646,0.36180663,0.2974295,-1.635883,38.77009,-22.158607,-57.976738,
33202660,1.1486315,0.6721711,8.427693,0.3787177,0.26813474,-1.6429403,37.306286,-20.702063,-57.720497,
33202680,1.171902,0.982129,8.164276,0.18736973,0.18411209,-1.5493305,39.15037,-20.937595,-55.582573,60.0
33202700,1.6738403,0.84494495,8.4534445,-0.007839819,0.30342156,-1.4724982,37.687447,-19.9993,-55.47506,
33202720,1.8181678,0.49101305,9.533805,-0.046988256,0.5546906,-1.4943361,36.686413,-19.710392,-54.884254,
33202740,1.1983378,0.14995682,11.059125,0.110670745,0.44030797,-1.5430719,36.373226,-17.61543,-52.51745,
33202760,0.6204286,-0.024913121,10.974984,0.36952978,0.10102153,-1.4591825,33.98633,-16.678404,-51.58171,
33202780,1.5340043,-0.4471162,9.73233,0.40388453,0.01779782,-1.383815,33.75289,-15.343641,-50.829155,67.0
33202800,1.7415125,-0.81482214,10.052425,0.35022187,0.2052842,-1.4052535,31.442883,-14.260353,-50.04795,
33202820,1.2267841,-0.9423814,10.981272,0.43491033,0.25908002,-1.4477309,29.981466,-14.427625,-49.927605,
33202840,0.49256992,-0.7489465,11.112126,0.59762937,0.09076838,-1.4902081,30.130882,-13.063864,-47.618202,76.0
33202860,0.034434643,-0.13780004,10.533018,0.6781898,-0.2226854,-1.4912735,28.5938,-13.900276,-47.801514,
33202880,0.2587113,0.54551023,9.602077,0.5775225,-0.2755491,-1.4354804,27.361532,-12.450653,-48.235863,89.0
33202900,0.80967134,0.21493417,8.651072,0.216265,-0.21442962,-1.4061854,25.514921,-12.615654,-47.58345,
33202920,0.73541147,-0.6923533,9.31911,-0.21090567,-0.015891137,-1.425094,22.66724,-11.405867,-47.66829,
33202940,0.43208405,-1.7616351,11.702611,-0.27295727,0.07652047,-1.4203004,20.664852,-10.968511,-46.020752,99.0
33202960,0.12546282,-2.09281,12.803932,0.08164232,-0.08047274,-1.4278903,19.892996,-9.2078,-45.828186,
33202980,-0.1431302,-1.7556462,11.881372,0.41373822,-0.30084914,-1.4609135,18.812962,-7.0832367,-45.647522,
33203000,-0.65276825,-1.1430025,10.461154,0.4385056,-0.5627708,-1.4159061,16.582554,-7.337044,-45.622673,
33203020,-0.4557402,-0.8214097,9.0606985,0.16766235,-0.7416019,-1.2798187,14.968182,-8.024897,-45.654854,
33203040,0.31650224,-1.1070706,8.548964,-0.15861899,-0.6427987,-1.1265984,12.733488,-6.2678356,-44.26053,
33203060,1.3818914,-1.7077367,9.065188,-0.35684675,-0.25317857,-0.9971244,9.734268,-6.1763744,-45.03263,
33203080,1.9280603,-1.9005728,11.096255,-0.35351783,0.20035735,-0.99792325,9.040014,-5.2920027,-44.36371,
33203100,2.0472355,-1.5921549,11.624759,-0.10224879,-0.06768957,-1.1357417,8.34668,-5.143518,-43.60885,92.0
33203120,2.0693936,-1.0543699,10.210827,0.087501265,-0.7036519,-1.4036555,6.346368,-4.6614103,-43.89634,
33203140,0.95639443,-0.16534807,8.506444,0.09842022,-1.0702357,-1.632554,4.4240427,-5.7120333,-43.235535,82.0
33203160,-0.041921254,0.32512617,7.0499926,-0.06216826,-0.8637077,-1.5980661,1.8858442,-4.883472,-44.469,
33203180,-1.073474,1.2291199,7.9012856,-0.28534096,-0.27395123,-1.3495935,0.26912785,-3.7310286,-44.67733,
33203200,0.17367184,0.93088293,9.363427,-0.3603089,-0.1856675,-1.0370717,0.3460331,-5.0322223,-43.035316,61.0
33203220,1.7753487,0.20505285,8.856483,-0.3031841,-0.5264186,-1.0594423,-1.5770922,-5.059088,-42.928085,
33203240,2.1930604,-0.1694118,7.7611504,-0.32289147,-0.546126,-1.2839465,-3.4245996,-3.2583876,-43.92347,49.0
33203260,1.1659989,-0.03269844,8.342354,-0.42076257,-0.17434908,-1.4958009,-3.5773964,-5.0836473,-42.590637,
33203280,-0.09013024,0.6344423,9.643997,-0.39586204,-0.10164486,-1.5187039,-4.5020924,-4.9305573,-41.29992,
33203300,0.14103343,0.8521315,9.572731,-0.31476888,-0.39259493,-1.4626446,-5.5028133,-3.9945223,-41.799934,41.0
33203320,0.56563205,0.81589985,8.664246,-0.28480834,-0.43946654,-1.4654409,-8.886229,-4.6378355,-42.031403,
33203340,0.5078411,0.74583215,8.542974,-0.4049168,-0.16382961,-1.4689031,-7.19345,-5.8500767,-40.9693,
33203360,0.09821425,0.7661936,9.852702,-0.5034537,0.077452585,-1.4404072,-8.809172,-5.362132,-41.247284,
33203380,0.013174763,0.9542388,10.963008,-0.39785942,0.0384373,-1.3786219,-8.119062,-5.901886,-38.592873,
33203400,0.30542314,0.9269901,10.80221,-0.2396678,-0.11842275,-1.3278887,-9.968079,-5.7454314,-36.164444,38.0
33203420,0.35093722,0.87997884,10.562063,-0.20890829,-0.27261966,-1.2926017,-9.352813,-7.6165085,-33.728622,
33203440,0.6818127,0.6820525,10.287783,-0.27415568,-0.35970497,-1.2661034,-11.501858,-7.0599732,-38.74099,
33203460,0.6809144,0.59132373,10.500081,-0.4419347,-0.42175654,-1.3179018,-12.887339,-7.068245,-37.92415,
33203480,0.18355317,0.6847474,10.901323,-0.50198895,-0.2553091,-1.2591792,-13.654354,-7.9771113,-38.783897,
33203500,-0.31560463,0.8057191,12.213446,-0.47788736,0.09343153,-1.0827448,-14.963842,-7.6824493,-37.504395,
33203520,0.039225593,0.25326183,13.368964,-0.32049465,0.12965049,-0.9268169,-15.501783,-8.420716,-37.04492,
33203540,0.94411755,-0.38633093,12.962335,-0.23846938,-0.10617222,-0.9848737,-16.657463,-7.9786267,-35.918068,35.0
33203560,1.3471568,-0.91962427,13.11774,-0.17042565,-0.03067167,-1.2344117,-15.809749,-8.710939,-36.430176,
33203580,0.05479621,-0.77110463,13.021322,-0.020223504,-0.075013265,-1.4020578,-17.118984,-7.913084,-36.007683,
33203600,-1.0710788,-0.47616136,11.579843,-0.043792464,-0.13892907,-1.3149724,-17.963882,-9.678619,-34.924896,
33203620,-1.2297791,-0.6103082,11.0318775,-0.27721834,-0.10177801,-1.0433301,-20.579252,-9.354418,-35.303238,
33203640,-0.22697195,-1.4580083,10.816584,-0.52782154,0.09223311,-0.71496254,-20.426125,-9.270271,-34.758736,
33203660,0.27098814,-2.099996,12.076905,-0.63674486,0.3201995,-0.5562383,-21.50356,-9.423599,-34.08732,
33203680,0.13145153,-1.8400869,13.331236,-0.35604784,0.29902738,-0.4736804,-22.580536,-8.787024,-34.817917,
33203700,0.08593742,-0.9423814,12.868311,0.08350653,0.00621308,-0.37074935,-22.65733,-10.816015,-32.397484,32.0
33203720,0.4892761,-0.28901464,10.389589,0.30854344,-0.35291386,-0.18499401,-24.427378,-8.659523,-34.323654,
33203740,1.608264,-0.3782462,8.663348,0.15221602,-0.3380002,-0.0041655293,-23.27311,-9.444656,-33.74418,
33203760,2.757794,-0.8007487,8.802585,-0.061102998,-0.057036944,0.026593952,-24.195951,-9.460979,-33.9217,
33203780,3.539918,-1.0977881,8.958591,-0.09439248,0.10861154,-0.110292405,-24.967564,-9.006105,-32.321144,
33203800,3.4216413,-1.0070593,8.692094,-0.11423301,0.19662893,-0.36156145,-26.428734,-9.5384245,-31.964409,
33203820,2.2375476,-0.5362622,8.740217,-0.19386145,0.08264574,-0.535732,-27.04472,-9.828684,-31.047783,
33203840,1.2962528,-0.30817845,8.13724,-0.28254464,-0.048381675,-0.51269567,-26.429672,-9.164112,-31.581852,30.0
33203860,0.4195078,-0.22643277,8.28636,-0.41823256,0.09170048,-0.4086994,-27.428925,-9.116005,-32.303703,
33203880,-0.15570647,0.075996414,9.258024,-0.37974995,0.0669331,-0.2596956,-28.275162,-9.778288,-31.3885,
33203900,0.35482988,0.19966298,8.755275,-0.32249203,-0.12641223,-0.11615136,-27.505877,-9.406199,-31.915344,
33203920,1.146835,-0.063540205,8.305223,-0.30118674,-0.05770273,-0.052368704,-28.199713,-8.889193,-31.164772,
33203940,1.530411,-0.19888477,8.60346,-0.25418198,0.1726605,-0.061023973,-28.428013,-9.938456,-32.08689,
33203960,1.2642134,-0.09587917,9.568838,-0.113567226,0.2626753,-0.08379398,-29.662315,-8.751223,-30.351551,
33203980,1.1680949,0.20654997,9.814974,0.11639654,-0.007502187,-0.09591136,-29.122538,-9.918849,-30.092453,
33204000,1.3645241,0.46286622,9.007098,0.30121976,-0.25570858,-0.124540314,-28.816235,-9.099956,-29.862167,27.0
33204020,1.6462922,0.5335328,7.891106,0.38644087,-0.2258812,-0.14011979,-28.890396,-10.367998,-30.777924,
33204040,1.8340379,0.60090566,7.196716,0.241565,0.020327821,-0.18805665,-30.352386,-10.238134,-30.506252,
33204060,1.305835,0.85183203,8.676522,0.09495811,0.13697417,-0.25303772,-29.274887,-10.447538,-30.78656,
33204080,0.6066546,0.96651554,9.775747,0.21453395,0.004082554,-0.18685822,-29.273476,-11.479403,-30.774578,
33204100,1.0420327,0.5020922,9.428104,0.29083344,-0.058901154,-0.0295987,-30.505657,-11.405844,-29.567963,
33204120,1.9319531,-0.113246396,9.813477,0.25275028,0.044695728,0.04084185,-29.81057,-13.024944,-30.073597,
33204140,2.4311109,-0.47226876,10.624346,0.23543975,0.03790467,-0.066483445,-30.273449,-12.651845,-29.315609,
33204160,2.0274727,-0.31147224,10.501878,0.19709027,-0.21642698,-0.2176177,-29.88649,-13.256491,-30.69186,
33204180,1.7277386,-0.56569237,10.973187,0.056741778,-0.27794594,-0.28486246,-31.272648,-12.893924,-29.724571,
33204200,0.8602758,-0.34470958,12.95904,0.08457179,-0.26036912,-0.3228125,-30.347523,-13.486925,-30.855423,
33204220,0.09851368,0.44879276,13.018328,0.32305765,-0.2651628,-0.18446139,-28.733799,-13.948231,-28.798008,
33204240,0.54586923,0.64073044,11.228906,0.4490251,-0.15437539,0.072932914,-32.81103,-13.712963,-28.74738,
33204260,0.90549046,0.42992833,10.93546,0.22079237,0.095961526,0.18132348,-30.6579,-12.949024,-29.089584,
33204280,0.9486092,-0.0883933,10.823172,-0.046988256,0.011006765,0.18238874,-30.73337,-14.633816,-28.29813,
33204300,0.93753004,-1.0250254,10.341979,-0.4540521,-0.079141155,0.15842032,-32.041843,-14.207957,-28.103458,25.0
33204320,0.1080956,-1.6439571,12.342802,-0.72649324,0.21433894,0.18878034,-31.580875,-13.180672,-28.877712,
33204340,-0.0871359,-1.5199909,14.3505125,-0.47242785,0.32765633,0.34790406,-29.658445,-13.144541,-28.36602,
33204360,1.0492193,-1.3211663,13.623186,0.07112284,0.0012862384,0.41954303,-29.118376,-14.026614,-28.729282,
33204380,1.5763958,-0.98832315,11.231172,0.43491036,-0.42455286,0.26481354,-29.811352,-13.014523,-29.377296,
33204400,1.390575,-0.46628004,8.627416,0.43943772,-0.4228218,0.13831347,-30.81115,-13.755161,-28.619766,
33204420,0.96567684,-0.1099526,7.6901846,0.16420025,0.010607295,0.14044398,-30.27417,-13.438273,-27.681492,
33204440,0.88093686,-0.28063047,8.91038,0.025582824,0.3211316,0.19210927,-32.271946,-14.437205,-28.416061,23.0
33204460,0.8297335,-0.41238177,9.439783,0.15301499,0.2470958,0.16041769,-31.809193,-14.591509,-29.331345,
33204480,0.7944002,-0.11923509,8.435778,0.29642606,-0.074347466,0.10728766,-30.887043,-14.1318,-29.081589,
33204500,1.1103039,0.032578364,6.6915693,0.25075293,-0.2739512,0.064810276,-30.425282,-14.9965105,-28.208881,
33204520,1.0405356,0.037968185,5.702536,0.048752304,0.05055467,0.05788607,-31.502611,-14.789423,-28.083317,
33204540,0.6165359,-0.13750061,7.179349,-0.12555143,0.46813798,0.0827866,-31.427195,-14.189354,-27.46933,
33204560,0.46202758,-0.31296942,8.6355,-0.041262466,0.356019,0.08784659,-31.579008,-14.797539,-28.549412,
33204580,0.7147506,-0.4019015,8.518421,0.15554498,-0.0012437664,0.0451029,-31.273472,-15.415676,-25.826275,
33204600,0.6656432,-0.20337628,7.79319,0.30934238,-0.11043327,0.0050223665,-30.812645,-16.846859,-23.399391,22.0
33204620,0.3512367,0.33351034,7.2051,0.3194624,-0.029473245,0.03338501,-31.731007,-15.330861,-29.55299,
33204640,0.53059816,0.6122842,6.9754333,0.13517182,0.11127469,0.12326661,-31.49909,-16.428295,-29.22498,
33204660,0.98184633,0.29039177,8.410924,-0.061102994,0.21846683,0.18758191,-30.96075,-16.418966,-29.134315,
33204680,1.3791965,-0.3153649,10.625244,-0.0069077127,0.1793184,0.14057715,-30.42124,-16.64233,-29.814747,
33204700,1.1100045,-0.40429702,11.124402,0.22358869,-0.008301135,0.02459658,-29.730095,-16.689316,-28.713661,
33204720,0.4027395,-0.005749289,10.220708,0.2558129,-0.16036749,0.011547106,-30.268593,-16.768875,-28.57137,
33204740,0.7159483,-0.48155123,9.892228,0.090430744,-0.09219064,0.07932449,-30.191952,-18.066595,-26.697266,
33204760,1.2860721,-1.4145901,10.724058,-0.10650986,0.17878577,0.12766083,-28.812073,-17.332441,-23.34401,
33204780,1.3166145,-1.7861887,13.095881,-0.060836673,0.4183369,0.10435818,-29.730278,-17.55524,-27.465527,
33204800,1.6576706,-1.5128047,13.992989,0.35355082,0.08251257,0.05855186,-30.19119,-17.497805,-28.096714,
33204820,2.3176253,-0.92351687,12.049656,0.7180041,-0.503116,-0.07260871,-30.804783,-17.602852,-29.581024,
33204840,3.0476472,-0.40010494,8.888522,0.658083,-0.62974924,-0.2454477,-30.267067,-17.512869,-29.027008,
33204860,3.178201,0.022098145,6.5304737,0.07085654,-0.26795912,-0.48526517,-32.11087,-19.234932,-28.975548,
33204880,1.9190774,-0.10725769,7.6416755,-0.7488637,0.23338053,-0.63586676,-32.110058,-19.390446,-29.515404,
33204900,1.1106033,-1.0037655,11.028882,-1.1596559,0.42805743,-0.5900605,-30.418713,-18.991611,-29.168423,
33204920,0.61623645,-1.4942398,13.302193,-0.9813575,0.4465664,-0.46142986,-30.574123,-18.466433,-28.404549,
33204940,0.3872116,-1.1525847,13.919584,-0.46510422,0.34456742,-0.30137405,-31.95826,-18.709715,-28.513542,20.0
33204960,0.57731,-0.62258506,12.43922,-0.12794828,-0.049580097,-0.19404876,-30.65268,-17.143234,-28.576591,
33204980,1.4103376,-0.41387895,10.3779125,-0.1443267,-0.41163653,-0.2033698,-30.881329,-18.187866,-29.18924,
33205000,1.7178572,-0.5312574,9.268506,-0.33620727,-0.3908639,-0.21322349,-30.881,-18.554071,-29.030228,
33205020,1.701987,-0.6127037,9.476614,-0.43727416,-0.05197694,-0.17980084,-31.805325,-17.60992,-29.064148,
33205040,1.2495412,-0.52766424,10.357551,-0.34805834,0.13524313,-0.16808295,-31.342146,-18.638254,-29.27287,
33205060,0.68869966,-0.12941588,10.741724,-0.11569774,-0.09631853,-0.1884561,-31.035095,-18.55293,-28.801922,
33205080,0.8554849,0.1781037,8.636997,-0.04578983,-0.6104413,-0.17474085,-32.1121,-17.771263,-29.688969,
33205100,1.3528463,0.26254427,6.2960157,-0.32116044,-0.41190284,-0.14731032,-32.72589,-18.66969,-30.00336,
33205120,0.9165696,0.25416014,7.5392694,-0.5227616,0.42619324,-0.099906094,-31.957897,-18.786896,-28.74479,
33205140,0.29284686,0.14935794,10.109319,-0.2884036,0.714347,-0.036922384,-32.265533,-18.068417,-29.689342,
33205160,0.16708426,0.254759,10.348566,0.083107054,0.3027558,-0.021609223,-32.18956,-18.127056,-28.75819,
33205180,0.49017444,0.3383013,8.729523,0.17365445,-0.18007487,-0.054765545,-32.571922,-18.88615,-29.842255,
33205200,0.8021855,0.32841995,8.501354,0.10907285,-0.24146071,-0.08219609,-32.340607,-19.107239,-30.066097,
33205220,0.7979934,0.4757419,9.043031,0.22958079,0.031379934,-0.053167652,-32.49404,-19.40439,-30.066467,
33205240,0.7228353,0.5242504,9.14454,0.4112082,0.20808052,-0.0229408,-32.647346,-19.920341,-29.909542,
33205260,0.56143993,0.6997192,8.309716,0.36873084,0.11899786,-0.008826058,-32.876266,-20.88895,-30.368313,
33205280,0.620728,0.65570223,8.461529,0.12678286,0.0777189,0.0038239448,-33.259872,-21.05262,-31.072403,
33205300,0.6916941,0.4637645,9.284374,-0.08120984,0.05135362,-0.027068695,-32.571144,-19.330694,-29.99186,
33205320,0.54976195,0.10384384,10.651595,-0.0693144,0.039857652,-0.0023900906,-33.7996,-20.609297,-30.471897,
33205340,0.3877677,0.031680055,10.87138,0.09948549,0.07465626,0.081055544,-33.493134,-19.720173,-30.474571,
33205360,0.6003664,-0.19559096,10.732742,0.21386816,0.066533625,0.21061823,-34.183884,-20.402126,-31.025536,
33205380,1.1941457,-0.48574328,10.570448,0.22145815,0.13257997,0.28758353,-33.645737,-20.752056,-30.31166,
33205400,1.2270836,-0.40429708,11.169019,0.13091075,0.22925262,0.2521635,-33.18396,-20.314407,-31.079063,
33205420,0.8644679,-0.3075796,11.878978,0.11186917,0.08703995,0.1917098,-34.49292,-20.53336,-29.63882,
33205440,0.36830443,-0.5486246,10.771969,0.0010817628,-0.09112537,0.18451928,-33.644196,-20.19369,-32.407406,
33205460,-0.117678255,-0.877404,11.338797,-0.34579468,0.21260789,0.25695717,-34.647305,-19.008743,-31.0532,
33205480,-0.6120451,-1.2232511,12.781474,-0.49027103,0.4497622,0.36228514,-35.18415,-20.485214,-30.662537,
33205500,-0.7830224,-1.4969345,13.486345,-0.40691414,0.34669793,0.4883857,-34.41547,-19.6709,-31.194527,22.0
33205520,-0.01967752,-1.8729392,13.390867,-0.1275488,0.108345225,0.5688131,-34.878307,-19.081318,-30.74857,
33205540,0.53988063,-1.7463639,11.779566,0.100018114,-0.17448224,0.46721357,-33.802574,-18.181679,-30.809612,23.0
33205560,0.25272262,-1.0564661,10.801611,0.13304129,-0.2895307,0.3432435,-35.264435,-17.836494,-30.92736,
33205580,-0.15181382,-0.53694665,10.460256,0.23264343,-0.21562803,0.35655934,-35.41844,-17.402393,-31.323128,
33205600,-0.39974582,-0.10815599,9.542788,0.37685347,-0.13919538,0.44031566,-36.266273,-18.332855,-28.625061,25.0
33205620,0.18085825,0.038866494,7.3712864,0.31839713,-0.15064697,0.5399178,-37.341442,-18.082176,-30.511879,
33205640,1.3684168,-0.3506982,6.296614,-0.09931932,-0.015491661,0.48452413,-36.88221,-16.597607,-30.285503,
33205660,1.5528686,-0.84446615,8.241743,-0.38640785,0.118065745,0.30369565,-37.88312,-16.02083,-30.162315,
33205680,1.3145185,-0.990291,9.347257,-0.22555304,0.073857315,0.12220137,-35.575687,-16.346226,-29.559475,
33205700,0.58749074,-0.53365284,8.790906,0.07192179,-0.06582536,0.010881316,-36.884533,-15.770643,-29.211788,28.0
33205720,0.20391473,0.05503597,6.8104453,0.14808813,-0.13719802,0.02805869,-37.80898,-15.114362,-28.778088,
33205740,5.985033E-4,0.17810367,6.3663826,-0.100118265,0.10435048,0.10675503,-36.730988,-15.619741,-29.132332,
33205760,0.5635359,-0.4312462,8.009981,-0.3268862,0.14043629,0.1305903,-36.347607,-14.729451,-29.13311,
33205780,0.74469405,-0.93190116,9.752392,-0.28054726,-0.14904907,-0.02307396,-35.655735,-13.555887,-30.212837,
33205800,0.22277915,-0.7070256,10.477623,0.15208288,-0.31336597,-0.08991925,-37.195274,-13.780659,-28.93303,30.0
33205820,-0.11618109,0.01820549,9.147833,0.5809846,-0.3229533,0.061880805,-37.427658,-12.966461,-28.483944,
33205840,0.52760375,0.16223364,8.308219,0.658083,-0.036264308,0.24697036,-37.195484,-14.50149,-27.84134,
33205860,1.2782869,0.008024711,8.163891,0.6105456,0.12632155,0.24244298,-37.043922,-13.021589,-27.622559,
33205880,1.3935692,0.1119286,8.339359,0.34582767,-0.048115358,0.04576869,-37.196888,-13.035505,-28.400024,
33205900,0.61863196,0.36435214,9.6389065,0.18816867,-0.30710754,-0.11628452,-37.197327,-13.463835,-27.466488,
33205920,0.3766886,0.47125036,9.641602,0.23930132,-0.32574964,-0.06741556,-37.197533,-13.316426,-27.4682,
33205940,0.44136655,0.4422052,9.342166,0.21959396,0.03470888,0.0726666,-35.967827,-13.139917,-26.743217,
33205960,0.81985223,0.03557271,9.725143,0.047687046,0.19529736,0.1546919,-36.27526,-13.002968,-27.139362,
33205980,1.1261739,-0.69444937,10.5833235,-0.2552473,0.09715995,0.116209246,-36.430744,-12.115057,-26.766602,
33206000,1.8142751,-1.3445224,12.500007,-0.38667414,0.052285723,0.012212892,-35.58519,-11.516055,-26.984653,
33206020,1.8969193,-1.1181495,14.283739,-0.10557774,0.011139922,-0.18273033,-35.509216,-10.633908,-27.225124,
33206040,1.63162,-0.62677705,13.345011,0.32052767,-0.31842595,-0.3487783,-35.96859,-11.393013,-28.233727,
33206060,0.9890328,-0.02700916,10.705493,0.35608086,-0.33014387,-0.37927145,-36.045464,-12.552607,-26.829334,
33206080,0.600067,-0.02157656,10.086818,0.022387031,-0.14132592,-0.2584972,-35.280075,-10.82604,-25.514793,
33206100,1.3399704,-0.6402517,10.922283,-0.24712461,0.035108354,-0.11934715,-35.20102,-11.576975,-26.510098,
33206120,2.4745288,-1.5349628,11.469051,-0.28254464,-0.015491664,-0.17846927,-35.50978,-11.784227,-25.277264,
33206140,2.3631392,-1.7020475,11.21034,-0.1652325,-0.063295364,-0.33146775,-35.664627,-11.049517,-25.289623,
33206160,1.6403035,-1.2522964,10.461154,-0.055377208,-0.056903787,-0.36568934,-35.5113,-11.11278,-24.7434,
33206180,1.314219,-0.730681,9.788322,0.021721244,0.060674682,-0.29764563,-35.741524,-10.68911,-25.760002,
33206200,1.4306992,-0.5001162,9.217602,-0.006241923,0.0028841319,-0.23399612,-35.20485,-10.15111,-24.824299,
33206220,1.807987,-0.6300708,8.28636,-0.2291483,-0.09139168,-0.24318403,-34.050217,-11.013422,-24.476059,
33206240,1.879552,-0.8477599,8.329478,-0.5101116,0.060142048,-0.2847293,-34.58924,-11.086032,-23.869572,
33206260,1.6283263,-0.9061497,9.760477,-0.59333533,0.24989212,-0.28153354,-34.362442,-9.871988,-21.78867,
33206280,1.6456934,-0.8968673,10.57404,-0.44246733,0.1565484,-0.27327773,-33.287037,-10.921837,-19.118767,
33206300,1.6986933,-0.64055103,10.100933,-0.23287673,-0.023880616,-0.3573004,-34.285004,-8.502862,-23.969303,
33206320,1.0977278,0.05982692,8.970267,-0.08746827,-0.2860686,-0.38965774,-34.284245,-9.308979,-23.650414,
33206340,0.827338,0.51257235,7.4578233,-0.09239511,-0.22335121,-0.29018876,-34.13011,-8.586971,-24.815678,
33206360,0.7952985,0.76499593,7.1275463,-0.18480673,0.02498835,-0.19764403,-32.66957,-8.842239,-23.615658,
33206380,0.8587786,0.61348194,7.829722,-0.2399341,0.08810521,-0.15343557,-33.285324,-8.050093,-24.259205,
33206400,0.9620837,0.46077013,8.88493,-0.1611046,-0.054773256,-0.16009347,-31.900366,-8.034872,-24.611847,
33206420,1.3717105,0.37363464,8.6220255,-0.021821402,-0.2217533,-0.14917453,-33.132713,-7.0907574,-24.343899,
33206440,1.8481114,0.28889456,8.028247,-0.007884205,-0.086908706,-0.20301473,-33.901703,-7.1772933,-24.439411,
33206460,1.502264,0.37573063,9.19185,-0.009704031,0.08703995,-0.2644893,-34.67248,-7.4571466,-22.675549,
33206480,0.9177674,0.6041994,10.017391,0.14076445,0.052818365,-0.28552827,-34.054916,-8.201068,-23.734924,
33206500,0.83602166,0.73684895,9.900911,0.31067398,-0.022415876,-0.23439561,-32.516792,-7.8126736,-23.933315,
33206520,1.1129988,0.6410299,9.468528,0.34769186,-0.15424223,-0.20803034,-32.364704,-6.84639,-23.55381,
33206540,1.0492191,0.6030017,9.217302,0.22918133,-0.1612996,-0.19285032,-32.28819,-6.550404,-23.555332,
33206560,0.6506715,0.54311466,10.305448,0.09043074,0.0064793956,-0.1523703,-29.521345,-6.7684555,-21.162514,
33206580,0.24254185,0.5500017,11.6792555,0.14169654,0.021792557,-0.074872404,-31.980762,-6.614807,-23.237411,
33206600,0.30512372,0.49251023,11.387606,0.32398978,-0.1812733,0.037912376,-31.597866,-6.369326,-21.992615,
33206620,0.7938013,0.37573063,10.417438,0.35474926,-0.16875646,0.14443874,-31.597408,-6.9543304,-21.676296,
33206640,1.19175,0.24936916,10.594703,0.19802235,0.059609413,0.20475927,-29.90627,-5.4672985,-22.502659,
33206660,1.251295,0.26280096,11.136038,0.08244126,0.24350053,0.191044,-28.678026,-4.909528,-20.93092,
33206680,0.84919673,0.23709235,11.232498,-0.07588352,0.2825158,0.14403924,-28.445477,-5.2193737,-22.159664,
33206700,0.33776206,-0.02191877,11.504085,-0.2953278,0.2907716,0.17160295,-28.752842,-5.011037,-22.711395,
33206720,0.5443721,-0.72948325,12.012825,-0.5097121,0.2439,0.30742404,-27.83103,-5.053361,-21.527245,
33206740,1.4756145,-1.8200248,12.866513,-0.5667037,0.33884162,0.40276513,-28.063534,-3.1521268,-22.328869,33.0
33206760,1.9355464,-2.419793,14.275055,-0.32981572,0.39050692,0.31967458,-25.679306,-3.2575586,-21.881432,
33206780,1.7076762,-2.1278439,14.74906,0.20228341,-0.115892746,0.07346555,-24.526302,-2.8680522,-21.625114,
33206800,0.9992136,-1.3454206,11.679255,0.62865514,-0.85731626,-0.12786925,-24.909595,-3.7595007,-21.70171,
33206820,0.7542759,-0.80224586,7.662936,0.4857766,-0.82842094,-0.11655085,-23.142778,-1.6758752,-22.146187,
33206840,0.49167162,-0.7758956,7.176953,0.006807551,-0.012029551,0.0035576299,-23.756298,-3.0844421,-22.067745,
33206860,0.6219257,-1.4346521,9.632019,-0.23926832,0.41247794,0.036980275,-21.75801,-2.0199122,-21.875607,
33206880,0.36411235,-1.5385561,10.809097,-0.07255458,0.10315206,-0.08685662,-21.221537,-1.3345032,-20.941612,
33206900,0.03952502,-1.0370028,9.235268,0.22225711,-0.35491124,-0.1422503,-20.296738,-1.5612974,-22.231487,
33206920,0.026050461,-0.47376585,7.00897,0.26100606,-0.33373913,-0.07034503,-18.988285,-0.97382164,-23.675999,
33206940,0.0805476,-0.03359673,6.3882422,0.13756865,-0.021350615,0.05069554,-20.142883,-1.1973891,-22.696163,30.0
33206960,0.40273944,-0.057252087,6.8463774,0.05221441,0.29210317,0.12153557,-17.756046,-2.2783523,-23.398098,
33206980,0.50245124,0.19038051,7.445247,0.015329663,0.2602784,0.07426449,-17.449677,-0.88140345,-23.94833,
33207000,0.579406,0.36704704,7.124552,-0.017959822,-0.057303257,0.049230807,-15.755388,-1.824306,-24.59171,
33207020,0.8138635,0.31195104,7.212586,-0.11156986,-0.07581221,0.032852378,-15.295336,-1.0019193,-24.280254,
33207040,0.6096489,0.33860075,8.183054,-0.073486686,0.034442563,0.0441708,-15.448984,-1.0791163,-24.360569,
33207060,0.59677315,0.12690035,8.442663,0.034637563,0.04988888,0.08092239,-14.75719,-1.3518472,-23.566376,
33207080,0.55155855,0.01581001,9.257726,0.09628969,0.091567315,0.11274713,-13.294977,-1.2675462,-24.304806,
33207100,0.7707448,-0.05246112,9.941634,0.20747656,-0.06382799,0.12220135,-14.448414,-1.2171416,-24.72099,
33207120,1.0749706,-0.068930045,9.65268,0.28896922,-0.25877118,0.096368715,-13.601396,-1.9401889,-24.614166,
33207140,0.9773549,-0.10516165,9.418821,0.26500082,-0.16436224,0.09184134,-12.216934,-1.122325,-25.517792,
33207160,0.88093686,-0.09228596,9.829646,0.15501234,-0.009899031,0.12699503,-12.138877,-1.6428795,-25.896732,
33207180,1.3148178,-0.35938185,10.801911,0.05900547,0.0644031,0.13871293,-12.290104,-3.0548656,-26.503197,
33207200,1.652281,-0.6588166,11.605594,0.09788759,0.004615183,0.07226713,-11.290183,-2.9671447,-26.556728,
33207220,1.7806958,-0.82406175,11.286954,0.1452918,-0.11735749,-0.043313965,-9.828283,-3.5299697,-26.204319,
33207240,1.4007558,-0.9211215,11.229205,0.0946918,-0.13093959,-0.14158453,-10.443426,-3.6867168,-26.2178,
33207260,0.9638803,-0.81601983,11.635838,0.07591652,-0.24279226,-0.136924,-10.9048195,-3.8399718,-26.15012,
33207280,1.4905862,-0.66360754,10.906414,0.037034407,-0.39299443,-0.0539666,-11.366314,-3.919522,-26.083298,
33207300,2.4898002,-0.8663249,9.913188,-0.14991933,-0.21656016,-0.057961345,-9.134564,-4.334846,-26.487267,
33207320,2.400868,-0.7285848,9.765568,-0.4525873,0.049223095,-0.084859245,-9.134944,-4.619241,-25.787548,
33207340,2.566156,-0.88219494,9.931454,-0.77882427,0.23750842,-0.06808135,-8.8243475,-4.942976,-28.020157,
33207360,3.0284834,-1.3792567,11.431324,-0.9035933,0.39290375,-0.11881451,-7.13319,-4.4692783,-27.596664,
33207380,2.7742631,-1.5014261,13.4620905,-0.59173745,0.2512237,-0.24318403,-8.517989,-3.0393612,-29.195309,
33207400,2.1568284,-0.84925723,13.303988,-0.02621561,-0.17914277,-0.3230788,-7.1331844,-4.035157,-28.143368,35.0
33207420,1.9265633,-0.23691297,10.247658,0.22145815,-0.4531818,-0.2959146,-7.286092,-3.9051392,-29.154644,
33207440,2.027772,-0.2363141,8.124366,0.015595974,-0.12774381,-0.20763086,-5.672576,-3.27825,-28.270565,
33207460,1.8579925,-0.6399522,9.267607,-0.22928146,0.3297869,-0.16608559,-5.746422,-3.465045,-30.823856,
33207480,1.449264,-0.7276866,10.781549,-0.13740249,0.19343314,-0.22600666,-5.8233414,-3.4662116,-30.825752,
33207500,1.1752812,-0.4899354,10.049131,0.04262704,-0.06995326,-0.28419667,-4.8224354,-3.536323,-31.573868,
33207520,0.9809481,-0.0120374225,8.754376,0.15887392,-0.14079328,-0.25543457,-3.8221846,-3.8148084,-31.468376,
33207540,1.4052471,0.104442716,6.9056654,-0.011168767,-0.0053716563,-0.19937506,-3.8983564,-4.549547,-31.229614,
33207560,1.3591342,0.06791166,7.4179983,-0.27815044,0.30541897,-0.2141556,-2.8208504,-4.32483,-32.056618,
33207580,1.1124,0.048148975,9.364325,-0.21205969,0.3452332,-0.2280484,-2.4356194,-4.0380726,-32.978943,
33207600,0.76505566,0.24457823,9.3017435,0.04915178,0.1891721,-0.2359935,-1.7420387,-4.1174865,-34.04412,38.0
33207620,0.6342026,0.5497023,8.144128,0.27125925,-0.009899031,-0.19524717,-1.2816792,-3.082094,-34.276817,
33207640,1.062095,0.5907248,7.126049,0.30721188,-0.014160084,-0.13998662,-1.8169279,-5.6652904,-33.950684,
33207660,1.2034283,0.7826626,7.1245522,0.1468897,0.12978365,-0.13412768,-0.7400799,-4.708162,-35.09572,
33207680,1.0803604,0.9099224,8.603761,0.050083883,0.17359261,-0.16395506,0.18277168,-5.1985044,-34.29326,
33207700,0.71505004,1.1270125,8.972665,0.12212233,0.07119416,-0.124939784,0.26132298,-5.5809155,-35.292847,
33207720,0.96777296,0.96621615,9.049619,0.15794182,0.022458347,-0.04304765,-0.7364588,-6.4207377,-36.236534,
33207740,1.1731852,0.69133496,9.467629,0.16326813,0.079716265,0.0030249974,0.9548397,-6.2383833,-35.577515,
33207760,1.3717105,0.5293407,9.789224,0.16806182,0.07492258,0.01953658,1.881423,-7.646766,-37.008415,
33207780,1.2619035,0.39044574,10.236023,0.1484876,-5.7797553E-4,0.0015602598,2.2681093,-8.175392,-38.230797,
33207800,1.1582134,0.35866284,10.557572,0.17498603,-0.019220086,0.02619448,2.5754967,-8.962942,-36.975906,
33207820,1.0438294,0.36075893,10.800415,0.21413447,0.057212573,0.07932449,1.4983063,-9.481318,-36.068115,
33207840,1.1333604,0.20744829,11.314244,0.2463587,-0.042655885,0.104624495,2.0369387,-9.186437,-36.599815,
33207860,1.0465243,0.25266296,11.128295,0.30321714,-0.18886329,0.112613976,2.2709656,-10.890879,-37.42546,
33207880,1.108208,0.289194,10.874973,0.32265818,-0.079008006,0.16294768,2.1951494,-12.136915,-36.87124,
33207900,0.98663735,0.4206459,11.5903225,0.3600756,0.10727996,0.17932612,2.8874092,-11.185623,-38.025772,
33207920,0.8399143,0.5697644,11.613978,0.41387138,-0.07967379,0.12592977,2.8110943,-11.629017,-38.022537,
33207940,0.46651906,1.0255042,10.711481,0.25075293,-0.3933939,0.07932449,1.9674721,-13.266832,-38.2567,
33207960,0.87105554,0.85482633,9.925167,-0.08919932,-0.3695586,0.19144347,2.8910303,-12.8982,-39.16658,
33207980,1.5298121,-0.028506324,10.718669,-0.33860412,0.3011579,0.32619932,1.7369576,-14.069502,-37.479324,
33208000,1.4923826,-0.68217254,12.384126,-0.30358362,0.65016484,0.32646564,0.6613035,-13.088725,-39.83889,
33208020,0.8983041,-0.8714153,12.89526,-0.0401972,0.3815853,0.21115085,1.7377949,-12.995205,-39.581047,
33208040,0.30332708,-0.49592414,11.550498,0.18191025,-0.23520225,0.09583608,1.2010489,-13.170473,-40.907867,
33208060,-0.16109629,-0.035992205,9.06459,0.09216179,-0.47209024,0.13378608,0.5876999,-13.640569,-42.1558,43.0
33208080,-0.08324324,-0.09198653,8.192038,-0.22142515,-0.06236326,0.31408197,0.1271019,-13.876793,-42.7062,
33208100,0.28745705,-0.7109183,9.596686,-0.38773942,0.4047548,0.4336578,0.8193741,-14.372954,-42.06417,
33208120,0.70307267,-1.2343304,11.181594,-0.24193147,0.3201995,0.3785304,-0.5641289,-13.82865,-43.72992,
33208140,0.9375301,-1.1364151,10.8210745,0.087101795,-0.13293697,0.1949056,-1.1777029,-14.947031,-43.96438,
33208160,0.735711,-0.5689862,8.438472,0.24555975,-0.41856074,0.090642914,-1.7192698,-13.031935,-43.53572,47.0
33208180,0.71534944,-0.17133677,7.0535865,0.06473126,-0.098315895,0.115143985,-2.641324,-13.99947,-43.23793,
33208200,0.6560613,-0.12672096,8.2755785,-0.09132984,0.335779,0.15256137,-3.3321085,-14.029663,-44.57025,
33208220,0.50843996,-0.12672096,9.4011545,0.024251241,0.3411053,0.10129555,-2.333396,-13.0574875,-44.634064,
33208240,0.09012952,0.29667988,8.8597765,0.22252342,-0.021084297,0.040176064,-2.6425428,-12.608348,-43.87313,
33208260,-0.09641838,0.67067397,7.525795,0.2424971,-0.22787857,0.077060804,-4.102538,-12.939242,-44.834198,
33208280,0.02485272,0.764397,7.07814,0.100683905,0.040700987,0.20955296,-4.948866,-12.659581,-45.013252,
33208300,0.2449373,0.5104763,8.743895,0.024517559,0.33617845,0.29703772,-4.948865,-12.659581,-45.013252,51.0
33208320,0.59138346,0.49430683,9.240658,0.07205494,0.018330455,0.25589192,-4.7944527,-12.954381,-45.16076,
33208340,0.71355283,0.488917,8.813963,0.069125466,-0.3506502,0.15509138,-4.336006,-11.893509,-43.691383,
33208360,0.5261494,0.489687,8.537285,0.06606284,-0.25371122,0.1739998,-4.949209,-12.220828,-45.25048,
33208380,0.53059816,0.28260645,9.319109,0.119459175,0.15548313,0.2668109,-6.180689,-11.722415,-45.20951,
33208400,0.3775869,0.2643409,10.487804,0.28364292,0.17585629,0.28931457,-6.6414824,-12.752017,-44.58999,
33208420,0.46202755,0.5425159,9.417923,0.30561396,-0.21363068,0.25109825,-6.7980566,-11.125904,-44.148415,
33208440,0.73121953,0.5835385,8.240845,-0.042327724,-0.32228756,0.18079084,-7.1029453,-12.54254,-44.91343,
33208460,0.6318071,0.4149566,9.392471,-0.32675308,-0.10364222,0.18798138,-6.3363323,-11.338855,-44.05709,
33208480,0.4934682,-0.022817079,10.922584,-0.37362465,0.09170047,0.23631771,-7.3352757,-12.018529,-44.151443,
33208500,0.4443609,-0.5168845,12.334419,-0.24219781,0.058277834,0.2891814,-8.33784,-10.04484,-44.27662,
33208520,0.78302175,-0.8549463,12.704519,-0.032207724,-0.06196379,0.32500088,-7.644781,-10.117304,-44.8776,
33208540,1.4696257,-0.900161,12.252672,0.09229496,-0.20364383,0.27413458,-8.031203,-9.158031,-44.43403,
33208560,1.5855069,-0.64324605,11.096555,0.089764945,-0.3076402,0.16880661,-8.0321455,-9.217838,-43.504776,55.0
33208580,1.4633375,-0.63186747,9.8766575,-0.17748302,-0.25983647,0.123000294,-7.953823,-9.307749,-44.66252,
33208600,1.1725863,-0.9345961,10.339285,-0.48840684,0.08171363,0.18704927,-8.802182,-7.9155703,-44.39022,
33208620,1.5052583,-1.8293073,11.870295,-0.5842806,0.3594811,0.26814246,-9.112249,-6.730543,-43.715202,
33208640,1.8415236,-2.4659061,13.1917,-0.37069517,0.3861127,0.23631771,-7.726864,-6.214447,-45.079605,
33208660,1.8049928,-2.3329568,13.085101,0.040097043,0.16879892,0.12845977,-8.650534,-6.4368286,-44.248802,
33208680,1.6046709,-1.716121,11.296877,0.32838398,-0.038661145,0.03897764,-9.267036,-4.9111114,-45.133003,
33208700,1.2031287,-0.94327974,9.502065,0.36007556,-0.09685116,0.04230659,-9.496405,-5.367264,-45.829865,61.0
33208720,1.0366429,-0.6402516,8.533692,0.18297552,-0.0783866,0.09241835,-8.190047,-5.620233,-44.32418,
33208740,1.1680949,-0.70672613,9.359235,0.027447034,-0.034400094,0.20036507,-8.266869,-4.7543178,-45.496857,
33208760,2.7350373,-1.2226523,9.862583,0.072720736,0.030714143,0.3066251,-7.111697,-5.262006,-46.0813,
33208780,3.9258895,-1.6017367,10.481815,0.28737134,0.11353837,0.17027137,-7.496108,-4.836038,-46.792236,
33208800,3.6099856,-1.12324,10.215318,0.5494261,-0.11775696,-0.1514382,-7.4184504,-6.0025616,-46.002968,
33208820,2.5877154,-0.17163616,8.791804,0.7058867,-0.4973902,-0.35263985,-7.3405333,-6.2317734,-46.61744,
33208840,1.8106819,0.72457224,6.911055,0.58098453,-0.7404034,-0.37394512,-8.956486,-5.4513273,-47.05358,
33208860,1.4318969,1.2171426,6.1918125,0.35901034,-0.5091082,-0.23173244,-8.802828,-5.8807964,-46.348343,56.0
33208880,1.7268401,1.2872102,6.9472866,0.12731549,-0.093389064,-0.054232918,-9.416519,-5.91214,-47.83351,
33208900,2.9521275,0.4928097,7.6689243,0.034371246,0.13510996,0.0123460535,-9.109918,-5.7484794,-47.053955,
33208920,4.6422653,-0.34530836,7.8740807,-0.061236158,0.049622566,-0.32907087,-10.030267,-7.028204,-47.91323,
33208940,3.0880706,0.49011475,7.6701226,-0.23620568,-0.28300595,-0.7933926,-8.879631,-6.0282154,-46.271164,
33208960,0.80817425,1.1371933,9.000511,-0.28254464,-0.58167917,-0.8302774,-10.725569,-5.189148,-47.487534,
33208980,0.5383834,1.3165549,8.522314,-0.14192985,-0.54412866,-0.5553062,-10.880774,-4.3772573,-47.268646,
33209000,0.9213606,1.059939,7.8920035,-0.06163562,-0.20870383,-0.28086773,-11.419062,-3.735986,-48.21805,52.0
33209020,1.3516484,0.580544,7.7551622,-0.027280876,0.2280542,-0.11015926,-11.880667,-4.610072,-47.058685,
33209040,1.7133656,0.37393406,8.135744,-0.116230376,0.2526884,-0.14731032,-11.882256,-4.0100117,-46.369225,
33209060,1.6531794,0.34997928,8.6352005,-0.19785619,-0.1530438,-0.28899038,-11.344992,-2.9009054,-46.67823,
33209080,0.9851401,0.805719,8.777133,-0.20877515,-0.5116381,-0.32347828,-11.728716,-3.352444,-46.91469,
33209100,1.0617954,0.91531223,8.80528,-0.122222476,-0.38833386,-0.18193139,-13.191692,-3.0647495,-45.948456,
33209120,1.3417671,1.0296963,8.86277,0.034637563,-0.087263785,0.0094165765,-13.65407,-3.0601716,-45.18618,
33209140,2.4472804,0.9976567,8.043219,-0.014630875,-0.0856659,0.07053607,-12.500996,-3.0333965,-44.538757,
33209160,2.8898454,1.0039449,8.83223,-0.2528504,-0.40244865,-0.11601819,-13.653128,-3.0003645,-46.115433,
33209180,2.8335514,1.1797132,10.118301,-0.24086618,-0.6419997,-0.2833977,-13.964169,-0.78926516,-45.839256,
33209200,3.334805,1.4039899,9.566143,-0.058040366,-0.36809388,-0.24265137,-15.041076,-1.8903284,-44.460396,
33209220,3.2901895,1.3851255,9.81737,0.03290651,0.045228355,-0.15956084,-15.964019,-1.8329482,-44.638786,
33209240,3.145862,1.131504,10.202742,0.076316,-0.10151169,-0.15050611,-16.271317,-1.9873428,-44.799408,
33209260,2.89254,0.8787811,9.929058,0.052081253,-0.572225,-0.2451814,-16.580101,-1.6153822,-44.269722,
33209280,2.606879,0.7566117,9.963194,0.040496513,-0.7866093,-0.34278616,-17.27369,-1.0293031,-43.829468,
33209300,2.1825798,0.8482388,10.200347,0.15248235,-0.82043135,-0.345183,-16.581158,-1.5289383,-43.419548,
33209320,2.4412918,1.2243288,8.301331,0.23104553,-0.42095757,-0.14824243,-17.887959,-2.1384182,-43.444992,
33209340,2.8655906,1.4776508,8.458834,0.0747181,0.6130138,0.12393241,-18.581264,-2.135026,-42.53369,
33209360,3.2279072,1.3791368,10.600691,-0.046988256,0.9051622,0.2360514,-18.580048,-2.1512399,-43.61682,
33209380,3.6303473,0.48322782,11.233696,-0.12102406,0.28810844,0.13019083,-17.12364,0.18125772,-41.905197,
33209400,3.0335739,-0.03090182,11.344787,-0.14099775,-0.1353338,-0.056230288,-16.277025,-0.24697065,-41.801804,56.0
33209420,1.9654899,-0.13630286,11.328616,-0.022354033,-0.26622805,-0.09378082,-15.815424,0.1929946,-42.414467,
33209440,1.9340491,-0.094381995,10.466544,0.14222918,-0.1948554,-0.0078939535,-16.969923,-0.10427666,-41.433777,
33209460,2.533817,-0.23481691,9.585607,0.1700592,0.031912565,0.05136133,-17.048008,0.5613718,-41.21128,
33209480,2.6177444,-0.23819627,9.840082,0.053279668,0.09862469,0.010481842,-16.738363,-0.69041157,-41.421234,
33209500,2.4721334,-0.29111066,10.549487,0.0025465,-0.06755642,-0.044379227,-17.431719,0.03728676,-41.369522,60.0
33209520,2.4146419,-0.24290168,10.656685,0.0880339,-0.109234855,-0.042515017,-18.047009,-0.26223707,-41.07183,
33209540,2.3763144,-0.2965005,10.2566395,0.20734341,0.005147816,-0.025737118,-16.971073,0.9241123,-41.677864,
33209560,2.2502522,-0.33063605,9.947023,0.27645236,-0.04025904,-0.05196923,-17.200733,-1.1925001,-40.034035,
33209580,2.5844216,-0.5117942,9.42451,0.24888869,-0.18513487,-0.16781664,-17.510513,0.78474665,-40.606316,
33209600,2.3068454,-0.21235931,9.790719,0.22199078,-0.31083596,-0.26408985,-17.123608,-0.9046221,-40.577126,
33209620,1.9819587,0.21373643,9.453257,0.27911556,-0.32961124,-0.20576665,-17.048635,0.20790482,-40.201233,
33209640,2.0996366,0.41675323,8.605258,0.24782343,-0.09618537,-0.08126398,-18.893642,-0.19558239,-40.70675,
33209660,2.2831903,0.28380418,8.891817,0.11013812,0.1283189,0.0010276283,-18.28003,0.70515966,-40.237625,
33209680,2.3089414,-0.09168708,9.863782,0.069524944,0.081979945,-0.0016355306,-17.586443,-0.3150401,-40.131165,
33209700,2.2376761,-0.56479406,10.047635,0.23983395,-0.013760611,-0.038786594,-17.04708,-0.68118286,-40.500435,
33209720,1.4582472,-0.12222946,9.069082,0.20188393,0.065068886,-0.010823426,-17.510967,0.42896318,-39.751,
33209740,1.5405917,0.1523523,9.319409,0.17778236,0.14549628,0.10662187,-17.664158,-0.23323774,-39.515,
33209760,2.4733312,-0.03748939,8.707066,0.077913895,-0.067822725,0.096635014,-17.740467,-0.24251175,-40.058464,
33209780,2.912003,-0.2629638,8.999314,-0.117295645,0.21021104,0.01514237,-16.895494,0.2195034,-39.578506,
33209800,2.6829355,-0.088393286,10.556674,-0.018758768,0.22792105,-0.034791857,-16.971636,-0.2262063,-39.729996,
33209820,2.4984837,0.14576472,10.496787,0.12651654,0.024056243,-0.04038449,-16.743513,0.39125252,-38.10646,
