Timestamp,acc_x,acc_y,acc_z,gyro_x,gyro_y,gyro_z,mag_x,mag_y,mag_z,light
2514,0.43956995,0.55539155,9.152924,,,,,,,
2524,,,,0.24047282,-0.2514243,-0.16570668,,,,
2534,0.13773966,0.667979,9.236765,,,,-3.4817333,27.254738,-67.20036,
2544,,,,0.089205384,0.09744949,-0.079952955,,,,
2554,0.08743459,0.6607926,9.397263,,,,-3.0197124,26.38655,-66.55975,
2564,,,,0.00504957,0.21409586,0.014855499,,,,
2574,0.42759258,1.0153234,9.198438,,,,-2.7113533,25.513714,-66.07768,
2584,,,,-0.07591046,0.051643156,0.05640078,,,,
2594,0.710259,0.8691993,10.139861,,,,-3.3269196,26.66512,-67.34445,
2604,,,,-0.16539258,-0.005348441,0.039356563,,,,
2614,0.544971,0.727866,10.405759,,,,-3.4807262,26.517693,-67.1918,
2624,,,,-0.034897815,-0.021327393,-0.059180308,,,,
2634,0.06108433,0.77577555,9.835635,,,,-3.482603,27.26632,-66.4267,
2644,,,,0.1110433,-0.060742144,-0.12203088,,,,
2654,-0.073062465,0.8763857,8.990031,,,,-3.3309002,28.454874,-65.9724,
2664,,,,0.13820751,-0.021327393,-0.053853996,,,,
2674,0.19044018,0.9314817,9.009194,,,,-4.0970497,27.100306,-67.05911,
2684,,,,0.008777991,0.005836825,0.050009195,,,,
2694,0.49227053,0.8356626,9.703884,,,,-3.483059,27.851322,-66.74301,
2704,,,,-0.09188941,-0.0026852824,0.075575516,,,,
2714,0.7126545,0.68953836,9.914686,,,,-3.019558,27.397568,-67.96434,
2724,,,,-0.056735717,0.02873999,0.02976919,,,,
2734,0.37010103,0.81170774,9.323003,,,,-4.556774,25.911713,-67.21155,
2744,,,,-0.013592543,0.107569486,-0.046397153,,,,
2754,-0.33656508,0.95304096,9.495477,,,,-3.4813309,26.959919,-67.196945,
2764,,,,-0.063127294,0.176279,-0.017102407,,,,
2774,-0.20002282,0.838058,9.58411,,,,-2.5589561,26.693005,-66.24231,
2784,,,,-0.037028342,0.12887478,0.122979745,,,,
2794,0.21679044,0.9769957,9.538596,,,,-1.3272133,27.566025,-68.233734,
2804,,,,-0.03116939,0.089460015,0.19488502,,,,
2814,0.25272262,1.0416737,10.398573,,,,-4.7113857,26.353922,-67.06575,
2824,,,,-0.09242204,0.06815474,0.174645,,,,
2834,0.06108433,0.85482633,10.777058,,,,-2.559826,26.704586,-65.46864,
2844,,,,0.038072735,0.008499985,0.10646816,,,,
2854,-0.28386456,0.9961597,10.515951,,,,-3.1760292,27.575071,-65.80359,
2864,,,,0.22662438,-0.15821375,0.07504288,,,,
2874,-0.09701724,1.2500803,9.543386,,,,-2.7117367,27.545013,-68.26793,
2884,,,,0.35339075,-0.25248957,0.12084922,,,,
2894,0.039525032,1.8633229,8.489376,,,,-3.482603,27.26632,-66.4267,
2904,,,,0.28627914,-0.10708111,0.15547027,,,,
2914,-0.13774037,2.110057,8.992427,,,,-2.251749,26.414438,-65.45763,
2924,,,,0.02635484,0.1848011,0.17890607,,,,
2934,-0.02036193,1.8633229,10.024878,,,,-3.6351948,27.102676,-67.35718,
2944,,,,-0.16485997,0.17361583,0.19808082,,,,
2954,0.0107792765,1.5159785,11.002233,,,,-3.6344986,27.093412,-67.97612,
2964,,,,-0.13130416,-0.08950426,0.109131314,,,,
2974,-0.073062465,1.403391,11.057329,,,,-0.86473465,26.112835,-67.27681,
2984,,,,0.1430012,-0.32439485,-0.014439248,,,,
2994,-0.03713028,1.6644982,9.131364,,,,-4.096813,27.676044,-67.99437,
3004,,,,0.40771917,-0.29936117,-0.06131084,,,,
3014,0.099411994,1.9447691,7.126349,,,,-3.0206013,27.411465,-67.035934,
3024,,,,0.23301597,-0.024523186,-0.07942033,,,,
3034,-0.07066698,1.8345772,7.6533537,,,,-4.0953465,26.353996,-67.669495,
3044,,,,-0.3299758,0.22528112,-0.0975298,,,,521.0
3054,-0.40603396,1.4513005,9.641601,,,,-3.3265152,26.3703,-67.34102,
3064,,,,-0.71347064,0.26735902,-0.08847506,,,,
3074,-0.7581693,1.12312,10.7387295,,,,-4.8649025,26.492046,-67.53548,
3084,,,,-0.61227065,0.12248318,-0.047995046,,,,
3094,-0.7485874,1.1566567,10.245262,,,,-3.0198498,27.112015,-67.34198,
3104,,,,-0.24262418,-0.10175479,0.04415025,,,,
3114,-0.48748025,1.417764,9.124178,,,,-3.3271103,27.680767,-68.43956,
3124,,,,-0.029571494,-0.24450009,0.13629553,,,,
3134,-0.23116404,1.6716845,8.527704,,,,-1.4811401,27.13073,-67.613464,
3144,,,,-0.059931505,-0.20881377,0.20660293,,,,583.0
3154,0.041920513,1.7962494,9.188856,,,,-3.789999,28.560535,-68.3065,
3164,,,,-0.20693785,-0.11240742,0.23802818,,,,
3174,0.34375083,1.5375378,10.070392,,,,-3.1753864,27.855991,-66.73541,
3184,,,,-0.24901576,-0.086308464,0.2145924,,,,
3194,0.47310662,1.4297413,10.518346,,,,-3.1763935,28.593037,-66.74397,
3204,,,,-0.12597784,-0.1374411,0.17251448,,,,
3214,0.52820265,1.559097,10.400968,,,,-2.558609,26.688374,-66.55179,
3224,,,,0.040735893,-0.23224956,0.117120795,,,,
3234,0.56413484,1.7579218,9.682323,,,,-3.175314,29.302286,-68.60933,
3244,,,,0.14566436,-0.2061506,0.06811867,,,,647.0
3254,0.4659202,2.0429838,9.397263,,,,-3.4825382,27.844374,-67.207214,
3264,,,,0.06949801,-0.08098215,0.05746604,,,,
3274,0.6767223,2.0861022,9.720652,,,,-0.40504074,27.446522,-67.28082,
3284,,,,-0.09295467,0.067089476,0.06758604,,,,
3294,0.61683536,1.8609275,10.640516,,,,-2.095049,25.944433,-67.460236,
3304,,,,-0.2159926,0.16935478,-0.040538203,,,,
3314,-0.10899465,1.5950292,11.572357,,,,-1.9466228,29.781721,-67.34621,
3324,,,,-0.12597784,0.14751688,-0.15132561,,,,
3334,-0.5545536,1.6980348,11.354368,,,,-2.0974007,28.291397,-68.26129,
3344,,,,0.15099068,-0.08577583,-0.11617191,,,,706.0
3354,,,,,,,-3.1732445,27.53801,-68.27933,
3364,-0.085039854,1.8513454,10.693215,0.37789178,-0.27059907,0.0015397047,,,,
3374,,,,,,,-3.1732445,27.53801,-68.27933,
3384,0.3820784,1.8249952,10.422527,0.43275288,-0.25195694,0.034030244,,,,
3394,,,,,,,-3.173767,27.54496,-67.81511,
3404,0.5401801,1.6908484,10.240471,0.37735915,-0.07725373,0.011659708,,,,
3414,,,,,,,-3.173767,27.54496,-67.81511,
3424,0.5473665,1.6716845,10.63812,0.23674439,0.09744949,-0.019232932,,,,
3434,,,,,,,-3.48036,28.24954,-69.68808,
3444,0.8108691,0.9290862,11.68734,0.1078475,0.08466633,-0.064506635,,,,762.0
3454,,,,,,,-3.0195007,27.107384,-67.65146,
3464,0.6863043,0.3853126,12.595226,0.14087068,-0.108679,-0.18168563,,,,
3474,,,,,,,-3.3271103,27.680767,-68.43956,
3484,0.6431856,0.2607477,11.838255,0.3294223,-0.24077167,-0.28341827,,,,
3494,,,,,,,-3.3272305,27.392899,-67.97194,
3504,0.78930986,0.08348228,10.472832,0.30492124,-0.18164954,-0.3260288,,,,
3514,,,,,,,-3.7886448,27.818857,-68.60741,
3524,0.44436085,0.004431486,10.324313,0.0726938,0.14219056,-0.29300565,,,,
3534,,,,,,,-5.019617,28.382868,-69.10886,
3544,0.2886548,-0.29979423,11.299272,-0.14089152,0.30837163,-0.18328352,,,,831.0
3554,,,,,,,-3.4788132,26.492212,-68.89386,
3564,0.5186207,-0.4626868,12.223927,-0.10094415,0.15710425,-0.0991277,,,,
3574,,,,,,,-3.171955,26.218277,-67.79971,
3584,0.8635696,-0.16804296,11.96282,0.23780966,-0.081514776,-0.06503927,,,,
3594,,,,,,,-4.7094173,26.038258,-68.454926,
3604,1.050417,0.16732404,10.056019,0.59840137,-0.14489795,-0.054919258,,,,
3614,,,,,,,-4.862816,26.464252,-69.39226,
3624,1.0096939,0.82368517,8.463026,0.63515294,-0.02345792,-0.032548726,,,,
3634,,,,,,,-3.4792252,25.918789,-67.80388,
3644,1.3354789,1.0464647,7.765941,0.41677392,0.12301581,0.01219234,,,,896.0
3654,,,,,,,-3.6304073,24.723286,-68.7224,
3664,1.5127444,1.118329,8.065376,0.10731487,0.16562636,-0.031483464,,,,
3674,,,,,,,-3.7874928,27.224588,-68.91002,
3684,1.26601,1.008137,8.6355,-0.04341992,0.17734425,-0.13161825,,,,
3694,,,,,,,-3.6318703,26.045334,-69.04727,
3704,0.7006771,0.9266907,8.463026,-0.037028342,0.08573159,-0.23601407,,,,
3714,,,,,,,-4.5534496,24.85437,-68.90163,
3724,0.099411994,1.0847923,7.943207,-0.103607304,-0.07246004,-0.29300565,,,,
3734,,,,,,,-2.7072983,25.170254,-69.323654,
3744,-0.15929969,1.1039561,8.125263,-0.28150633,-0.13104953,-0.22695933,,,,
3754,,,,,,,-2.0935745,25.490625,-68.22876,
3764,-0.3701018,1.0009506,8.961285,-0.3683253,-0.05168741,-0.07089822,,,,
3774,,,,,,,-4.246666,25.883953,-69.37021,
3784,-0.010780022,1.0512556,9.392472,-0.22131892,-0.06926425,0.089956574,,,,
3794,,,,,,,-4.2492924,26.932032,-68.29907,982.0
3804,0.7342138,1.3147583,9.0595,-0.015190437,-0.30042645,0.107533425,,,,
3814,,,,,,,-3.017332,26.644308,-69.038925,
3824,1.151027,1.4896282,8.319297,0.0961296,-0.39416963,0.03882393,,,,
3834,,,,,,,-4.09326,26.3262,-69.52629,
3844,0.82524204,1.7579218,7.6198173,0.06790012,-0.18804112,-0.023493987,,,,
3854,,,,,,,-2.7095222,25.923513,-68.2491,
3864,0.34614623,1.8657182,7.6174216,-0.053539924,0.0724158,-0.0043192445,,,,
3874,,,,,,,-3.785616,26.475962,-69.675125,
3884,0.42280155,1.8896731,8.106099,-0.12651047,0.11502634,0.083565,,,,
3894,,,,,,,-3.014906,25.74364,-70.11177,
3904,1.0671853,1.94956,8.575613,-0.096150465,-0.04103477,0.11445763,,,,
3914,,,,,,,-3.6344357,27.671467,-68.75664,
3924,1.4887896,2.1076615,8.242642,-0.07750835,-0.13158216,0.013790234,,,,
3934,,,,,,,-4.402563,25.764322,-67.36076,
3944,1.1366543,2.2992997,8.451048,-0.21972103,0.0010431398,-0.11191086,,,,
3954,,,,,,,-4.2483406,26.485172,-68.60339,
3964,0.5234117,2.2154582,9.521827,-0.34222636,0.18959479,-0.100192964,,,,
3974,,,,,,,-4.399523,25.289667,-69.52191,
3984,0.38926488,1.9423736,10.475228,-0.33370423,0.1949211,0.011127076,,,,
3994,,,,,,,-4.554394,26.169472,-69.690704,
4004,0.43717444,1.4441142,11.428628,-0.19202417,0.14219056,0.07930394,,,,
4014,,,,,,,-3.4792976,27.22231,-69.36662,
4024,0.37010103,1.0847923,12.128108,0.07056327,-0.0080116,0.05160709,,,,
4034,,,,,,,-3.0169277,26.349491,-69.03549,
4044,0.324587,0.9171088,11.895747,0.36883706,-0.2327822,-5.8190548E-5,,,,
4054,,,,,,,-4.094881,26.637232,-68.44658,
4064,0.18085825,0.9817867,10.796222,0.5126476,-0.2194664,0.04521551,,,,
4074,,,,,,,-3.3237953,25.755184,-69.036255,
4084,0.077852696,1.2716396,10.343477,0.40718654,0.023946306,0.20926608,,,,
4094,,,,,,,-4.7101307,27.060856,-69.085846,
4104,0.5593439,1.2117527,11.066911,0.18241595,0.25404322,0.34135878,,,,
4114,,,,,,,-3.4787579,26.202026,-68.58098,
4124,0.73900473,1.173425,12.1856,0.040735893,0.4101043,0.30300927,,,,
4134,,,,,,,-2.3993416,24.592236,-68.84502,
4144,0.59527606,0.95304096,12.559294,0.0625738,0.43300748,0.15387239,,,,
4154,,,,,,,-4.093727,26.042963,-68.74921,
4164,0.69588614,0.51945937,11.627453,0.15045805,0.30837163,0.023377609,,,,
4174,,,,,,,-2.7096329,26.503885,-68.87486,
4184,0.63120824,0.35417137,10.472832,0.04819274,0.21249795,-0.10498665,,,,
4194,,,,,,,-2.7085514,27.213135,-70.740234,
4204,-0.25272334,0.20804717,10.403364,-0.24155892,0.31849167,-0.20192564,,,,
4214,,,,,,,-2.2454681,25.317719,-69.77818,
4224,-1.5199316,0.19127882,11.416651,-0.35287896,0.44898644,-0.12096559,,,,
4234,,,,,,,-4.4015903,27.053944,-69.85191,
4244,-1.7498974,0.20325622,11.589125,-0.1169231,0.27534848,0.12777342,,,,
4254,,,,,,,-2.403782,26.966995,-67.789276,
4264,-0.79889244,0.4380131,10.257238,0.16270858,-0.15128954,0.33336928,,,,
4274,,,,,,,-1.0173264,25.949194,-68.207306,
4284,0.52820265,0.617674,9.167296,,,,,,,
4294,,,,0.1882749,-0.3670054,0.38077354,-3.018221,27.669224,-69.51511,
4304,1.2636145,0.337403,8.798393,,,,,,,
4314,,,,0.035942208,-0.29882854,0.25400716,-2.5553665,26.066309,-68.71121,
4324,1.1318632,0.22481552,8.819952,,,,,,,
4334,,,,-0.14994626,-0.21147692,0.028171293,-2.4026546,26.517818,-68.24835,
4344,0.49945688,0.29907534,8.611546,,,,,,,
4354,,,,-0.25913578,-0.07778636,-0.106051914,-2.5544968,26.054728,-69.48488,
4364,-0.00598906,0.4260357,9.116992,,,,,,,
4374,,,,-0.27298424,0.0708179,-0.041070834,-1.7834759,24.594627,-69.29401,
4384,0.044315994,0.3589623,8.872653,,,,,,,
4394,,,,-0.088160984,0.12088528,0.10220711,-3.1707382,26.202065,-68.88284,
4404,0.2862593,0.63923335,8.118077,,,,,,,
4414,,,,0.085476965,0.012228407,0.1741124,-2.2434464,24.711868,-70.85446,
4424,0.59527606,1.0129279,8.051003,,,,,,,
4434,,,,0.0742917,-0.14276743,0.15866607,-2.7096329,26.503885,-68.87486,
4444,0.7677505,1.0704194,8.597173,,,,,,,
4454,,,,0.08121592,-0.105483204,0.0904892,-2.7083054,25.907299,-69.332214,
4464,0.5066433,1.0919788,8.343252,,,,,,,
4474,,,,0.2031886,0.03513157,0.013257603,-1.7872219,26.960121,-68.85721,
4484,0.23595428,1.3075719,7.9456024,,,,,,,
4494,,,,0.23940754,-0.019196866,-0.007515035,-2.2464752,26.054764,-69.78674,
4504,0.31500506,1.6429387,8.146823,,,,,,,
4514,,,,0.15365383,-0.23438008,0.027638663,-1.7841263,26.195278,-70.705444,
4524,0.7581686,1.7171986,9.030754,,,,,,,
4534,,,,0.14513172,-0.2881759,0.054802883,-1.782835,24.875547,-70.225845,
4544,0.97136617,1.7986449,9.08585,,,,,,,
4554,,,,0.25006017,-0.1992264,-0.003253981,-3.1711407,26.496881,-68.88626,
4564,0.7222364,2.0022607,9.049918,,,,,,,
4574,,,,0.29480124,-0.07831899,-0.08794243,-2.5573177,28.118454,-69.508835,
4584,0.6575585,2.0381927,9.320607,,,,,,,
4594,,,,0.27456126,-0.092167415,-0.12256349,-2.7072983,25.170254,-69.323654,1047.0
4604,1.0719763,1.7531308,9.847611,,,,,,,
4614,,,,0.25538647,-0.14489795,-0.15079299,-2.7091103,26.496937,-69.339066,
4624,0.92106116,1.5351423,10.242866,,,,,,,
4634,,,,0.19999279,-0.16407269,-0.25305825,-2.247282,26.6444,-69.793594,
4644,0.19523114,1.3746452,10.657284,,,,,,,
4654,,,,0.12276119,-0.06819899,-0.31004986,-1.4750156,25.022991,-70.529434,
4664,-0.087435335,1.1758205,10.918391,,,,,,,
4674,,,,0.085476965,-0.050089512,-0.251993,-2.553278,26.038513,-70.56801,
4684,-0.104203686,1.3435041,11.922097,,,,,,,
4694,,,,-0.018386228,-0.16300742,-0.18541406,-3.320757,25.280529,-71.19737,
4704,0.41082418,0.99855506,12.949757,,,,,,,
4714,,,,-0.02477781,-0.19176954,-0.09486665,-2.5528755,25.743694,-70.56459,
4724,1.1150949,0.56257796,12.949757,,,,,,,
4734,,,,0.12063067,-0.09536321,-0.06503927,-2.0916615,25.465145,-69.93082,
4744,1.6828233,0.30147082,11.620267,,,,,,,
4754,,,,0.19839491,0.0473821,-0.15079299,-3.4768448,26.176548,-70.28305,
4764,1.7522922,0.14336924,10.78664,,,,,,,
4774,,,,-0.08762835,0.24285798,-0.28022248,-3.632759,27.07025,-69.52345,
4784,0.8156601,-0.23032543,11.9268875,,,,,,,
4794,,,,-0.48497164,0.51183707,-0.36064985,-3.632759,27.07025,-69.52345,1113.0
4804,-0.33656508,-0.23751184,13.26596,,,,,,,
4814,,,,-0.4791127,0.55284965,-0.29353827,-2.247345,26.066345,-69.01308,
4824,-0.4898757,0.2487703,12.81561,,,,,,,
4834,,,,0.017300101,0.2987843,-0.05119084,-2.247345,26.066345,-69.01308,
4844,0.42519706,0.9242953,10.690821,,,,,,,
4854,,,,0.5760308,0.0037062988,0.15333974,-2.0923214,26.19756,-70.248856,
4864,1.4289026,1.4776508,8.0438175,,,,,,,
4874,,,,0.7097214,-0.080449514,0.17517765,-2.3987198,25.88649,-71.02669,
4884,1.9918399,1.6932439,6.601739,,,,,,,
4894,,,,0.29959494,0.04951263,0.06279235,-0.8597908,24.744461,-70.0466,
4904,1.9032073,1.6812665,7.243727,,,,,,,
4914,,,,-0.31399685,0.25191268,-0.110845596,-2.3988743,24.875473,-69.6221,
4924,1.220496,1.2908034,8.887026,,,,,,,
4934,,,,-0.6282496,0.36483064,-0.29673406,-1.4764805,26.345041,-70.854294,
4944,0.13055322,1.0464647,9.986549,,,,,,,
4954,,,,-0.4993527,0.26043478,-0.42243513,-1.4756756,25.755405,-70.84744,
4964,-0.6168361,1.072815,9.632019,,,,,,,
4974,,,,-0.06472518,0.007434721,-0.3697046,-1.1683502,25.764706,-70.530396,
4984,-0.48268926,1.3435041,8.003094,,,,,,,
4994,,,,0.31663913,-0.18484534,-0.20405616,-1.7827168,25.163416,-70.69347,
5004,-0.29584196,1.6860574,6.546643,,,,,,,
5014,,,,0.32675916,-0.16354007,-0.085811906,-1.9346294,23.254028,-70.056076,
5024,-0.45633903,1.7603173,6.970643,,,,,,,
5034,,,,0.0742917,-0.005881073,0.02124708,-2.2469425,25.771526,-69.00966,
5044,-0.17846352,1.7219896,8.163591,,,,,,,
5054,,,,-0.047148347,-0.018664235,0.12883869,-2.2438488,25.006687,-70.85788,
5064,0.73900473,1.6597072,8.65706,,,,,,,
5074,,,,0.0844117,-0.16140953,0.12990394,-2.551466,24.711832,-70.5526,
5084,1.2947557,1.8130177,7.914461,,,,,,,
5094,,,,0.18028542,-0.2844475,0.009529181,-1.9349594,24.995142,-71.93341,
5104,0.7749369,2.2130625,7.998303,,,,,,,
5114,,,,0.085476965,-0.14649585,-0.07196348,-3.6292439,24.997257,-70.11841,
5124,0.2862593,2.3831418,8.678618,,,,,,,
5134,,,,0.029017996,0.07348106,-0.008580298,-3.6279716,24.690857,-70.88866,
5144,0.45873374,2.1795259,9.023568,,,,,,,
5154,,,,-0.029571494,0.107569486,0.043617614,-2.551384,24.276554,-70.08325,
5164,0.35093725,1.5878428,10.7051935,,,,,,,
5174,,,,-0.1808389,0.029272621,-0.0064497716,-1.7831821,24.88018,-69.91638,
5184,0.11618033,0.99136865,12.025102,,,,,,,
5194,,,,-0.090291515,-0.1875085,-0.03627715,-2.551731,24.281185,-69.7738,
5204,0.28386384,0.95304096,11.287294,,,,,,,
5214,,,,0.17282858,-0.4271928,-0.06716979,-2.3992786,25.170292,-69.625534,
5224,0.16408992,1.1854024,10.76508,,,,,,,
5234,,,,0.21756965,-0.43038857,-0.09593191,-3.1692715,24.880014,-68.55797,
5244,-0.01796645,1.3722497,11.534029,,,,,,,
5254,,,,0.15258858,-0.113472685,0.026573397,-3.1674595,23.553333,-68.54256,
5264,0.09222555,1.4776508,11.61308,,,,,,,
5274,,,,0.2468644,0.29825166,0.2726493,-3.4760742,24.863764,-69.33923,
5284,0.38686943,1.9759103,10.422527,,,,,,,
5294,,,,0.2687023,0.4367359,0.4020788,-1.9334126,23.237816,-71.139206,
5304,0.71984094,2.1675487,10.051228,,,,,,,
5314,,,,-0.02531044,0.3627001,0.34029353,-1.318388,23.106693,-70.6581,
5324,1.1941457,1.5375378,10.6261425,,,,,,,
5334,,,,-0.41945794,0.20610636,0.16345975,-0.39626884,23.277374,-70.01808,
5344,0.78451884,0.7063067,11.493306,,,,,,,
5354,,,,-0.63410854,0.16189793,-0.0772898,-2.546732,22.622627,-72.2307,
5364,-0.42040685,0.19127882,11.663384,,,,,,,
5374,,,,-0.5840411,0.17201795,-0.22269829,-1.0089588,22.074867,-70.94798,
5384,-1.5414908,0.2152336,11.239386,,,,,,,
5394,,,,-0.4370348,0.048979998,-0.16197824,-1.4767017,24.75597,-68.669205,
5404,-1.5295134,0.2679341,11.11003,,,,,,,
5414,,,,-0.30014843,-0.14915901,0.081434466,0.06370163,23.160131,-68.45763,
5424,-0.38926563,0.17451046,10.166211,,,,,,,
5434,,,,-0.17657785,-0.29403484,0.27477983,-2.3984623,25.448895,-70.71208,
5444,0.5329936,0.112228036,9.55776,,,,,,,
5454,,,,-0.22025365,-0.2759254,0.2795735,-3.0154648,25.027443,-68.71062,
5464,0.79170537,-0.0051504374,9.814075,,,,,,,
5474,,,,-0.30387688,-0.17951901,0.17997134,-1.3204021,24.580784,-70.67522,
5484,0.7797278,0.033177227,9.203229,,,,,,,
5494,,,,-0.25913578,-0.12891899,0.059063938,-2.3978672,24.138428,-69.61354,
5504,0.42759258,0.40926737,8.383975,,,,,,,
5514,,,,-0.20640524,0.01009788,-0.032016095,-3.4747849,23.544031,-68.85962,
5524,0.06587529,0.55539155,8.000699,,,,,,,
5534,,,,-0.20320943,0.19279057,-0.02189609,-1.7820663,23.562763,-69.28203,
5544,-0.104203686,0.5362277,8.154009,,,,,,,
5554,,,,-0.21386208,0.26735902,0.041487087,-3.473219,23.523186,-70.25223,
5564,-0.16648611,0.6248604,8.249828,,,,,,,
5574,,,,-0.19308944,0.20610636,0.083565,-1.012886,23.574436,-69.26303,
5584,-0.26709622,0.7949394,8.312111,,,,,,,
5594,,,,-0.113194674,0.07827474,0.10806605,-2.7049255,24.559772,-70.70941,
5604,-0.29823744,1.0943742,7.9959073,,,,,,,
5614,,,,0.015702203,-0.070862144,0.14002395,-2.397171,24.129162,-70.23248,
5634,0.06587529,1.233312,7.952789,0.04180116,-0.18537796,0.16399238,-2.089445,23.843647,-69.91199,
5654,0.324587,1.0105325,8.776834,-0.0013420116,-0.17152955,0.14162184,-1.4736614,24.281315,-70.83032,
5674,0.209604,1.0560466,9.36133,0.040203262,-0.10122215,0.10433763,-2.0892887,24.854664,-71.316574,
5694,0.16408992,1.1997752,9.620042,0.1680349,-0.029849501,0.14428501,-2.550579,23.686916,-70.0764,
5714,0.5545529,1.168634,9.806889,0.31078017,-0.06873162,0.21192923,-2.3974094,23.553425,-69.297226,
5734,0.985739,1.1662385,9.68472,0.42902443,-0.16620322,0.17677554,-1.7781391,22.063194,-70.96698,
5754,1.2468462,1.1758205,9.531409,0.41464338,-0.25675064,0.040421825,-2.088438,23.106602,-69.90343,
5774,1.0647899,1.3243401,9.725443,0.2436686,-0.24077167,-0.12362876,-3.011427,22.9475,-69.76979,
5794,0.66234946,1.2213346,10.379409,0.13607699,-0.0042831777,-0.13907509,-3.1617565,22.753748,-72.71179,
5814,0.48029304,1.0752103,10.151838,0.14672963,0.19279057,-0.08634454,-2.544508,21.869366,-73.30527,
5834,0.48029304,1.1758205,10.331499,0.03967063,0.19438848,-0.07356137,-2.7010994,21.759,-70.67688,
5854,0.9809481,0.82128966,11.378323,-0.16858837,-0.018664235,-0.08954033,-3.6235847,22.606285,-72.25729,
5874,1.5151397,0.68474734,12.058639,-0.31080106,-0.276458,-0.22802459,-2.6983795,21.143885,-72.3721,
5894,1.8576932,0.4643634,11.948447,-0.38004318,-0.2210643,-0.3377467,-2.2437115,24.281223,-70.07565,
5904,,,,,,,,,,1184.0
5914,2.207433,-0.11534244,11.663384,-0.56699693,0.009032616,-0.40592358,-4.0843334,23.16807,-73.66814,
5934,1.6995916,-0.70942116,12.650322,-0.7550159,0.23859692,-0.53695095,-4.239012,23.032223,-72.74182,
5954,0.6359992,-0.92501414,13.936694,-0.57019275,0.32541585,-0.5497342,-3.4713955,23.064743,-71.33023,
5974,0.051502436,-0.57527435,12.930593,0.02688747,0.20237795,-0.36118248,-3.6233654,24.195354,-74.4424,
5994,0.38447392,0.023595303,9.996132,0.51318026,0.12514633,-0.11723717,-3.1632023,23.062462,-71.786835,
6014,0.935434,0.46675885,8.106099,0.45885184,0.25404322,0.0073986542,-5.3159103,21.424494,-70.73805,
6034,1.1869593,0.55539155,8.197128,0.043399055,0.33180746,-0.044799257,-3.6257477,23.9376,-71.96323,
6054,0.87315154,0.47873622,9.231975,-0.23729788,0.23273796,-0.19287089,-4.2383976,23.458237,-73.83009,
6074,0.47550213,0.53383225,9.126573,-0.16272941,-0.014403181,-0.28448352,-3.1617565,22.753748,-72.71179,
6094,-0.00598906,0.8524308,8.328879,-0.018918859,-0.18218218,-0.30365825,-5.3178787,24.489971,-72.78554,
6114,-0.4802938,1.0129279,7.6749134,0.02582221,-0.10921163,-0.22536142,-5.0068283,23.147114,-74.155136,
6134,-0.5018531,1.127911,7.411411,-0.009331488,0.026609464,-0.04266873,-4.2405033,24.499367,-73.22313,
6154,0.16648537,1.3890182,7.7898965,-0.090291515,-0.026653713,0.09261973,-4.699156,23.151783,-74.14754,
6174,0.5976715,1.3458996,8.2115,-0.06738835,-0.11400532,0.06918394,-5.0069466,22.859243,-73.687515,
6194,0.36770558,1.3339221,8.25941,0.08121592,-0.1827148,0.0031376001,-4.393362,23.905079,-73.37483,
6214,0.31260955,1.4776508,8.120473,0.217037,-0.21893376,0.020714449,-4.393362,23.905079,-73.37483,
6234,0.48268855,1.5495151,8.0438175,0.2489949,-0.14809375,0.0702492,-5.4684544,22.85224,-73.69891,
6254,0.66234946,1.8058314,8.501353,0.15898016,-0.03837161,0.09421763,-4.54303,22.978912,-75.998825,
6274,1.0528125,1.8010404,9.045127,0.08228118,0.109700024,0.084097624,-4.087446,24.946243,-73.06975,
6294,1.0647899,1.5303513,9.306233,0.044464316,0.20557375,0.0047354954,-7.0047007,22.656006,-75.437256,
6314,0.19283566,1.3411086,9.787725,-0.0934873,0.102775805,-0.11617191,-5.0079536,23.596289,-73.696075,
6334,-0.51143503,0.90513146,10.975883,-0.21812312,-0.10654847,-0.12788983,-3.778181,24.784973,-74.298294,
6354,-0.44196618,0.34219396,12.3101635,-0.15953363,-0.29616538,-0.024026617,-6.0850906,24.162636,-74.19371,
6374,-0.25272334,0.023595303,13.237215,0.07855275,-0.41281173,0.08676079,-5.0078354,23.88416,-74.1637,
6394,-0.14492682,0.23918839,12.827588,0.4396771,-0.33558014,0.22737555,-7.469139,25.2931,-76.098404,
6414,0.2862593,0.9602275,11.217826,0.60905397,-0.12945163,0.40793777,-8.085243,24.714973,-74.71416,
6434,0.91147923,1.5495151,10.118301,0.37416336,0.17947479,0.49475673,-6.8538685,23.856144,-74.20929,
6454,1.385784,1.1662385,10.6261425,-0.090291515,0.4015822,0.38237143,-6.7014685,25.035435,-74.37392,1096.0
6474,1.5031624,0.26553866,11.625058,-0.49296114,0.26522848,0.10487026,-4.7012787,25.206245,-74.79042,
6494,0.56892574,-0.12013337,12.650322,-0.6868391,0.079872645,-0.19287089,-6.7027416,25.341835,-73.60367,
6514,-0.41801137,-0.5105964,13.035994,-0.5041464,0.17255057,-0.24986249,-6.548009,25.187494,-74.2171,
6534,-0.7605648,-0.5465286,12.03708,-0.08549783,0.2705548,-0.106051914,-5.930786,24.448206,-74.96701,
6554,-0.5904858,-0.23272088,10.460855,,,,-7.4703646,24.441074,-73.92186,
6564,,,,0.15791489,0.13899477,0.029236559,,,,
6574,-0.23355952,-0.12731981,9.449963,,,,-7.4699535,25.014496,-75.01184,
6584,,,,0.092401184,-0.11134216,0.0904892,,,,
6594,0.1880447,-0.09138766,9.28228,,,,-7.4709606,25.751541,-75.0204,
6604,,,,-0.08123677,-0.25408748,0.09581552,,,,
6614,0.46112925,-0.24469826,9.272697,,,,-7.6267376,25.919779,-73.47859,
6624,,,,-0.11798836,-0.12146217,0.053737618,,,,
6634,0.32698244,-0.14887914,8.740901,,,,-7.6244583,24.876335,-74.240265,
6644,,,,-0.04555045,0.104906335,-0.00591714,,,,
6654,-0.06108506,0.22002456,8.163591,,,,-7.780656,26.352722,-73.95172,
6664,,,,-0.026375704,0.22421585,-0.019765563,,,,
6674,-0.28386456,0.35177588,7.892902,,,,-7.1656876,26.511786,-73.78351,
6684,,,,-0.04555045,0.21036743,0.021779712,,,,
6694,-0.22637309,0.46915433,7.7707324,,,,-7.0133705,28.126356,-74.417465,
6704,,,,-0.041822027,0.026609464,0.058531303,,,,
6714,-0.27428266,0.7518208,7.66054,,,,-7.4736795,26.366657,-73.32518,
6724,,,,-0.030104125,-0.1741927,0.06385762,,,,
6734,-0.38207918,0.9698093,7.7539644,,,,-7.625575,26.19375,-74.8746,
6744,,,,0.03274642,-0.18963902,0.11605553,,,,
6754,-0.17367256,1.1159335,7.6988683,,,,-8.704534,27.218536,-74.29425,
6764,,,,0.13714226,-0.10974426,0.21778819,,,,
6774,0.1329487,1.1398883,7.7563596,,,,-6.549474,26.509542,-74.54198,
6784,,,,0.14672963,-0.033577926,0.27051878,,,,
6794,0.2215814,1.1973798,8.441466,,,,-8.396953,26.790245,-73.66258,
6804,,,,0.019430626,-0.029849501,0.25347453,,,,
6814,0.29823667,1.1039561,9.421217,,,,-8.244104,26.51629,-72.417496,
6824,,,,0.011441151,-0.027718974,0.25880086,,,,
6834,0.32698244,1.3770406,9.466731,,,,-7.936223,27.24179,-73.50159,
6844,,,,0.21277596,-0.0634053,0.25347453,,,,
6854,0.6647449,1.6980348,8.578009,,,,-7.783824,28.421082,-73.666214,
6864,,,,0.3842834,-0.107613735,0.2279082,,,,
6874,1.0767672,1.789063,8.2354555,,,,-7.9379807,28.278286,-73.2041,
6884,,,,0.31184545,-0.05381793,0.15706816,,,,
6894,0.8947109,1.688453,9.303839,,,,-8.243428,27.520359,-74.286285,
6904,,,,0.101988554,0.063361056,0.06066183,,,,
6914,0.7222364,1.2572668,10.38899,,,,-9.014888,28.552132,-73.543594,
6924,,,,0.03967063,0.107569486,-0.00591714,,,,
6934,0.68390876,0.5410187,10.908809,,,,-11.014244,27.646591,-72.963776,
6944,,,,0.118500136,0.17840952,-0.054919258,,,,
6954,0.12576225,0.049945578,11.71369,,,,-9.781596,26.481363,-73.22916,
6964,,,,-0.0013420116,0.08093791,-0.12522666,,,,
6974,-0.4898757,0.2703296,13.699542,,,,-10.244204,26.778442,-72.625046,
6984,,,,-0.21545996,-0.16140953,-0.09380139,,,,
6994,0.48508406,0.32063466,14.607428,,,,-9.783721,28.535824,-73.87207,
7004,,,,-0.12171678,-0.42932335,0.13043658,,,,
7014,2.387094,0.36135778,13.41448,,,,-11.015544,28.098083,-72.34999,
7024,,,,0.14353384,-0.4234644,0.27850825,,,,
7034,3.733353,0.29188892,11.488515,,,,-11.167184,27.487583,-73.58481,
7044,,,,0.20265596,0.08892738,0.14854605,,,,
7054,3.108133,0.07629584,10.681239,,,,-11.014189,27.356407,-72.65088,
7064,,,,-0.13396731,0.75311923,-0.28182036,,,,
7074,0.40603328,-0.42915013,12.132899,,,,-11.475459,27.92514,-73.597534,
7084,,,,-0.45461163,1.0407403,-0.69567525,,,,
7094,-1.7187562,-0.8220086,13.246796,,,,-11.783882,28.219921,-73.29909,
7104,,,,-0.22984102,0.61676544,-0.69141424,,,,
7114,-1.8816488,-0.4842461,11.56038,,,,-9.935926,26.340885,-72.612305,
7124,,,,0.410915,-0.14383268,-0.3244309,,,,
7134,-0.48748025,0.2703296,8.580404,,,,-10.55475,29.127686,-72.9695,
7144,,,,0.7672456,-0.5267949,0.047878668,,,,
7154,1.151027,0.888363,6.963456,,,,-9.475362,27.662989,-73.389984,
7164,,,,0.49294025,-0.3062854,0.19328713,,,,
7174,1.8289475,1.1566567,7.2197723,,,,-11.47318,26.881697,-74.35922,
7184,,,,-0.11639047,0.10916739,0.059063938,,,,
7194,1.5678403,0.90273595,8.403139,,,,-11.013108,28.065657,-74.51625,
7204,,,,-0.5547464,0.22155268,-0.22429617,,,,
7214,0.7749369,0.7566117,9.23437,,,,-9.936522,27.651352,-73.710846,
7224,,,,-0.6223906,-0.02558845,-0.45386043,,,,
7234,0.05868885,0.8332671,8.843906,,,,-13.169844,29.375868,-73.50171,
7244,,,,-0.3353021,-0.20295481,-0.46398044,,,,
7254,-0.35333344,1.1830069,7.847388,,,,-12.859636,27.899496,-73.94121,
7264,,,,-0.056203082,-0.17792113,-0.3276267,,,,
7274,-0.5976722,1.5135831,7.998303,,,,-12.243093,26.156141,-72.82233,
7284,,,,0.0066474644,0.0042389305,-0.15718456,,,,
7294,-0.044316724,1.4968146,8.199524,,,,-12.092104,28.367294,-72.99893,
7304,,,,0.10145592,0.22474849,0.02976919,,,,
7314,0.43717444,1.5447241,7.495252,,,,-13.322243,28.196575,-73.33708,
7324,,,,0.15791489,0.27641377,0.04628077,,,,
7334,0.154508,1.7339671,7.6821,,,,-11.630595,28.374298,-72.98753,
7344,,,,0.018365363,0.145919,-0.07089822,,,,
7354,-0.13294941,1.6309614,9.061895,,,,-12.551552,28.477589,-75.023575,
7364,,,,-0.09455257,-0.13797374,-0.09007296,,,,
7374,-0.13294941,1.4704643,9.4835,,,,-11.784889,28.956966,-73.30765,
7384,,,,0.023159048,-0.39470226,-0.03734241,,,,
7394,0.19523114,1.8034359,9.018777,,,,-11.321999,28.077202,-73.440704,
7404,,,,0.14779489,-0.36274436,-0.015504511,,,,
7414,0.47071117,1.7579218,8.997218,,,,-13.322572,27.187876,-71.77777,
7424,,,,0.035942208,-0.12572321,0.012724971,,,,
7434,0.46112925,1.2021707,10.3554535,,,,-12.86025,27.473484,-72.852936,
7444,,,,-0.17018627,0.08679685,0.052139726,,,,
7454,-0.029943839,0.5601825,12.156854,,,,-12.708455,29.095001,-73.02269,
7464,,,,-0.1472831,0.072948426,0.047346037,,,,
7474,-0.56174004,0.28470248,12.573667,,,,-13.324175,29.23539,-72.88487,
7484,,,,0.23780966,-0.107613735,0.059063938,,,,
7494,-0.7126552,0.4955046,11.275318,,,,-12.092452,28.371927,-72.68947,
7504,,,,0.6958729,-0.24236956,0.19275449,,,,
7514,-0.51143503,1.2500803,9.639206,,,,-12.5539875,28.510017,-72.857315,
7524,,,,0.8673804,-0.12146217,0.40154618,,,,
7534,-0.06108506,1.7483399,8.484585,,,,-12.398154,28.051594,-74.08624,
7544,,,,0.710254,0.24711902,0.6098052,,,,
7554,0.27428192,1.8178087,8.194733,,,,-12.856404,26.409191,-75.0072,
7564,,,,0.30918232,0.61783075,0.7424305,,,,
7574,0.8635696,0.99376416,9.294257,,,,-12.396745,27.01973,-74.074265,
7584,,,,-0.25594002,0.7701634,0.6817105,,,,
7594,0.985739,0.19606978,11.931679,,,,-10.397097,28.210823,-75.27643,
7604,,,,-0.8913697,0.52888125,0.33443457,,,,
7614,0.08024815,-0.31177166,14.157078,,,,-10.397097,28.210823,-75.27643,
7624,,,,-1.0516918,0.3222201,-0.13481404,,,,
7634,-1.1031182,-0.723794,14.21457,,,,-9.783108,28.961838,-74.96033,
7644,,,,-0.6106727,0.3041106,-0.37343302,,,,
7654,-1.903208,-0.49143258,12.451498,,,,-9.783108,28.961838,-74.96033,
7664,,,,-0.17231679,0.13313583,-0.29513615,,,,
7674,-1.9151855,0.018804371,10.966301,,,,-11.170406,29.846128,-73.6122,
7684,,,,-0.10946626,-0.061274774,-0.05758242,,,,
7694,-1.021672,-0.050664514,10.4369,,,,-10.398854,29.247318,-74.97894,
7704,,,,-0.2639295,-0.10601584,0.174645,,,,
7714,-0.089830816,-0.29500332,10.285985,,,,-9.783162,29.252024,-75.27321,
7724,,,,-0.3784453,-0.016001077,0.20340712,,,,
7734,-0.022757411,-0.39321795,10.072787,,,,-11.628298,29.067335,-75.936035,
7744,,,,-0.40774006,0.09478633,0.065988146,,,,
7754,-0.52101696,-0.10096955,9.538596,,,,-9.168074,29.698956,-75.57262,
7764,,,,-0.3720537,0.07614422,-0.013906617,,,,
7774,-0.77733314,0.27751604,9.28228,,,,-9.936503,29.387833,-75.89766,
7784,,,,-0.24848314,-0.0069463365,0.04415025,,,,
7794,-0.44436163,0.37812614,8.527704,,,,-8.863149,30.463835,-74.026245,
7804,,,,-0.016788332,-0.13477795,0.14321975,,,,
7814,-0.0682715,0.53383225,7.155094,,,,-10.398506,29.242685,-75.28841,
7824,,,,0.1547191,-0.20668325,0.18423238,,,,
7834,-0.07066698,0.9242953,6.556225,,,,-9.322459,29.848663,-75.26866,
7844,,,,0.06949801,-0.16780111,0.18689555,,,,
7854,-0.12336751,0.8835721,7.399433,,,,-10.244121,29.09298,-75.59238,
7864,,,,-0.08762835,-0.04050214,0.20500502,,,,
7874,-0.20960474,0.85961735,8.213896,,,,-10.246053,30.13179,-75.14015,
7884,,,,-0.052474663,-0.045295823,0.2044724,,,,
7894,-0.25990978,1.0416737,8.357625,,,,-9.011043,27.487839,-75.697876,
7904,,,,0.11423908,-0.10654847,0.2012766,,,,
7914,0.08983007,0.95543647,8.716947,,,,-9.166573,29.100056,-76.18471,
7924,,,,0.17442648,-0.23118429,0.21778819,,,,
7934,,,,,,,-8.856621,28.06128,-76.9388,
7944,0.34375083,0.9793912,8.899003,0.17602436,-0.3180033,0.15973133,,,,
7954,,,,,,,-8.859359,29.689728,-76.49342,
7964,0.08503914,1.1854024,9.20802,0.19626439,-0.17685585,0.06172709,,,,
7974,,,,,,,-7.625556,27.930231,-77.06142,
7984,-0.008384541,1.0512556,9.426008,0.22768965,-0.070862144,0.039889194,,,,
7994,,,,,,,-8.088055,27.64694,-75.83153,
8004,0.17367181,0.85961735,10.012901,0.19093806,-0.16673586,0.047346037,,,,
8014,,,,,,,-7.9335766,27.930195,-76.75955,
8024,0.6359992,0.7518208,10.719567,0.17495911,-0.256218,0.0702492,,,,
8034,,,,,,,-9.933088,26.013638,-74.77515,
8044,1.0336486,0.7374479,10.518346,0.27562648,-0.10015689,0.11232711,,,,
8054,,,,,,,-9.008936,26.44671,-76.304825,
8064,1.095931,0.8021258,9.775748,0.30492124,0.13952741,0.08622815,,,,
8074,,,,,,,-7.929595,26.14044,-78.13161,
8084,0.6503721,0.8787811,10.698007,0.11903276,0.1981169,0.0031376001,,,,
8094,,,,,,,-7.161339,26.453878,-77.65184,
8104,0.36531013,0.6703745,11.78795,-0.023179915,0.0015757716,-0.05545189,,,,
8114,,,,,,,-7.010295,28.374847,-77.51555,
8124,0.34375083,0.36614874,11.845442,-0.035963077,-0.093232684,-0.066637166,,,,
8134,,,,,,,-7.9293013,26.425991,-78.75395,
8144,0.21439496,0.5961147,11.902933,-0.13876098,0.009032616,-0.077822424,,,,
8154,,,,,,,-6.698722,27.02504,-79.34935,
8164,0.8971064,0.09545967,12.154458,-0.29908317,0.17681164,-0.10072559,,,,
8174,,,,,,,-6.8540144,26.46318,-77.33476,
8184,1.491185,-0.87950015,12.520967,-0.38110846,0.3025127,-0.2349488,,,,
8194,,,,,,,-5.3146553,27.631056,-79.63147,
8204,0.7294228,-1.3490138,12.6862545,-0.30547473,0.19705163,-0.42722884,,,,1166.0
8214,,,,,,,-6.3900433,26.292664,-79.33319,
8224,-0.05150315,-1.1885167,11.98917,-0.05833361,-0.14756112,-0.42243513,,,,
8234,,,,,,,-6.8493633,24.809254,-79.48219,
8244,0.03233859,-0.7357713,10.130279,0.21810228,-0.3552875,-0.19979511,,,,
8254,,,,,,,-5.9285336,26.299667,-79.32179,
8264,0.6240218,-0.20157966,8.33367,0.2250265,-0.10974426,0.038291298,,,,
8274,,,,,,,-6.851927,26.435385,-79.191574,
8284,1.3953658,0.22242004,8.051003,-0.0615294,0.3073064,0.18476503,,,,
8294,,,,,,,-5.313347,25.297989,-77.90201,
8304,2.0828683,0.4931091,8.144427,-0.36459687,0.38347274,0.12724079,,,,
8314,,,,,,,-5.9275913,24.984568,-78.532715,
8324,1.8025973,0.4955046,8.628314,-0.49029797,0.25830427,-0.14386877,,,,
8334,,,,,,,-7.619899,25.539257,-79.2003,
8344,0.68390876,0.49790007,8.611546,-0.4492853,-0.028784238,-0.42722884,,,,
8354,,,,,,,-4.697342,24.574915,-77.56879,
8364,-0.4946667,0.65839714,8.786416,-0.3853695,-0.18218218,-0.5337552,,,,
8374,,,,,,,-4.5454845,26.774487,-78.51906,
8384,-1.0288584,0.55299604,9.162506,-0.22877575,-0.13637584,-0.3782267,,,,
8394,,,,,,,-5.9320316,27.359327,-77.476974,
8404,-0.65037274,0.72307503,8.738506,-0.018918859,-0.08790636,-0.1358793,,,,
8414,,,,,,,-5.62274,27.052963,-78.54909,
8424,0.16888088,0.8763857,8.249828,0.14353384,0.08306843,0.013257603,,,,
8434,,,,,,,-6.390996,26.739525,-79.028854,
8444,0.47071117,1.1350974,8.173173,0.1376749,0.1059716,0.022312343,,,,
8454,,,,,,,-4.546446,26.353107,-77.12132,
8464,0.09222555,1.4057864,8.604359,0.08228118,0.032468412,-0.057049785,,,,
8474,,,,,,,-3.4674683,27.064802,-79.888504,
8484,-0.28626004,1.568679,8.999613,0.1195654,0.0063694576,-0.08155085,,,,
8494,,,,,,,-3.3121967,25.890179,-79.71626,
8504,-0.09222628,1.4560915,9.358934,0.2031886,-0.017066339,0.02444287,,,,
8514,,,,,,,-6.3854475,24.92892,-81.7935,
8524,0.5329936,1.3123628,9.761374,0.30705175,0.0010431398,0.13043658,,,,
8534,,,,,,,-3.7750874,26.769947,-79.583206,
8544,0.9498069,1.4297413,10.082369,0.38534862,0.057502102,0.10007658,,,,
8554,,,,,,,-4.2347183,26.014317,-80.35971,
8564,0.86836064,1.293199,10.132674,0.3512602,0.01009788,-0.034679253,,,,
8574,,,,,,,-3.4645386,24.420704,-79.23874,
8584,0.21918592,0.82368517,10.659679,0.21437386,-0.06819899,-0.14014035,,,,
8594,,,,,,,-3.464283,23.983109,-78.92413,
8604,-0.5904858,0.35177588,11.943656,0.13714226,-0.08577583,-0.11350876,,,,
8614,,,,,,,-4.3871174,24.835026,-80.19507,
8624,-0.7677513,0.06910941,12.707814,0.31131282,-0.023990551,0.047346037,,,,
8634,,,,,,,-4.6961975,25.86222,-80.214645,
8644,-0.67672306,0.507482,11.883769,0.61171716,0.043121044,0.2012766,,,,
8654,,,,,,,-4.077879,24.818848,-81.58008,
8664,-0.67672306,1.3578769,10.707589,0.69374245,0.107569486,0.2912914,,,,
8674,,,,,,,-2.6927319,23.3843,-80.29089,
8684,-0.52341247,1.8369725,10.142256,0.52915925,0.16349584,0.34189144,,,,
8694,,,,,,,-3.76898,22.925728,-80.31236,
8704,-0.10659915,1.789063,10.089556,0.23408124,0.2300748,0.2912914,,,,
8714,,,,,,,-3.1530762,23.651266,-81.6983,
8724,0.12336677,1.0704194,10.5734415,-0.10254204,0.28174007,0.12883869,,,,
8734,,,,,,,-2.2302456,22.79935,-80.42738,
8744,-0.27907363,0.18888333,11.526843,-0.37418425,0.24019481,-0.0623761,,,,
8754,,,,,,,-1.7650375,21.599287,-82.25908,1090.0
8764,-1.237265,-0.4626868,11.955634,-0.44981796,0.20291059,-0.109780334,,,,
8774,,,,,,,-1.3053417,22.932972,-82.26309,
8784,-1.567841,-0.48903707,11.701713,-0.3294432,0.17681164,0.0601292,,,,
8794,,,,,,,-4.0765247,24.077171,-81.88098,
8804,-0.9378302,-0.2087661,10.985465,-0.21918839,0.04631684,0.24175662,,,,
8814,,,,,,,-2.2297401,23.805735,-82.14143,
8824,0.23355877,-0.278235,10.693215,-0.2463526,-0.16673586,0.27371454,,,,
8834,,,,,,,-1.1556721,23.859138,-79.6391,
8844,0.8611741,-0.49143258,10.477623,,,,,,,
8854,,,,-0.29642,-0.30362222,0.099543944,-1.3058281,23.663067,-82.735855,
8864,0.5329936,-0.6064155,10.250052,,,,,,,
8874,,,,-0.27032104,-0.21467271,-0.1310856,-0.8474407,24.580006,-81.03267,
8884,-0.17127708,-0.5417377,9.181669,,,,,,,
8894,,,,-0.148881,-0.03730635,-0.21098037,-1.0031548,25.326298,-80.27136,
8904,-0.7581693,0.061922967,7.9815345,,,,,,,
8914,,,,-0.07058414,0.1629632,-0.10498665,-1.1554604,24.579967,-80.73079,
8924,-0.6695366,0.36135778,7.4856706,,,,,,,
8934,,,,-0.06898624,0.2939906,0.035095505,-1.1552048,24.142374,-80.41618,
8944,-0.3581244,0.36375326,7.401829,,,,,,,
8954,,,,-0.09455257,0.24552111,0.08090183,-1.0000496,22.679882,-79.77635,
8964,-0.54257625,0.60809207,7.7252183,,,,,,,
8974,,,,-0.11798836,0.048979998,0.07717341,0.9992504,23.875608,-80.66904,
8984,-0.6791185,0.7973349,8.336065,,,,,,,
8994,,,,-0.021049386,-0.1406369,0.10700079,-0.8483467,23.868439,-79.32204,
9004,-0.48508477,0.8356626,8.362416,,,,,,,
9014,,,,0.1914707,-0.27272958,0.13789342,0.2323494,22.82049,-81.44972,
9024,-0.087435335,0.838058,8.11089,,,,,,,
9034,,,,0.36564127,-0.30575275,0.13629553,0.2323494,22.82049,-81.44972,
9044,0.1329487,1.0177189,8.05819,,,,,,,
9054,,,,0.39387074,-0.24343483,0.12511027,0.84679794,22.986502,-80.81729,
9064,0.09701651,1.1303064,8.074959,,,,,,,
9074,,,,0.35019493,-0.18804112,0.13629553,1.1546803,23.712002,-81.9014,
9084,0.075457215,1.458487,8.192337,,,,,,,
9094,,,,0.25325596,-0.2061506,0.14641553,0.2343731,22.214638,-82.52602,
9104,0.43956995,1.5159785,8.827139,,,,,,,
9114,,,,0.14779489,-0.21307482,0.15280712,0.23344994,22.516407,-82.06523,
9124,1.151027,1.3291311,9.699093,,,,,,,
9134,,,,0.03860537,-0.28498012,0.07664078,-0.07497406,22.811188,-81.766785,
9144,1.3426654,1.0752103,10.690821,,,,,,,
9154,,,,0.033811685,-0.18218218,-0.106051914,1.0010071,22.839111,-80.96652,
9164,0.5042479,0.95064545,10.319522,,,,,,,1158.0
9174,,,,0.16750227,0.09212317,-0.29992983,1.1545258,22.700985,-80.496826,
9184,-0.15211326,0.78296196,9.58411,,,,,,,
9194,,,,0.1376749,0.24552111,-0.33881196,0.8521061,20.600163,-82.64671,
9204,-0.23355952,0.10743706,10.44169,,,,,,,
9214,,,,-0.16272941,0.15071268,-0.25039515,1.3108234,22.525799,-82.50284,
9224,-0.7006779,0.11701898,12.695836,,,,,,,
9234,,,,-0.3970874,-0.16993164,-0.18594667,2.5420227,21.669289,-81.84323,
9244,-0.31021482,0.3709397,13.8552475,,,,,,,
9254,,,,-0.23197155,-0.47193387,-0.025624514,1.4667377,21.6321,-83.262436,
9264,1.270801,0.6344423,12.954548,,,,,,,
9274,,,,0.1376749,-0.4490307,0.18583028,1.1585617,20.621044,-81.55597,
9284,2.8494213,0.838058,11.402278,,,,,,,
9294,,,,0.27456126,-0.14223479,0.1879608,2.2347546,21.3698,-81.84741,
9304,3.0913649,0.5601825,10.978278,,,,,,,
9314,,,,-0.005070434,0.112363175,-0.091670856,2.0831718,20.469112,-82.76935,
9324,1.5822133,-0.053059995,11.730459,,,,,,,
9334,,,,-0.28683263,0.31103483,-0.49487305,3.618126,21.98508,-81.51059,
9344,-0.4946667,-0.26865306,11.986774,,,,,,,
9354,,,,-0.23090628,0.30837163,-0.72070897,2.0814857,20.202091,-80.90912,
9364,-1.5798185,0.21283811,11.102843,,,,,,,1232.0
9374,,,,0.02955063,0.112363175,-0.5721047,1.4650173,20.641928,-80.465256,
9384,-0.85877943,0.6703745,9.521827,,,,,,,
9394,,,,0.19360122,-0.017066339,-0.2583846,0.8483162,21.374268,-80.179535,
9404,0.3533327,0.91471326,7.9336247,,,,,,,
9414,,,,0.07855275,0.15870215,-0.11031297,1.3105488,21.226913,-80.63063,
9424,0.42998803,0.9626229,7.7443824,,,,,,,
9434,,,,-0.2783105,0.45431274,-0.16730458,3.1564903,20.821966,-79.96095,
9444,-0.13534491,0.95064545,8.616336,,,,,,,
9454,,,,-0.6128033,0.4537801,-0.26797196,2.6965485,20.794117,-81.36496,
9464,-0.5018531,0.72547054,9.835635,,,,,,,
9474,,,,-0.70122015,0.15923479,-0.25625405,4.387764,21.411749,-81.17529,
9484,-0.41801137,0.22960648,10.0656,,,,,,,
9494,,,,-0.45301375,-0.19390006,-0.14546667,4.843935,23.950188,-79.49092,
9504,-0.5497627,0.40208092,9.114595,,,,,,,
9514,,,,-0.10999889,-0.32759067,-0.0975298,2.2342987,21.954803,-82.16373,
9524,-0.93543476,0.94345903,8.257015,,,,,,,
9534,,,,0.051388532,-0.108679,0.0015397047,2.0791702,20.522388,-79.210464,
9544,-0.72702813,1.1063516,8.039026,,,,,,,
9554,,,,0.064171694,0.166159,0.25400716,3.3110504,20.669943,-80.41966,
9564,0.23834974,0.99136865,8.403139,,,,,,,
9574,,,,0.06576959,0.15177794,0.40953565,3.0004559,21.4278,-78.73375,
9584,0.7437957,1.1039561,8.987636,,,,,,,
9594,,,,0.16111068,-0.10228742,0.34242404,3.7712307,21.273533,-79.9509,
9604,0.68151325,1.3986,8.98524,,,,,,,
9614,,,,0.3576518,-0.33398223,0.22204925,2.3868427,20.527058,-79.202866,
9624,0.7749369,1.6812665,8.376788,,,,,,,
9634,,,,0.51477814,-0.3196012,0.17997134,3.3107948,21.107538,-80.73425,
9644,0.7605641,1.9567466,8.007885,,,,,,,
9654,,,,0.5185066,-0.07139477,0.1863629,2.2372837,19.02052,-81.201096,
9664,0.69828165,2.019029,8.63071,,,,,,,
9674,,,,0.36723918,0.077742115,0.20180924,3.7754612,18.177942,-79.91495,
9684,0.8659651,1.6213795,9.332584,,,,,,,
9694,,,,0.22768965,0.028207358,0.13789342,3.4659748,19.499954,-79.93796,
9704,0.6719314,1.2476848,9.969782,,,,,,,
9714,,,,0.0977275,-0.035175823,-0.05758242,4.2355022,19.506996,-80.228424,
9724,0.08983007,0.6751655,10.899228,,,,,,,
9734,,,,0.039138,0.102775805,-0.17156562,3.7727146,18.93815,-78.376175,
9744,-0.61444056,0.2152336,11.021397,,,,,,,
9754,,,,0.11530435,0.22474849,-0.09699717,4.5443115,17.180914,-78.336624,
9764,-1.1558187,0.27991152,11.16273,,,,,,,
9774,,,,0.14672963,0.15603898,0.12990394,4.236658,18.912727,-80.53105,
9784,-0.67672306,0.48592266,11.426233,,,,,,,
9794,,,,0.18667701,0.07720948,0.388763,4.545803,18.463587,-81.29198,
9804,-0.116181076,0.99136865,10.985465,,,,,,,
9814,,,,0.31663913,0.2854685,0.5112683,4.8527985,17.464188,-79.41559,
9824,-0.24314144,1.6956394,10.18777,,,,,,,
9834,,,,0.32303074,0.47455278,0.50753987,4.5463333,16.575064,-79.41292,
9844,0.039525032,1.9136279,10.000923,,,,,,,
9854,,,,0.064171694,0.33020955,0.44362408,4.5452366,16.879147,-78.797424,
9864,0.62881273,1.3602724,10.899228,,,,,,,1156.0
9874,,,,-0.3816411,-0.057013724,0.2481482,7.008314,16.17019,-79.346985,
9884,0.43956995,0.40687189,12.03708,,,,,,,
9894,,,,-0.6394349,-0.15501796,-0.063974,6.544325,17.354042,-78.59842,
9904,-0.626418,-0.20397511,12.583249,,,,,,,
9914,,,,-0.5861717,0.071883164,-0.25039515,7.0089283,16.596203,-80.43526,
9924,-1.5199316,-0.18960229,12.252673,,,,,,,
9934,,,,-0.34542212,0.22794427,-0.15132561,5.774084,18.369598,-78.93887,
9944,-1.4241123,-0.050664514,11.435815,,,,,,,
9954,,,,-0.10254204,0.15390846,0.12404501,8.235863,18.112135,-78.87465,
9964,-0.6791185,0.10264611,10.276402,,,,,,,
9974,,,,-0.026908336,-0.16354007,0.28330192,6.0799446,19.70095,-78.946686,
9984,0.12815776,0.10983254,9.519432,,,,,,,
9994,,,,-0.113194674,-0.3819191,0.23110399,7.31357,17.943768,-79.35994,
10004,0.48987502,-0.10096955,9.121782,,,,,,,
10014,,,,-0.27724528,-0.29510012,0.09528289,5.7763004,16.748098,-78.920044,
10024,0.21679044,-0.23751184,9.121782,,,,,,,
10034,,,,-0.403479,0.007434721,-0.043733995,7.776205,17.501596,-79.8076,
10044,-0.24793239,-0.23751184,9.358934,,,,,,,
10054,,,,-0.3720537,0.16030005,-0.08794243,7.7761955,16.633356,-78.7142,
10064,-0.49945763,-0.14887914,9.191251,,,,,,,
10074,,,,-0.23729788,-0.003750546,-0.047995046,8.390076,17.964743,-79.023865,
10084,-0.52820337,-0.0051504374,8.652268,,,,,,,
10094,,,,-0.107335724,-0.20082428,0.0042028637,7.6220856,18.08195,-80.282455,
10104,-0.5880903,0.36375326,7.921648,,,,,,,
10114,,,,-0.016788332,-0.15342006,0.0702492,7.1616383,17.047714,-79.9724,
10124,-0.37489277,0.66558355,7.914461,,,,,,,
10134,,,,0.02635484,0.07720948,0.17624292,7.0031776,18.554214,-77.67232,
10144,0.24074522,0.64641976,8.446258,,,,,,,
10154,,,,0.12755488,0.1832032,0.24069135,5.7729206,18.095627,-77.54285,
10164,0.37249655,0.7901484,8.30732,,,,,,,
10174,,,,0.29852965,-0.033045296,0.12511027,8.6998825,16.783192,-79.46678,
10184,-0.00598906,1.12312,7.2053995,,,,,,,
10194,,,,0.3209002,-0.29882854,-0.06610453,6.0835686,17.047586,-78.91586,
10214,-0.3916611,1.0273008,7.658145,0.1110433,-0.20934638,-0.08527928,7.93223,16.027523,-79.94142,1080.0
10234,-0.31500578,0.8284761,9.052314,-0.0024072751,-0.04103477,0.053204987,6.697859,16.202583,-76.87886,
10254,0.38686943,0.9171088,9.7278385,0.111575924,-0.051154774,0.14162184,9.468998,16.21681,-78.66728,
10274,0.8180555,1.118329,9.023568,0.19040543,-0.021327393,0.0484113,6.3903446,17.20893,-78.29103,
10294,0.49706143,1.1398883,9.205624,0.033811685,0.166159,-0.09859507,7.929949,17.070969,-79.17973,
10314,0.1329487,0.7566117,10.544697,-0.09242204,0.22900954,-0.1662393,7.313013,17.22757,-77.958786,
10334,-0.01796645,0.28949344,11.172312,-0.017853595,0.06016526,-0.24027513,7.774521,17.234573,-77.94739,
10354,-0.45633903,0.26314318,10.9136,0.0625738,-0.1757906,-0.34360564,8.697912,17.098856,-78.07761,
10374,-0.9450166,0.73505247,11.1148205,-0.02850623,-0.27539277,-0.32070246,7.773861,17.966986,-78.265396,
10394,-0.24074596,0.617674,12.235905,-0.094019935,-0.2381085,-0.110845596,7.621269,17.803345,-79.19589,
10414,1.2420553,0.35417137,12.794051,0.009843254,-0.23011903,0.010594444,7.9317093,16.034472,-79.47722,
10434,2.161919,0.27751604,11.749621,0.079618014,-0.14702848,-0.16091299,7.9317093,16.034472,-79.47722,
10454,1.7906199,-0.031500697,10.726753,-0.16485997,0.21409586,-0.42030463,8.388107,18.280409,-77.634705,
10474,0.324587,-0.4770597,11.421442,-0.5227885,0.7025192,-0.51085204,8.388107,18.280409,-77.634705,
10494,-0.7893106,-0.5920427,12.813215,-0.5020159,0.84899294,-0.3494646,9.619225,17.859173,-77.44443,
10514,-0.68870044,-0.28063044,12.3101635,-0.0077335928,0.44685593,-0.08634454,9.464365,19.607218,-78.70665,
10534,0.25272262,0.282307,9.938641,0.51318026,-0.12412532,0.05746604,11.623049,16.244862,-78.92354,
10554,1.2037276,0.7422389,7.15749,0.5259634,-0.37765804,-0.01763504,10.698706,16.827438,-78.48898,
10574,1.4049478,0.8739902,6.12983,-0.070051506,-0.1321148,-0.2179046,9.314318,16.080963,-77.74095,
10594,0.7677505,0.4715498,7.7898965,-0.79709387,0.27641377,-0.34999725,9.005043,18.123808,-78.85565,
10614,-0.04192123,-0.0027549267,9.876358,-1.0751276,0.4260833,-0.41231516,9.003962,17.414558,-76.990295,
10634,-0.91627085,-0.06743288,10.930368,-0.78111494,0.28280532,-0.4016625,9.617138,17.886969,-75.58765,
10654,-1.2037283,0.09066872,10.180584,-0.2010789,-0.050089512,-0.27116773,12.078363,19.66312,-77.55893,
10664,,,,,,,,,,964.0
10674,-0.91866636,0.28709796,8.721737,0.20212333,-0.35582012,-0.15558667,12.079168,19.073483,-77.55208,
10694,-0.67432755,0.51227295,7.691682,0.21863492,-0.4421065,-0.09859507,8.84956,18.577597,-77.9362,
10714,-0.24793239,0.7566117,7.600653,-0.0013420116,-0.25728327,-0.028287672,8.386175,19.31922,-77.182495,
10734,-0.029943839,0.787753,8.412721,-0.19468734,0.051110525,0.043084983,10.231672,20.367517,-77.92255,
10754,0.027547628,0.7590072,9.471521,-0.14408731,0.095318966,0.12138185,9.926065,18.598572,-77.60013,
10764,,,,,,,,,,902.0
10774,0.3030277,0.9410635,9.397263,0.10624961,-0.0868411,0.15120922,9.462835,20.351212,-78.25101,
10794,0.45154732,0.9650184,9.025963,0.31504124,-0.11080952,0.107533425,11.3086605,19.658396,-77.11372,
10814,0.324587,1.2141482,8.50854,0.32675916,-0.04050214,0.039356563,10.541292,18.320042,-77.11731,
10834,0.18085825,1.118329,8.745692,0.13021804,0.1043737,0.012724971,11.6132145,21.441238,-76.50774,
10854,-0.18564996,0.6344423,9.945827,-0.12011889,0.13153793,-0.035211883,11.465258,17.887188,-77.398834,
10864,,,,,,,,,,821.0
10874,-0.95459855,0.282307,11.488515,-0.1504789,0.12301581,-0.061843473,9.156124,18.018108,-76.21968,
10894,-1.3163158,0.08348228,12.001148,0.112641186,0.033533674,0.054802883,12.231562,20.252773,-77.716705,
10914,-0.77972865,-0.055455476,11.53882,0.38907707,-0.17366007,0.23163661,9.926065,18.598572,-77.60013,764.0
10934,-0.26230526,0.38770807,11.474142,0.38268548,-0.30735064,0.2896935,12.3841,20.7066,-77.09912,
10954,0.09462103,0.6200695,11.759204,0.22396122,-0.16034427,0.31046614,12.230886,19.248707,-75.847916,
10974,0.19283566,0.8356626,11.763995,0.14619699,0.20770428,0.35414195,11.463526,18.778591,-76.944916,
10994,0.10899392,0.86440825,11.574752,0.10891276,0.4383338,0.30087876,11.4628315,18.787857,-76.32599,
11014,-0.06348054,0.41166285,11.550797,-0.0024072751,0.3126327,0.16452502,12.079058,19.653854,-78.17786,664.0
11034,-0.38207918,-0.06264192,11.840651,-0.20853576,-0.02292529,-0.03787504,12.232626,19.225544,-77.39525,
11054,-0.80847436,-0.4555004,12.446707,-0.2639295,-0.14543058,-0.14173825,12.076487,20.411747,-76.79382,
11064,,,,,,,,,,601.0
11074,-0.94741213,-0.58006525,11.799927,-0.074845195,-0.081514776,-0.025624514,11.771811,19.209274,-78.02559,
11094,-0.7893106,-0.21116155,10.408154,0.10838013,0.032468412,0.14428501,12.384905,20.116964,-77.09227,
11114,-0.41801137,0.081086814,9.505059,0.10092329,0.081470534,0.24069135,11.617796,18.341017,-76.78125,546.0
11134,0.073061705,0.011617929,9.315816,,,,12.3836155,21.436699,-77.57187,
11144,,,,-0.01305991,-0.03251266,0.21725556,,,,
11154,0.5042479,-0.28542146,9.296652,,,,12.540586,19.515766,-78.01001,
11164,,,,-0.107335724,-0.19230218,0.08942394,,,,498.0
11174,0.34854174,-0.4794552,9.097828,,,,11.307356,20.109888,-76.49992,
11184,,,,-0.148881,-0.16460533,-0.09380139,,,,
11194,-0.346147,-0.24469826,8.956493,,,,13.306391,20.874966,-76.613815,
11204,,,,-0.17391469,0.055371575,-0.16304351,,,,
11214,-0.77733314,0.033177227,8.851093,,,,12.844347,21.888245,-77.41087,447.0
11224,,,,-0.11745573,0.3445906,-0.05332136,,,,
11234,-0.8324291,0.30147082,8.537286,,,,12.536955,21.300888,-76.94742,
11244,,,,0.031681154,0.48946646,0.09315237,,,,
11254,-0.6719321,0.51945937,8.290551,,,,14.841555,23.111765,-76.44678,
11264,,,,0.2031886,0.3126327,0.1879608,,,,396.0
11274,-0.17127708,0.51945937,7.6509585,,,,14.076506,21.453114,-78.149,
11284,,,,0.34806442,-0.08311268,0.18689555,,,,
11294,-0.111390114,0.87159467,7.243727,,,,15.151178,21.06429,-75.64154,
11304,,,,0.36084756,-0.36753806,0.08835868,,,,
11314,-0.046712205,1.1901934,7.145512,,,,13.307608,20.858753,-77.69696,357.0
11324,,,,0.27988753,-0.31534013,0.05640078,,,,
11334,0.26230454,1.1877979,7.387456,,,,12.689009,22.48481,-76.8026,
11344,,,,0.1515233,-0.08471057,0.07397762,,,,
11354,0.33416885,1.0608375,8.25462,,,,13.923513,21.58429,-79.08292,
11364,,,,0.030615892,0.06016526,0.019116554,,,,322.0
11374,0.017965704,0.8835721,9.030754,,,,12.385721,20.395569,-78.17882,
11384,,,,0.038072735,0.08306843,-0.08527928,,,,
11394,-0.3701018,0.9218998,8.702574,,,,12.8469715,20.840168,-78.482025,
11404,,,,0.13075067,0.09744949,-0.14812984,,,,
11414,-0.61444056,0.99855506,8.355229,,,,13.772993,19.656372,-79.683395,285.0
11424,,,,0.07855275,0.25404322,-0.13268352,,,,
11434,-0.77972865,0.81649864,9.495477,,,,12.077703,20.395533,-77.87695,
11444,,,,-0.18137154,0.32435063,-0.10658454,,,,
11454,-1.0456268,0.48113173,11.289691,,,,14.077028,21.446163,-78.61322,
11464,,,,-0.28576738,0.196519,-0.1577172,,,,253.0
11474,-1.5007676,0.5050865,11.809509,,,,14.076624,21.740982,-78.61664,
11484,,,,-0.05407256,-0.06447057,-0.20831722,,,,
11494,-1.2636154,0.33261204,10.978278,,,,13.615145,21.588886,-78.47159,
11504,,,,0.20691702,-0.32119906,-0.1577172,,,,
11514,-0.8491975,0.20565169,10.671657,,,,14.847021,21.73644,-79.680756,223.0
11524,,,,0.12648962,-0.41813806,-0.11776981,,,,
11534,-0.7485874,0.21044263,11.876583,,,,15.767927,21.923338,-77.95761,
11544,,,,-0.14621784,-0.30575275,-0.06503927,,,,
11554,-0.235955,0.15534665,12.664695,,,,13.770052,21.43223,-79.23973,
11564,,,,-0.20960101,-0.12519057,0.11658817,,,,199.0
11574,1.0552078,0.19846526,12.350888,,,,13.306063,22.616081,-78.491165,
11584,,,,-0.107335724,0.067089476,0.31366193,,,,
11594,2.2481563,-0.13450626,11.902933,,,,12.846125,22.58823,-79.89517,
11604,,,,-0.148881,0.16988742,0.22364713,,,,
11614,1.7451057,-0.42196366,12.518571,,,,14.537016,23.065403,-79.23958,169.0
11624,,,,-0.26819053,0.25297794,-0.1827509,,,,
11634,-0.20720926,-0.31656262,12.691045,,,,13.461092,22.747293,-79.726944,
11644,,,,-0.18137154,0.26150006,-0.52949417,,,,
11654,-1.5917959,0.17211498,11.565171,,,,14.690882,22.922646,-79.07933,
11664,,,,0.1280875,0.1949211,-0.46025202,,,,144.0
11674,-1.512745,0.6775609,9.730234,,,,14.536669,23.070034,-78.9301,
11684,,,,0.3683044,0.081470534,-0.101258226,,,,
11694,-0.34135604,1.063233,8.403139,,,,13.919996,23.657282,-78.487946,
11704,,,,0.33741176,-0.017598972,0.18423238,,,,
11714,1.0911402,1.063233,8.146823,,,,14.68804,23.24989,-76.91649,127.0
11724,,,,0.085476965,-0.038904242,0.2145924,,,,
11734,1.8960209,0.6919338,8.271388,,,,15.768084,22.934353,-79.36221,
11744,,,,-0.2293084,-0.035175823,-0.031483464,,,,
11754,1.3187104,0.39728996,8.381579,,,,15.614737,23.070164,-79.98665,
11764,,,,-0.49988532,0.017554725,-0.42350042,,,,109.0
11774,-0.11857656,0.337403,8.546867,,,,14.382616,24.228443,-80.18547,
11784,,,,-0.60854226,0.19864954,-0.66478264,,,,
11794,-1.3426661,0.30865726,9.013986,,,,12.996149,24.378002,-78.67406,
11804,,,,-0.5329085,0.32328534,-0.591812,,,,
11814,-1.9511176,0.33500752,9.277489,,,,14.53536,25.403101,-80.65958,89.0
11824,,,,-0.29908317,0.206639,-0.31644142,,,,
11834,-1.6492873,0.5002955,8.879839,,,,13.764727,24.831903,-78.66019,
11844,,,,-0.011462016,-0.15182216,-0.035211883,,,,
11854,-0.64318633,0.7637982,8.029445,,,,14.995543,26.00669,-80.19083,
11864,,,,0.17708965,-0.4117465,0.1693187,,,,78.0
11874,0.2718864,1.168634,8.051003,,,,15.150167,26.432722,-81.43002,
11884,,,,0.18348122,-0.30788326,0.28756297,,,,
11894,0.7126545,1.3051764,8.494166,,,,15.150167,26.432722,-81.43002,
11904,,,,0.19040543,-0.060742144,0.26252928,,,,
11914,0.59048504,1.4009955,8.578009,,,,14.072844,26.133142,-80.679535,73.0
11924,,,,0.21064544,-0.028784238,0.10327237,,,,
11934,0.46352476,1.4321368,8.678618,,,,13.612024,25.248634,-80.21646,
11944,,,,0.15099068,-0.1944327,-0.025091883,,,,
11954,0.33656436,1.3219447,9.215206,,,,14.998114,25.248798,-81.57486,
11964,,,,0.02688747,-0.1992264,-0.07942033,,,,
11974,0.17606732,0.94345903,10.242866,,,,12.229063,25.206776,-81.64325,
11984,,,,-0.07218204,-0.03783898,-0.0975298,,,,
11994,-0.32219222,0.47634077,10.973487,,,,12.536982,23.90561,-80.227646,
12004,,,,-0.033299915,0.1310053,-0.1358793,,,,
12014,-1.071977,0.36854422,11.165126,,,,14.072306,27.153425,-81.46518,66.0
12024,,,,0.06736749,0.10703686,-0.12682456,,,,
12034,-1.081559,0.10025062,11.0884695,,,,13.611776,26.554468,-81.62445,
12044,,,,0.19413385,-0.08790636,0.007931286,,,,
12054,-0.7725422,-0.031500697,10.8704815,,,,13.30567,26.528954,-83.02466,
12064,,,,0.28255072,-0.24929379,0.15547027,,,,
12074,-0.7941015,0.337403,10.815386,,,,12.534979,26.24794,-81.338165,
12084,,,,0.28148544,-0.21147692,0.23856083,,,,
12094,-0.5449717,0.60090566,10.578233,,,,14.538004,26.091503,-83.91753,
12104,,,,0.217037,0.026609464,0.36479458,,,,
12114,0.14971703,0.9218998,10.851317,,,,13.307482,25.20227,-83.00925,61.0
12124,,,,0.06683486,0.1997148,0.48889777,,,,
12134,1.1079085,0.71109766,11.517261,,,,13.921015,26.538292,-83.00946,
12144,,,,-0.115325205,0.13633162,0.42178616,,,,
12154,1.5678403,-0.077014774,11.934073,,,,13.4615,26.07053,-84.253586,
12164,,,,-0.25167894,-0.017598972,0.12191448,,,,
12174,0.17846277,-0.53934216,12.073011,,,,14.381166,27.286972,-82.69716,
12184,,,,-0.38483688,-0.050089512,-0.32656142,,,,
12194,-1.7906204,-0.79565835,12.417961,,,,12.382681,26.369852,-82.89101,
12204,,,,-0.34275898,0.114493705,-0.46238253,,,,
12214,-2.4110496,-0.75253975,12.003543,,,,12.843969,27.537598,-84.13118,
12224,,,,-0.10413994,0.09105791,-0.1577172,,,,
12234,-1.6636603,-0.5489241,11.239386,,,,14.692125,25.51115,-83.44267,
12244,,,,0.156317,-0.07991689,0.19595028,,,,
12254,-0.45154807,-0.46987328,10.377013,,,,13.458319,26.402409,-81.78128,
12264,,,,0.27775702,-0.19283481,0.3243146,,,,
12274,0.5210162,-0.36926314,9.224788,,,,13.765448,27.427359,-82.55934,
12284,,,,0.22822228,-0.22905377,0.20766819,,,,
12294,0.6695359,-0.39800885,8.762461,,,,14.073988,27.420446,-83.32541,
12304,,,,0.009843254,-0.16460533,-0.04852768,,,,
12314,0.154508,-0.5561105,9.018777,,,,11.767015,26.220055,-82.44029,
12324,,,,-0.18669786,-0.060742144,-0.25518876,,,,
12334,-0.4946667,-0.47226873,8.867862,,,,13.613554,27.254454,-84.108765,
12344,,,,-0.22664523,0.08306843,-0.31111512,,,,
12354,-1.0480223,-0.16085654,8.292947,,,,11.304823,27.090555,-82.92616,
12364,,,,-0.15793574,0.29665375,-0.20032774,,,,
12374,-1.1127001,0.25356126,7.9839296,,,,13.61315,27.54927,-84.11218,
12384,,,,-0.07644309,0.42395276,0.011659708,,,,
12394,-0.4802938,0.53383225,7.928834,,,,11.304888,27.66861,-83.70668,
12404,,,,0.016767468,0.31636116,0.18742818,,,,
12414,0.24074522,0.8452444,7.5503483,,,,12.536001,27.247375,-83.51642,65.0
12424,,,,0.07748749,0.0473821,0.20553765,,,,
12434,0.44436085,1.178216,7.43297,,,,12.844164,26.52195,-83.03606,
12444,,,,0.071095906,-0.08098215,0.1256429,,,,
12454,0.3557282,1.2524759,7.7563596,,,,13.611395,28.585768,-83.8147,
12464,,,,0.04819274,-0.065003194,0.053737618,,,,
12474,0.053897917,1.1398883,8.230664,,,,12.997484,27.399471,-83.66145,
12484,,,,0.05405169,-0.039436877,0.011659708,,,,
12494,-0.22397761,1.1350974,8.678618,,,,14.689116,28.590528,-84.56177,
12504,,,,0.089205384,-0.093232684,0.007931286,,,,
12514,,,,,,,13.459288,27.692028,-84.272415,
12524,-0.07066698,1.1758205,9.172088,0.13607699,-0.19656323,0.036160767,,,,
12534,,,,,,,12.229433,26.938623,-84.13953,
12544,0.46831566,0.99376416,9.313421,0.17708965,-0.2743275,0.005800759,,,,
12554,,,,,,,11.461378,26.477776,-84.617584,
12564,0.87794244,0.7039112,9.46194,0.15951279,-0.24077167,-0.13161825,,,,
12574,,,,,,,12.383356,27.37392,-84.759796,70.0
12584,0.544971,0.39489448,10.206934,0.07056327,-0.18697587,-0.3244309,,,,
12594,,,,,,,12.231619,28.21203,-87.713806,
12604,-0.40842944,0.23439743,10.695612,0.04766011,-0.18111691,-0.4480015,,,,
12614,,,,,,,12.077658,27.053587,-86.15657,
12624,-0.69109595,0.15534665,10.829759,0.10518434,-0.17206217,-0.36011726,,,,
12634,,,,,,,9.462698,26.576303,-85.906555,
12644,-0.25990978,0.227211,11.387905,0.091335915,-0.14969164,-0.19659932,,,,
12654,,,,,,,9.46138,28.041128,-86.54262,
12664,0.2503271,0.447595,12.061035,0.11051066,-0.10335268,-0.13374877,,,,
12674,,,,,,,10.384626,27.762634,-86.36165,
12684,0.92824745,0.43322214,11.304063,0.16590437,-0.11666848,-0.18754458,,,,
12694,,,,,,,9.309584,26.419611,-86.37283,
12704,1.1174904,0.61288303,10.693215,0.0029190425,0.010630512,-0.34413826,,,,
12714,,,,,,,10.078569,27.446934,-87.44896,
12724,0.91866565,0.18888333,11.330414,-0.34915054,0.21462847,-0.49327517,,,,
12734,,,,,,,9.308632,26.86647,-86.06851,
12744,0.23116332,-0.6471387,12.525757,-0.57179064,0.33020955,-0.591812,,,,
12754,,,,,,,8.999393,26.882648,-84.68352,
12764,-0.64558184,-0.88429093,13.172537,-0.4407632,0.30996954,-0.5944752,,,,
12774,,,,,,,9.307772,27.746292,-86.388245,76.0
12784,-1.0264629,-0.8675227,12.350888,-0.052474663,0.19119269,-0.43681622,,,,
12794,,,,,,,10.381708,28.52516,-84.66815,
12804,-0.791706,-0.5082009,10.803408,0.24579912,0.022348411,-0.20831722,,,,
12814,,,,,,,9.61322,28.504221,-85.306076,
12824,0.16408992,-0.103365034,9.5362,0.26657173,-0.10495058,-0.016037142,,,,
12834,,,,,,,11.000608,28.052893,-87.27829,
12844,1.2396598,0.035572723,9.138551,0.048725374,-0.10068952,-0.0016560858,,,,
12854,,,,,,,9.307634,28.471756,-87.17047,
12864,1.5702357,0.07869133,9.356539,-0.18350206,0.03459894,-0.1678372,,,,
12874,,,,,,,9.153553,27.025444,-85.14563,
12884,0.91627014,-3.594756E-4,9.581714,-0.27032104,0.20876953,-0.38408566,,,,
12894,,,,,,,7.1526566,28.745472,-86.45343,
12904,-0.17127708,-0.026709706,9.964991,-0.18563259,0.3190243,-0.48102465,,,,
12914,,,,,,,9.30682,28.193153,-86.08391,
12924,-0.8707568,0.07629584,9.670347,0.027420104,0.24445586,-0.41071725,,,,
12934,,,,,,,9.151337,28.646942,-85.16446,
12944,-1.1965418,0.42843118,9.093037,0.23567913,0.12940739,-0.25625405,,,,
12954,,,,,,,8.845686,28.036423,-86.24834,
12964,-0.846802,0.81410325,8.2115,0.39440337,0.10330844,-0.045331888,,,,
12974,,,,,,,8.691212,27.753168,-85.32031,82.0
12984,-0.089830816,1.1614476,7.23175,0.41251284,0.06868737,0.07983657,,,,
12994,,,,,,,9.308523,27.446842,-86.69429,
13004,0.25990906,1.5135831,6.9562697,0.23780966,-0.027718974,0.0702492,,,,
13014,,,,,,,7.3093395,26.538986,-86.26921,
13024,0.36291462,1.5447241,7.3587103,0.052986424,-0.072992675,0.03882393,,,,
13034,,,,,,,9.616386,26.435862,-85.59157,
13044,0.3102141,1.504001,7.88332,-0.0018746434,-0.021327393,0.0073986542,,,,
13054,,,,,,,6.539427,25.81343,-84.732315,
13064,0.15211254,1.4944191,8.70976,0.06363907,-0.0026852824,-0.019232932,,,,
13074,,,,,,,5.924467,26.522608,-85.99394,
13084,0.24074522,1.4513005,8.970867,0.21970017,-0.12252743,-0.03627715,,,,
13094,,,,,,,7.1545258,27.128605,-86.12512,
13104,0.49466592,1.3866227,8.829534,0.27030018,-0.286578,-0.09966033,,,,
13114,,,,,,,8.846228,27.016142,-85.46269,
13124,0.45394284,1.1039561,9.126573,0.15205595,-0.2514243,-0.16464141,,,,77.0
13134,,,,,,,8.23535,24.48695,-86.37718,
13144,0.10899392,0.6607926,10.151838,-0.022114651,-0.108679,-0.19766457,,,,
13154,,,,,,,8.388163,26.239664,-87.63179,
13164,-0.50664407,0.30626178,11.191476,0.0045169373,0.07507896,-0.1428035,,,,
13174,,,,,,,7.7699776,26.557571,-85.484146,
13184,-0.4922712,0.14097376,11.3855095,0.23834229,0.13899477,0.011659708,,,,
13194,,,,,,,5.930666,23.111353,-87.34717,
13204,0.022756696,0.24397933,10.726753,0.41570863,0.007434721,0.09901132,,,,
13214,,,,,,,6.0796223,25.060116,-85.35408,
13224,-0.235955,0.9626229,10.285985,0.34114018,-0.078851625,0.06652078,,,,71.0
13234,,,,,,,5.92931,23.853031,-87.046265,
13244,-0.3701018,1.4369277,10.075183,0.11423908,0.07135054,0.14108922,,,,
13254,,,,,,,6.850773,24.756126,-86.72427,
13264,0.43956995,1.3914136,10.535115,-0.17604521,0.2641632,0.27158403,,,,
13274,,,,,,,7.6193943,24.0516,-85.30411,
13284,1.7786424,0.54820514,11.555589,-0.43011057,0.29612112,0.16186185,,,,
13294,,,,,,,7.6193943,24.0516,-85.30411,
13304,2.2433653,-0.5153874,12.54013,-0.57232326,0.14698425,-0.23974249,,,,
13314,,,,,,,5.4642773,25.050777,-85.36928,
13324,0.8468013,-1.1238389,12.909034,-0.56539905,0.052708417,-0.69247943,,,,64.0
13334,,,,,,,7.003134,25.212269,-85.951935,
13344,-0.8491975,-1.1358162,12.626368,-0.3954895,0.16402848,-0.80166894,,,,
13354,,,,,,,6.07856,26.087349,-85.67554,
13364,-1.5750275,-0.9058503,11.991566,-0.19308944,0.22741166,-0.51511306,,,,
13374,,,,,,,6.6935844,25.956226,-85.19443,
13384,-0.79889244,-0.9010594,11.6298485,-0.016255701,0.017554725,-0.09113822,,,,
13394,,,,,,,5.46665,24.440296,-86.755035,
13404,1.0192758,-1.0447881,11.1675205,0.11583698,-0.3536896,0.074510254,,,,
13414,,,,,,,5.9245415,25.21909,-84.4312,
13424,1.931953,-1.1837258,10.405759,0.16856754,-0.44370437,-0.15185826,,,,57.0
13434,,,,,,,5.3111286,24.170938,-84.898605,
13444,1.4839987,-1.0352061,9.723048,,,,,,,
13454,,,,0.0961296,-0.19336745,-0.46717623,4.2338276,25.607841,-86.33493,
13464,0.6575585,-0.93220055,9.696697,,,,,,,
13474,,,,-0.032767285,0.10171054,-0.62163943,3.926632,24.004833,-84.77637,
13484,0.29823667,-0.92740965,10.09195,,,,,,,
13494,,,,-0.013592543,0.24552111,-0.5832899,5.3108177,24.89872,-85.52611,
13504,0.36291462,-0.74295783,9.6751375,,,,,,,
13514,,,,0.22982019,0.22794427,-0.5140478,4.6949425,24.028088,-83.9837,
13524,0.59288055,-0.39082244,8.772043,,,,,,,52.0
13534,,,,0.46258023,0.1310053,-0.5039278,4.696718,24.728073,-86.46799,
13544,1.2444508,-0.23032543,7.7563596,,,,,,,
13554,,,,0.50412554,-0.05275267,-0.53695095,4.2350807,23.56496,-84.918365,
13564,1.601377,0.04515463,7.2748685,,,,,,,
13574,,,,0.32303074,-0.24396746,-0.66052157,3.3126984,22.96363,-84.77959,
13584,1.7906199,0.093064204,7.8378057,,,,,,,
13594,,,,0.13394646,-0.28018644,-0.7633195,3.1630173,21.169228,-86.310165,
13604,2.0277722,-0.053059995,7.9863253,,,,,,,
13614,,,,0.1110433,-0.18697587,-0.82350683,2.5445595,22.93806,-85.726974,
13624,1.9439304,0.1481602,7.7946873,,,,,,,
13634,,,,0.06470433,-0.06447057,-0.9364248,1.929985,21.61594,-84.79837,
13644,1.4193206,0.39010352,8.369602,,,,,,,
13654,,,,-0.099878885,0.012228407,-1.072246,1.6226349,21.751732,-85.27188,
13664,1.2899649,0.337403,9.574528,,,,,,,
13674,,,,-0.08762835,0.036729466,-1.127107,2.3924637,20.16275,-83.841446,47.0
13684,1.6876142,0.282307,10.223702,,,,,,,
13694,,,,0.22715703,-0.04689372,-1.1505429,2.5444584,21.63686,-84.00951,
13704,2.116405,0.22481552,8.860675,,,,,,,
13714,,,,0.49986446,-0.4053549,-1.3268439,1.4682045,20.310051,-82.93756,
13724,1.8265519,0.40687189,8.015072,,,,,,,
13734,,,,0.29852965,-0.72386867,-1.6128672,1.1624088,19.556755,-83.710266,
13744,1.4217161,-0.0027549267,9.327794,,,,,,,
13754,,,,-0.15846837,-0.64610445,-1.789701,-1.450407,18.76149,-85.00415,
13764,0.88752437,-0.63037026,10.798616,,,,,,,
13774,,,,-0.37684742,-0.36380962,-1.8296484,-1.915348,20.3922,-83.95125,43.0
13784,0.19044018,-0.6471387,11.917306,,,,,,,
13794,,,,-0.3049421,-0.1608769,-1.7636019,-4.2237873,20.513855,-83.39102,
13804,0.43956995,-0.9034549,12.307769,,,,,,,
13814,,,,0.0045169373,-0.09270005,-1.5990187,-2.6847115,19.514603,-82.72211,
13824,0.65995395,-0.58246076,11.71369,,,,,,,
13834,,,,0.29160544,-0.20188956,-1.5857029,-2.6835575,18.920334,-83.024734,
13844,0.655163,0.23439743,11.098052,,,,,,,
13854,,,,0.39174023,-0.33185172,-1.6197914,-3.7594585,18.457132,-83.35567,
13864,1.6948006,0.38052163,10.336289,,,,,,,
13874,,,,0.28148544,-0.36380962,-1.5244503,-4.068651,20.064697,-84.00102,39.0
13884,3.117715,-0.22313896,9.85959,,,,,,,
13894,,,,-0.059931505,-0.26740324,-1.6389661,-2.989729,18.316763,-83.644424,
13904,3.177602,-1.3609912,10.721962,,,,,,,
13914,,,,-0.49882007,-0.09909163,-2.086377,-4.06604,17.28014,-82.88536,
13924,1.1653999,-2.1802452,12.578458,,,,,,,
13934,,,,-0.67884964,0.063361056,-2.5364506,-4.990879,17.724573,-81.83017,
13944,-0.8683613,-2.0293298,13.237215,,,,,,,
13954,,,,-0.3784453,0.08306843,-2.541777,-5.6059036,17.855696,-82.311264,
13964,-1.5534681,-1.3274544,11.802322,,,,,,,
13974,,,,0.17975278,0.021815779,-2.1449661,-6.8364086,15.953129,-80.15314,
13984,-1.1294684,-0.28063044,9.481104,,,,,,,
13994,,,,0.51584345,0.01329367,-1.6384335,-5.9108906,16.512762,-83.07713,
14004,0.22876784,0.7063067,8.079749,,,,,,,
14014,,,,0.3629781,-0.013870549,-1.2346987,-3.6033802,16.692875,-83.176575,
14024,1.8145747,0.842849,7.947998,,,,,,,
14034,,,,-0.011462016,-0.0532853,-1.1255091,-5.447405,14.322527,-82.11165,
14044,2.432608,0.3709397,8.268992,,,,,,,
14054,,,,-0.28896317,-0.09909163,-1.4030102,-7.753703,14.126202,-83.09532,
14064,1.1318632,0.0595275,9.0547085,,,,,,,
14074,,,,-0.42904532,-0.19656323,-1.8632041,-5.2924824,13.15254,-81.629944,
14084,-0.796497,0.22002456,9.5362,,,,,,,
14094,,,,-0.40294635,-0.36487487,-2.0837138,-6.5241966,14.884241,-82.91876,
14104,-1.7235471,0.5410187,8.839116,,,,,,,
14114,,,,-0.25008103,-0.49536967,-1.901021,-7.600993,14.577715,-82.63246,
14124,-1.7211516,0.82368517,8.302529,,,,,,,
14134,,,,-0.17284943,-0.45488966,-1.5441577,-6.678068,14.158758,-81.985596,
14144,-0.7509829,0.9626229,8.6977825,,,,,,,
14154,,,,-0.21386208,-0.39097384,-1.197947,-6.368922,13.7096195,-82.74652,
14164,0.34375083,1.0320917,9.36133,,,,,,,
14174,,,,-0.23143892,-0.42133385,-1.0408207,-5.9065247,12.691708,-82.25894,37.0
14184,0.6767223,1.1758205,9.847611,,,,,,,
14194,,,,-0.09242204,-0.36274436,-1.0717133,-7.139448,12.55805,-80.12135,
14204,0.600067,1.2452893,9.519432,,,,,,,
14214,,,,0.16963279,-0.20082428,-1.1409554,-8.215394,13.253275,-81.8586,
14224,0.1880447,1.5303513,8.498958,,,,,,,
14234,,,,0.2905402,-0.047426354,-1.1798376,-8.982158,11.472694,-81.85704,
14244,-0.24074596,1.908837,8.386371,,,,,,,
14254,,,,0.14992541,0.033533674,-1.0994102,-8.369817,12.679834,-80.617676,
14264,-0.17846352,2.0861022,8.98524,,,,,,,
14274,,,,-0.014125174,0.045251574,-0.9348269,-7.444584,11.072342,-80.57605,
14284,0.12336677,2.0956843,9.473918,,,,,,,
14294,,,,-0.05194203,0.051643156,-0.8394858,-6.9829206,12.090361,-81.96922,
14304,0.101807475,2.0262153,9.7278385,,,,,,,
14314,,,,-0.0849652,0.015424198,-0.8442795,-7.754133,11.816299,-79.81854,
14324,-0.13534491,1.5782609,10.743521,,,,,,,
14334,,,,-0.17711048,-0.088438995,-0.83842057,-7.4437695,11.3509445,-81.6626,
14344,-0.34854248,0.9674139,11.766391,,,,,,,
14354,,,,-0.18350206,-0.2610117,-0.7835595,-6.832032,13.000315,-80.42836,
14364,-0.51143503,0.5146684,12.384424,,,,,,,
14374,,,,0.018897995,-0.31054646,-0.66478264,-8.060588,11.795416,-80.909256,
14384,-0.6192316,0.7494253,12.022707,,,,,,,
14394,,,,0.3699023,-0.1757906,-0.47143728,-8.06068,11.362453,-80.2852,
14404,-0.1688816,1.1255155,11.122006,,,,,,,
14414,,,,0.57975924,-0.013337918,-0.25465617,-8.058309,10.751972,-81.670944,
14424,0.35812366,1.3938091,10.106324,,,,,,,
14434,,,,0.512115,0.054838944,-0.1428035,-6.982728,11.074713,-80.8741,
14444,1.0312531,1.6621027,9.878754,,,,,,,
14454,,,,0.2117107,0.005304194,-0.16730458,-8.059929,11.063004,-80.59125,
14464,1.606168,1.2524759,10.456064,,,,,,,
14474,,,,-0.18350206,-0.13424532,-0.32549617,-6.5232162,11.542475,-79.629974,
14484,1.666055,0.39249903,11.0884695,,,,,,,
14494,,,,-0.433839,-0.16673586,-0.5960731,-6.8308334,11.24762,-79.32469,
14504,0.6359992,-0.14408818,11.869396,,,,,,,
14514,,,,-0.58350855,-0.060742144,-0.86505216,-6.674205,9.331322,-79.45337,
14524,-0.37249726,-0.13929722,12.655113,,,,,,,
14534,,,,-0.60108536,0.029805256,-0.83575743,-7.752467,10.346842,-79.49196,
14544,-0.6359999,-0.12252888,12.4419155,,,,,,,
14554,,,,-0.33849794,0.12621161,-0.53695095,-6.3672657,11.37192,-81.32654,
14564,-0.13055395,-0.103365034,11.296877,,,,,,,
14574,,,,0.024756946,0.15763688,-0.19233826,-6.830018,11.526224,-80.41124,
14584,0.21918592,0.10025062,10.245262,,,,,,,
14594,,,,0.23408124,0.0841337,-0.102856115,-7.755232,12.12038,-79.20303,
14604,0.27907288,0.12899637,9.73263,,,,,,,
14614,,,,0.35339075,-0.021327393,-0.18488142,-6.5218887,10.94589,-80.087326,
14624,0.44436085,0.16971952,8.951704,,,,,,,39.0
14634,,,,0.37895706,-0.22692324,-0.26317826,-9.2918625,11.205633,-79.69495,
14644,0.52820265,0.24637482,8.2354555,,,,,,,
14654,,,,0.20744964,-0.3446349,-0.3665088,-6.5197277,9.614574,-80.38139,
14664,0.31979603,0.16253307,8.431885,,,,,,,
14674,,,,-0.040756762,-0.2061506,-0.4352183,-7.754691,11.1001,-78.41737,
14684,0.051502436,0.16492856,8.65706,,,,,,,
14694,,,,-0.16326205,0.05590421,-0.42509833,-8.213197,9.895292,-79.65294,
14704,-0.14253134,0.31105274,8.669037,,,,,,,
14714,,,,-0.17178416,0.22687902,-0.3963362,-8.213197,9.895292,-79.65294,
14724,-0.22397761,0.44280407,8.903794,,,,,,,
14734,,,,-0.14408731,0.17095268,-0.37023723,-7.140785,12.286396,-78.5706,
14744,-0.25272334,0.5362277,9.291861,,,,,,,
14754,,,,-0.04874624,-0.019196866,-0.33668146,-9.293218,11.947311,-79.39404,
14764,-0.18804543,0.7134931,8.870256,,,,,,,
14774,,,,0.17868753,-0.12412532,-0.2876793,-5.7565536,12.021854,-77.91406,
14794,-0.3054239,1.108747,7.813851,0.3816202,-0.08790636,-0.2434709,-6.9846973,11.390377,-79.48494,
14814,-0.31740126,1.5519106,6.752654,0.35711917,0.029272621,-0.17742456,-6.8314276,12.558086,-80.42323,
14834,-0.116181076,1.7100123,7.037716,0.07748749,0.16083267,-0.10072559,-6.9843493,11.385744,-79.7944,
14854,-0.022757411,1.6261705,8.654664,-0.12970626,0.21090005,-0.091670856,-6.831236,11.5424385,-79.32811,
14874,-0.180859,1.6094022,9.564946,-0.020516755,0.095318966,-0.13215087,-6.831236,11.5424385,-79.32811,
14894,-0.11857656,1.6070067,10.012901,0.24792965,-0.2061506,-0.15452142,-5.4467106,11.56345,-79.293915,
14914,0.6479766,1.3339221,9.921872,0.45246023,-0.5289254,-0.19553405,-6.523162,11.252289,-79.31709,
14934,1.1222814,0.99855506,9.540991,0.3693697,-0.58485174,-0.34413826,-6.371174,11.858156,-78.39174,
14954,0.61683536,1.0344872,10.650098,0.08867276,-0.29350224,-0.43788147,-7.140538,10.980562,-77.1626,
14974,0.25751355,0.90034044,11.790346,0.023159048,0.08519896,-0.3382793,-8.369477,11.806961,-79.83374,
14994,0.0059883296,0.55299604,11.047747,0.22555913,0.414898,-0.17529404,-7.754939,12.405937,-79.82539,
15014,-0.42519778,0.95064545,10.341081,0.2521907,0.59279704,-0.055984523,-7.9090414,11.972956,-79.050385,
15024,,,,,,,,,,42.0
15034,-0.02036193,1.2309165,11.397487,-0.0056030657,0.40957168,-0.020830829,-6.061846,12.274942,-80.4008,
15054,0.9569932,0.71828413,12.396401,-0.20747049,-0.13531058,-0.13960773,-8.060396,10.779768,-79.81416,
15074,1.5798178,0.33261204,12.417961,-0.17870837,-0.51880544,-0.37076986,-7.755946,13.1429825,-79.833954,
15094,1.2492416,-0.048269033,11.63943,-0.19948103,-0.48738018,-0.62856364,-7.141884,12.590479,-77.95511,
15114,-0.16648611,-0.40279987,11.617871,-0.38696742,-0.13637584,-0.83362687,-9.141432,12.700588,-78.4704,
15134,-1.357039,-0.42675462,12.147272,-0.45674217,0.2082369,-0.74893844,-7.6027784,13.009489,-79.05478,
15154,-1.297152,-0.36447218,12.061035,-0.23676524,0.2993169,-0.33295304,-9.755788,12.967539,-79.72688,
15174,-0.046712205,-0.19918418,11.0884695,0.10944539,0.013826301,0.11818606,-6.525111,13.304434,-80.114716,45.0
15194,1.0264621,0.25595674,9.605669,0.2772244,-0.38138646,0.251344,-8.682368,14.621595,-78.63599,
15214,1.4768121,0.8045213,8.510936,0.21277596,-0.51134855,0.16452502,-7.9105606,13.585188,-79.68814,
15234,1.7906199,1.0704194,6.932315,0.03327905,-0.3286559,0.06172709,-9.4488945,13.416752,-79.5697,
15254,1.6516821,1.233312,5.914237,-0.36086845,0.14272319,-0.08634454,-10.218367,13.119526,-78.96634,
15274,0.46831566,1.1758205,7.50723,-0.83224756,0.5677634,-0.24080774,-9.908781,13.098717,-80.66081,
15294,-0.53299433,0.8763857,9.1337595,-0.90202236,0.5427297,-0.2940709,-8.834209,14.158503,-79.87253,
15314,-1.0504177,0.7542163,9.790121,-0.58244324,0.20291059,-0.2727656,-10.990019,15.166946,-79.31877,
15334,-1.1246774,0.6488152,8.776834,-0.17604521,-0.22639062,-0.1880772,-9.453334,15.791508,-78.51396,
15354,-0.5976722,0.842849,7.914461,-0.01305991,-0.47992334,-0.01763504,-8.991936,16.378885,-79.12834,
15374,0.27667743,0.9674139,8.027049,-0.04288729,-0.38618013,0.1863629,-11.143416,15.592941,-80.2561,49.0
15394,0.820451,1.0560466,8.122869,-0.0716494,-0.078851625,0.2864977,-8.83712,15.789265,-79.27243,
15414,0.9474114,1.3938091,8.204314,-0.12917362,0.2417927,0.24122399,-10.990129,15.747316,-79.94455,
15434,0.36770558,1.4129729,9.088245,-0.20054628,0.41969168,0.13949132,-11.148671,17.689096,-78.113815,
15454,-0.099412724,1.1590521,9.8931265,-0.19575259,0.18852952,0.08942394,-9.914568,17.083393,-80.39757,
15474,0.029943138,0.74702984,10.623748,-0.16539258,-0.2210643,0.064922884,-9.4541855,17.539572,-79.92711,52.0
15494,0.21199948,0.31105274,10.915996,-0.10307467,-0.3552875,-0.003253981,-11.604658,16.016582,-81.046295,
15514,-0.09701724,0.32303014,11.797532,0.007180097,-0.047426354,0.010061813,-11.299752,17.794794,-80.74979,
15534,0.05868885,-0.30458525,12.243091,0.30332336,0.2801422,0.15813343,-9.91509,17.090342,-79.933365,
15554,0.12336677,-0.43154564,11.421442,0.45778656,0.18852952,0.15547027,-10.531386,17.527863,-79.644226,
15574,-0.47789833,0.25595674,10.904018,0.3320855,0.057502102,0.11818606,-10.991676,17.504644,-80.73877,
15594,-0.47550285,0.3829171,11.318436,0.15312122,0.15923479,0.29874822,-12.222044,17.626429,-81.23508,
15614,0.075457215,0.34458944,11.946052,0.08281381,0.21196532,0.439363,-12.682812,16.451735,-80.45911,
15624,,,,,,,,,,56.0
15634,0.44915187,0.2487703,11.828672,0.121695936,0.15071268,0.37065354,-11.144945,16.336935,-79.80046,
15654,0.68869966,-0.1416927,10.654889,0.06576959,0.14964741,0.19808082,-11.604099,16.732782,-82.447464,
15674,-0.22876856,-0.71421206,10.6261425,-0.26659262,0.26842427,-0.01816767,-12.373436,15.710091,-81.061874,
15694,-1.5247225,-1.2100761,11.608289,-0.510538,0.31476325,-0.08155085,-10.680461,15.291231,-81.16968,
15714,-2.0229821,-1.279545,12.319746,,,,-12.224012,17.942093,-79.84589,
15724,,,,-0.41999057,0.10703686,0.11658817,,,,60.0
15734,-1.3977622,-1.0759294,11.498096,,,,-11.450117,16.877893,-82.75485,
15744,,,,-0.04235466,-0.24450009,0.40633985,,,,
15754,-0.089830816,-0.5992291,10.127883,,,,-12.680952,16.71644,-82.47406,
15764,,,,0.34593388,-0.45435703,0.5847715,,,,
15774,1.3881794,-0.41238174,8.5396805,,,,-13.145033,17.467327,-81.10141,
15784,,,,0.43754652,-0.55395913,0.47504935,,,,
15794,1.8002017,-0.37884507,7.718032,,,,-14.529091,17.729553,-81.912704,
15804,,,,0.16217594,-0.4421065,0.111261845,,,,
15814,0.88033795,-0.36926314,8.1564045,,,,-12.063173,16.69335,-84.62514,
15824,,,,-0.23729788,-0.10654847,-0.20192564,,,,
15834,-0.44436163,-0.43154564,9.200832,,,,-15.760777,16.566349,-79.6084,
15844,,,,-0.3885653,0.32488325,-0.26530877,,,,
15854,-1.1797736,-0.28781685,9.327794,,,,-12.836263,17.167913,-81.709335,
15864,,,,-0.2010789,0.5517844,-0.08527928,,,,
15874,-1.0911407,-0.050664514,9.016381,,,,-13.914332,17.167786,-80.65279,
15884,,,,0.10252118,0.43140957,0.1357629,,,,
15894,-0.0682715,0.37333518,8.398348,,,,-12.681648,16.725704,-81.85512,
15904,,,,0.3549886,0.030870518,0.24069135,,,,
15914,0.83242834,0.81170774,7.186236,,,,-12.677867,15.083359,-83.2289,
15924,,,,0.44393814,-0.26207697,0.12351238,,,,
15934,0.63120824,1.1327019,6.6280894,,,,-13.757091,15.677498,-81.869736,
15944,,,,0.3193023,-0.16034427,-0.093268745,,,,
15954,-0.099412724,0.9674139,7.3730826,,,,-14.834346,15.955975,-81.89975,
15964,,,,0.12222856,0.13047267,-0.16091299,,,,
15974,-0.5042486,0.55539155,8.580404,,,,-14.062602,14.3415165,-82.17139,
15984,,,,0.049790636,0.19705163,-0.06503927,,,,
15994,-0.31979674,0.51945937,9.761374,,,,-14.063609,15.078562,-82.17995,
16004,,,,0.16217594,0.05057789,0.04628077,,,,
16014,0.05629337,0.7542163,9.572132,,,,-13.603888,16.267155,-82.02753,
16024,,,,0.42902443,-0.057546355,0.039356563,,,,
16034,0.17606732,1.1422838,8.795997,,,,-13.911092,16.545721,-82.81221,
16044,,,,0.60692346,-0.014935814,-0.028287672,,,,
16054,0.49706143,1.2788261,8.669037,,,,-14.985125,14.465654,-82.814835,
16064,,,,0.49027708,-0.107613735,-0.056517158,,,,
16074,0.48987502,1.0680239,9.36133,,,,-14.370787,15.212038,-82.8082,
16084,,,,0.2117107,-0.28391486,-0.16357616,,,,
16094,-0.19762734,0.9266907,10.307544,,,,-14.52249,14.023479,-83.2625,
16104,,,,0.064171694,-0.25834855,-0.28341827,,,,
16114,-0.30781937,0.42124474,10.753103,,,,-15.445883,14.159197,-83.13228,
16124,,,,0.071095906,-0.13850638,-0.25465617,,,,
16134,-0.056294113,0.37573066,11.529238,,,,-14.675346,13.429192,-83.414185,
16144,,,,-0.0034725387,-0.21999902,-0.20618668,,,,
16154,0.24074522,0.51227295,12.683859,,,,-15.134768,10.644581,-81.84572,
16164,,,,-0.06738835,-0.3984307,-0.16570668,,,,
16174,0.69828165,0.8093122,12.331724,,,,-15.598198,12.544628,-82.49831,
16184,,,,-0.0279736,-0.4202686,-0.14972773,,,,
16194,1.0647899,1.127911,11.5771475,,,,-16.210613,9.891193,-81.863754,
16204,,,,-0.108400986,-0.14862637,-0.17742456,,,,
16214,1.4983715,0.6320469,11.474142,,,,-18.982454,11.767803,-81.79967,
16224,,,,-0.3182579,0.257239,-0.1662393,,,,
16234,1.6229364,-0.45310488,12.06343,,,,-16.82886,12.380859,-82.37227,
16244,,,,-0.5217233,0.5054454,-0.22376354,,,,
16254,0.47071117,-0.9609463,12.669486,,,,-17.443802,12.076704,-82.38405,
16264,,,,-0.5776496,0.4101043,-0.4437404,,,,
16274,-1.0528132,-0.98011005,12.614389,,,,-17.135048,12.790623,-84.24179,
16284,,,,-0.3699232,0.17468111,-0.52896154,,,,
16294,-1.7091743,-0.5944381,11.222617,,,,-15.753765,13.433697,-82.04819,
16304,,,,-0.01305991,0.03459894,-0.33455092,,,,
16314,-1.4241123,-0.105760545,9.196042,,,,-16.675655,12.970514,-82.530045,
16324,,,,0.14886016,0.042588413,-0.010178195,,,,
16334,-0.346147,0.19606978,8.285761,,,,-17.748608,11.599695,-84.39804,
16344,,,,-0.029038861,0.12514633,0.28703034,,,,
16354,0.83242834,0.17690594,8.470212,,,,-20.21155,11.583187,-83.06622,
16364,,,,-0.32518214,0.0591,0.378643,,,,
16374,1.3977613,-0.0027549267,8.980449,,,,-18.980421,12.030195,-83.969376,
16384,,,,-0.46686217,-0.07778636,0.22045134,,,,
16394,1.0096939,0.06671393,9.136155,,,,-18.827015,12.472439,-84.12543,
16404,,,,-0.39442426,-0.11986426,-0.023493987,,,,
16414,-0.09222628,0.507482,8.556449,,,,-18.215553,12.822922,-81.019,
16424,,,,-0.17338206,-0.031447396,-0.13268352,,,,
16434,-0.60964966,0.89794505,7.60784,,,,-18.060116,13.527557,-83.34476,
16444,,,,0.009843254,0.054838944,-5.8190548E-5,,,,
16454,-0.15211326,1.0344872,7.162281,,,,-16.060284,12.834761,-82.35841,
16464,,,,0.0061148335,0.039925255,0.17571028,,,,
16474,0.35093725,1.0464647,7.4880657,,,,-17.906307,13.674986,-83.49739,
16484,,,,-0.08283467,-0.08737373,0.16665554,,,,
16494,0.5210162,1.1638432,7.83541,,,,-18.827885,12.48402,-83.35176,
16504,,,,-0.11585784,-0.24503271,0.05160709,,,,
16514,0.7366092,1.0991652,8.022258,,,,-19.29031,13.647026,-83.995804,
16524,,,,-0.121184155,-0.29510012,-0.033613987,,,,
16534,0.5018524,1.0656285,8.970867,,,,-18.521,12.064995,-82.101166,
16544,,,,-0.099878885,-0.15022427,-0.029885568,,,,
16554,0.27667743,1.233312,9.782935,,,,-17.751692,13.232777,-83.6432,
16564,,,,0.06363907,0.05057789,0.06066183,,,,
16574,0.6455811,1.1542612,9.897918,,,,-19.599611,13.085146,-81.83028,
16584,,,,0.22076544,0.07827474,0.10700079,,,,
16594,1.0432305,0.6607926,10.482414,,,,-18.214674,13.679583,-82.88606,
16604,,,,0.2468644,-0.04423056,0.043617614,,,,
16614,0.6791178,0.11941446,11.0621195,,,,-19.134697,11.599529,-83.03963,
16624,,,,0.23940754,-0.15448532,-0.1257593,,,,
16634,-0.23355952,-0.22792992,11.519656,,,,-19.135155,12.184534,-83.35594,
16644,,,,0.2809528,-0.13637584,-0.22589406,,,,
16654,-0.67432755,-0.5704833,11.557983,,,,-19.28877,11.021458,-82.108185,
16664,,,,0.39600128,-0.08897162,-0.09220348,,,,
16674,-0.65516376,-0.5848563,11.732854,,,,-19.440666,10.848551,-83.65761,
16684,,,,0.49294025,-0.11134216,0.105402894,,,,
16694,-0.235955,-0.20157966,11.625058,,,,-20.210196,10.841509,-83.36713,
16704,,,,0.5717698,-0.21414007,0.24335451,,,,
16714,0.4204061,0.41645378,10.954324,,,,-19.43966,10.1115055,-83.64905,
16724,,,,0.57549816,-0.316938,0.32271668,,,,
16734,0.96178424,1.2189391,9.61046,,,,-20.36254,9.372034,-82.88962,
16744,,,,0.42210022,-0.23331481,0.3328367,,,,
16754,1.4768121,1.2141482,9.40924,,,,-21.443748,11.295174,-81.39113,
16764,,,,-0.0024072751,0.07454633,0.2561377,,,,
16774,1.4887896,0.31105274,10.674053,,,,-21.593365,10.078821,-83.70224,
16784,,,,-0.49455902,0.32328534,0.052672356,,,,
16794,0.27428192,-0.5489241,12.022707,,,,-21.74677,9.636574,-83.54616,
16804,,,,-0.70548123,0.3579064,-0.23441617,,,,
16814,-1.016881,-0.81242657,12.588039,,,,-21.746706,10.21463,-84.326675,
16824,,,,-0.5845738,0.2449885,-0.31164777,,,,
16834,-1.4456717,-0.79805374,12.195181,,,,-19.134092,11.157301,-83.034485,
16844,,,,-0.2628642,0.12940739,-0.116704546,,,,
16854,-1.3043383,-0.5201783,10.875273,,,,-21.285637,9.793304,-83.381744,
16864,,,,0.051921163,0.011695775,0.09741342,,,,
16874,-0.55694914,-0.22792992,9.749398,,,,-21.285637,9.793304,-83.381744,
16884,,,,0.15844752,-0.113472685,0.29395455,,,,
16894,0.55215746,-0.15127462,9.064291,,,,-21.595259,11.840778,-84.18698,
16904,,,,0.06683486,-0.24236956,0.36106616,,,,
16914,1.0001118,-0.12731981,8.807975,,,,-19.43945,10.832336,-84.74074,
16924,,,,-0.08656309,-0.25888115,0.19062397,,,,
16934,0.5809032,-0.024314255,8.896607,,,,-21.903051,11.548243,-83.72696,
16944,,,,-0.17018627,-0.11240742,-0.016037142,,,,
16954,0.041920513,0.15055569,8.860675,,,,-20.825594,11.122356,-83.69522,
16964,,,,-0.122782044,0.06868737,-0.07675716,,,,
16974,-0.27907363,0.2487703,8.431885,,,,-21.749992,11.995121,-83.57355,
16984,,,,0.009843254,0.16136532,-0.053853996,,,,55.0
16994,-0.16648611,0.447595,8.036631,,,,-22.05761,11.700266,-83.268265,
17004,,,,0.12329382,0.10064528,0.0042028637,,,,
17014,0.20481306,0.5434141,7.7611504,,,,-22.057142,11.983503,-84.045364,
17024,,,,0.16430646,-0.04050214,0.04201972,,,,
17034,0.23595428,0.787753,8.000699,,,,-21.28799,12.140268,-84.1828,
17044,,,,0.11636961,-0.12945163,-0.012841353,,,,
17054,-0.029943839,0.90752685,8.381579,,,,-22.206877,10.479282,-85.888824,
17064,,,,0.09080328,-0.0852432,-0.085811906,,,,
17074,-0.113785595,0.74702984,8.755275,,,,-23.903725,12.107531,-83.78319,
17084,,,,0.08228118,0.018087355,-0.106051914,,,,
17094,,,,,,,-22.362051,10.205292,-84.34187,
17104,-0.20002282,0.5649735,9.598483,0.09985802,0.03459894,-0.07143085,,,,
17114,,,,,,,-21.903042,12.416483,-84.82036,
17124,-0.09701724,0.7566117,10.020087,0.21863492,-0.060209513,0.0020723366,,,,
17134,,,,,,,-23.592154,10.757721,-85.61699,
17144,0.5401801,0.85482633,9.823658,0.37150022,-0.07139477,0.054802883,,,,
17154,,,,,,,-23.438564,9.316076,-83.58452,
17164,0.8108691,0.8763857,9.524222,0.42582864,0.074013695,0.0063333907,,,,
17174,,,,,,,-23.440916,11.66304,-84.38559,
17184,0.6120444,0.56976444,9.5960865,0.34380338,0.094253704,-0.11617191,,,,
17194,,,,,,,-22.668623,9.89654,-84.96498,
17204,-0.10659915,0.40208092,10.0320635,0.20478648,-0.14330006,-0.2727656,,,,
17214,,,,,,,-22.978209,9.917351,-83.27052,
17224,-0.5952768,0.507482,10.142256,0.20531912,-0.26367483,-0.25146037,,,,
17234,,,,,,,-22.976645,9.896503,-84.66312,51.0
17244,0.017965704,0.40926737,9.816471,0.18774228,-0.19816113,-0.06983296,,,,
17254,,,,,,,-23.5898,8.410759,-84.81593,
17264,0.5090388,0.33021656,10.456064,-0.025843073,-0.13690847,-0.011243457,,,,
17274,,,,,,,-23.743452,9.274347,-86.06787,
17284,0.61683536,0.30147082,11.536425,-0.21759048,-0.0532853,-0.0421361,,,,
17294,,,,,,,-23.743544,8.841383,-85.44379,
17304,1.1486316,0.43082666,12.130504,-0.24901576,0.106504224,-0.011243457,,,,
17314,,,,,,,-22.976645,9.896503,-84.66312,
17324,2.0301678,0.15774211,11.390301,-0.26819053,0.26789165,-0.061843473,,,,
17334,,,,,,,-22.97462,9.290651,-85.739395,
17344,1.9846535,-0.26625755,11.694526,-0.45674217,0.39998433,-0.272233,,,,
17354,,,,,,,-23.745962,10.610294,-85.46434,
17364,0.9450159,-0.75014424,12.578458,-0.57019275,0.39891908,-0.49061203,,,,
17374,,,,,,,-24.516415,10.90502,-84.71309,
17384,-0.28865552,-0.75972605,12.66709,-0.3864348,0.37921166,-0.52363515,,,,47.0
17394,,,,,,,-23.593563,11.789583,-85.62897,
17404,-0.9042935,-0.30218974,11.531633,-0.037028342,0.40584326,-0.3041909,,,,
17414,,,,,,,-21.746147,10.930828,-85.72783,
17424,-0.78691506,0.1481602,9.909895,0.19360122,0.40637589,-0.022428725,,,,
17434,,,,,,,-22.670382,10.933035,-84.667496,
17444,0.2647,0.3493804,8.920562,0.19413385,0.26735902,0.18742818,,,,
17454,,,,,,,-21.43712,10.193821,-86.02115,
17464,1.4432755,0.46915433,8.649873,-0.029038861,-0.028251607,0.134165,,,,
17474,,,,,,,-22.205404,10.025473,-86.65735,
17484,1.270801,0.46915433,9.231975,-0.27085367,-0.14276743,-0.16144563,,,,
17494,,,,,,,-24.359108,9.992788,-86.71054,
17504,-0.025152892,0.4499905,9.670347,-0.27085367,-0.034110557,-0.3276267,,,,
17514,,,,,,,-21.744528,10.619799,-86.80754,
17524,-0.73421454,0.63683784,9.093037,-0.06365992,0.15231057,-0.19766457,,,,
17534,,,,,,,-22.05523,11.958023,-85.74742,
17544,-0.5401808,0.82368517,8.240247,0.10944539,0.236999,0.014322867,,,,
17554,,,,,,,-22.05523,11.958023,-85.74742,
17564,-0.23116404,1.0512556,8.022258,0.15365383,0.10863476,0.12138185,,,,
17574,,,,,,,-22.665264,9.562344,-87.592026,
17584,0.08264366,1.1854024,8.213896,0.17762226,-0.14436533,0.14535028,,,,44.0
17594,,,,,,,-23.438747,11.199966,-85.773056,
17604,0.29105026,1.3195492,7.785105,0.27189806,-0.2247927,0.117120795,,,,
17614,,,,,,,-22.050377,10.156687,-87.89314,
17624,0.29344577,1.6525208,7.586281,0.27935493,-0.0751232,0.105402894,,,,
17634,,,,,,,-23.586952,8.951752,-88.072174,
17644,0.47789764,1.6621027,7.866552,0.20904754,0.06762211,0.122979745,,,,
17654,,,,,,,-21.282644,10.477076,-86.94916,
17664,0.49706143,1.729176,8.465422,0.11903276,0.0015757716,0.0601292,,,,
17674,,,,,,,-23.589369,10.720659,-88.09271,
17684,0.25272262,1.8249952,9.718257,0.09666224,-0.16567059,-0.012841353,,,,
17694,,,,,,,-22.974264,10.154261,-87.14227,
17704,0.44436085,1.5255604,10.041646,0.22396122,-0.1976285,-0.010710826,,,,
17714,,,,,,,-23.43415,9.8362255,-88.23337,
17724,0.16648537,1.2668487,10.03925,0.28574648,-0.010674759,-0.02775504,,,,
17734,,,,,,,-23.433804,9.831593,-88.54285,
17744,-0.56413555,0.9362726,10.5734415,0.24846227,0.097982116,0.011127076,,,,
17754,,,,,,,-23.586605,8.947121,-88.38164,
17764,-0.6048587,0.7206795,10.985465,0.28894228,-0.0064137047,0.1474808,,,,
17774,,,,,,,-23.588774,9.4101925,-86.99417,
17784,0.14971703,0.65121067,10.377013,0.32995492,-0.16673586,0.23270188,,,,41.0
17794,,,,,,,-24.045458,7.7469444,-89.30774,
17804,0.16408992,0.85722184,10.889646,0.18241595,-0.14756112,0.174645,,,,
17814,,,,,,,-22.665264,9.562344,-87.592026,
17824,-0.47550285,0.893154,11.768785,0.09080328,0.009565247,0.16399238,,,,
17834,,,,,,,-23.279629,8.961054,-87.7551,
17844,-0.5928813,1.2668487,11.6298485,0.15684964,0.10543896,0.3062051,,,,
17854,,,,,,,-24.0489,8.516418,-87.15004,
17864,0.11138937,1.5830519,10.642911,0.121695936,0.15177794,0.41965565,,,,
17874,,,,,,,-24.046465,8.48399,-89.3163,
17884,0.91627014,1.0943742,9.943432,-0.20001365,0.21622638,0.31472722,,,,
17894,,,,,,,-22.81594,9.373224,-90.22458,
17904,0.7342138,0.13618281,11.244176,-0.62292325,0.30677378,0.015920762,,,,
17914,,,,,,,-22.355734,9.83172,-89.59938,
17924,-0.33416963,-0.5585059,12.6335535,-0.7321128,0.22261797,-0.26477614,,,,
17934,,,,,,,-23.743288,11.1536045,-88.56584,
17944,-1.2636154,-0.7309804,12.358074,-0.5190601,-0.02612108,-0.28448352,,,,
17954,,,,,,,-23.28114,11.441528,-89.48628,
17964,-1.73792,-0.4411275,11.823882,-0.2809737,-0.1992264,-0.053853996,,,,
17974,,,,,,,-22.820326,11.457796,-88.85594,
17984,-1.081559,-0.35968128,11.208243,-0.009331488,-0.17951901,0.32964087,,,,37.0
17994,,,,,,,-22.664412,10.564096,-89.61554,
18004,0.6144399,-0.09617859,10.1638155,,,,,,,
18014,,,,0.16377385,-0.16247481,0.5576073,-24.511599,11.13035,-89.358505,
18024,1.7427102,0.07629584,8.752879,,,,,,,
18034,,,,0.15099068,-0.14330006,0.40953565,-23.894258,10.67893,-90.576035,
18044,1.2588236,0.20086074,8.187546,,,,,,,
18054,,,,-0.056203082,-0.024523186,0.10487026,-23.590368,12.325947,-89.19469,
18064,-0.022757411,0.38052163,8.154009,,,,,,,
18074,,,,-0.2649947,0.087329485,-0.09966033,-24.820223,11.57254,-89.06178,
18084,-0.8108699,0.39968544,8.690597,,,,,,,34.0
18094,,,,-0.32624736,0.22208533,-0.08155085,-23.741264,10.547754,-89.642136,
18104,-0.8108699,0.25356126,9.121782,,,,,,,
18114,,,,-0.1755126,0.23806429,0.05160709,-24.048872,11.12114,-90.43025,
18124,-0.27428266,0.36854422,8.745692,,,,,,,
18134,,,,0.09879276,0.010630512,0.13203448,-22.511007,11.00634,-89.77161,
18144,-0.09222628,0.77817106,7.672518,,,,,,,
18154,,,,0.28521386,-0.22266218,0.08090183,-24.049826,11.567999,-90.125916,
18164,-0.22158213,1.1446793,7.1479077,,,,,,,
18174,,,,0.27669176,-0.1976285,0.03882393,-24.971579,10.379353,-89.82555,
18184,0.022756696,1.1614476,7.58149,,,,,,,
18194,,,,0.18188332,-0.057013724,0.0702492,-25.125029,11.095533,-91.07579,
18204,0.23355877,0.9793912,8.568427,,,,,,,
18214,,,,0.10624961,-0.05914425,0.053737618,-23.27669,9.935009,-91.63542,
18224,0.11138937,0.9769957,9.406844,,,,,,,
18234,,,,0.19626439,-0.159279,0.009529181,-23.8952,11.994032,-91.36511,
18244,0.29584128,1.0464647,8.930144,,,,,,,
18254,,,,0.4386118,-0.1757906,0.047878668,-24.816954,10.805384,-91.06476,
18264,0.6048579,1.118329,7.768337,,,,,,,
18274,,,,0.48814657,-0.14010426,0.0366934,-24.662085,9.925579,-90.89595,
18284,0.5425755,1.1806115,7.9456024,,,,,,,31.0
18294,,,,0.23727702,-0.08311268,-0.08101822,-25.889313,8.124098,-91.83421,
18304,0.3533327,0.9410635,9.2128105,,,,,,,
18314,,,,-0.05780098,-0.0074789682,-0.20725195,-24.352598,8.603567,-90.87294,
18324,-0.31261033,0.4404086,10.906414,,,,,,,
18334,,,,-0.17444731,0.036196835,-0.31590882,-24.659466,8.00926,-90.87369,
18344,-0.906689,0.10264611,11.641826,,,,,,,
18354,,,,-0.044485185,-0.06447057,-0.30046248,-24.964254,6.518919,-91.63783,
18364,-0.60246325,0.18888333,11.531633,,,,,,,
18374,,,,0.1195654,-0.246098,-0.17156562,-24.04469,9.183975,-91.8006,
18384,0.015570253,0.49790007,11.831069,,,,,,,
18394,,,,0.16004542,-0.373397,-0.044799257,-25.739632,9.918503,-90.30362,
18404,1.1725863,0.5889282,11.852628,,,,,,,
18414,,,,0.17762226,-0.3579507,0.07184709,-26.04474,8.287703,-90.60184,
18424,2.2577384,0.9290862,11.481329,,,,,,,
18434,,,,0.06576959,-0.1859106,0.07610814,-26.659105,7.686411,-90.76494,
18444,3.0865738,0.893154,11.493306,,,,,,,
18454,,,,-0.21332943,0.039925255,-0.06077821,-26.35363,8.299248,-89.52632,
18464,3.0362687,0.25835222,12.116131,,,,,,,
18474,,,,-0.46366638,0.26735902,-0.33455092,-25.583662,8.734615,-90.75032,
18484,1.4073433,-0.30218974,12.724582,,,,,,,
18494,,,,-0.46366638,0.44419274,-0.68235946,-26.198294,7.7026787,-90.1346,
18504,-0.65037274,-0.48903707,12.084989,,,,,,,
18514,,,,-0.2628642,0.46762854,-0.7894184,-24.965609,7.260597,-91.33693,
18524,-1.7331291,-0.11055148,10.767476,,,,,,,
18534,,,,-0.0716494,0.35364535,-0.49913412,-25.580091,6.371439,-91.032394,
18544,-1.1989374,0.36375326,9.749398,,,,,,,
18554,,,,0.012506414,0.18746427,0.0068660225,-25.271423,7.5206375,-93.3595,
18564,0.70786357,0.62965137,9.176879,,,,,,,
18574,,,,-0.062062036,-0.10974426,0.29874822,-23.580389,7.2723427,-91.92168,
18584,2.1235912,0.77577555,8.827139,,,,,,,
18594,,,,-0.16432732,-0.31534013,0.19701555,-24.65672,7.249052,-92.41246,
18604,1.872066,0.90513146,8.326484,,,,,,,
18614,,,,-0.3049421,-0.25355485,-0.11297612,-24.658459,7.272215,-90.86513,
18624,0.33416885,0.8284761,8.949307,,,,,,,
18634,,,,-0.5057443,-0.018664235,-0.31963724,-24.35127,8.006981,-91.33029,
18644,-0.93543476,0.7566117,9.974573,,,,,,,
18654,,,,-0.45514426,0.05324105,-0.25678667,-23.73373,7.4081535,-92.54613,
18664,-1.0767679,0.86440825,9.723048,,,,,,,
18674,,,,0.021028522,-0.080449514,0.031367086,-25.888771,7.103815,-91.04855,
18684,0.3030277,1.2428938,7.847388,,,,,,,
18694,,,,0.47802654,-0.4090833,0.27371454,-26.351141,7.976631,-91.379684,
18704,1.1174904,1.4560915,6.5705976,,,,,,,
18714,,,,0.51584345,-0.42186648,0.1911566,-24.966131,7.2675457,-90.87273,
18724,0.8468013,1.6525208,6.45801,,,,,,,
18734,,,,0.31131282,-0.072992675,0.028171293,-24.96279,5.196871,-91.31296,
18744,0.71505,1.7962494,7.2557044,,,,,,,
18754,,,,0.10145592,0.10810213,-0.020830829,-25.580853,5.8026466,-89.63295,
18764,0.6910952,1.5974247,8.448653,,,,,,,
18774,,,,0.018365363,-0.06287266,-0.08527928,-26.65614,5.765459,-91.05214,
18784,0.19283566,1.5279559,9.390076,,,,,,,
18794,,,,0.051388532,-0.363277,-0.201393,-24.96279,5.196871,-91.31296,
18804,-0.001198113,1.6980348,9.672743,,,,,,,
18814,,,,0.1547191,-0.3552875,-0.17848983,-25.272549,5.2199974,-89.463776,
18824,0.14253059,1.7243851,9.761374,,,,,,,
18834,,,,0.20478648,-0.058611616,-0.033613987,-25.27209,4.6349964,-89.147446,
18844,0.2431407,1.4417187,10.587815,,,,,,,
18854,,,,0.13341384,0.14698425,0.02124708,-28.65469,4.2702827,-90.465485,
18864,-0.104203686,0.9722048,11.9005375,,,,,,,
18874,,,,0.104651704,0.04684947,0.0026049684,-25.88478,3.4324856,-90.07735,
18884,-0.1688816,0.48113173,12.295792,,,,,,,
18894,,,,0.313976,-0.1709969,0.065988146,-26.343275,3.0959206,-92.40633,
18904,0.08503914,0.56257796,11.605894,,,,,,,
18914,,,,0.57496554,-0.21680324,0.20021135,-25.730368,3.1376877,-90.22487,
18924,0.16888088,1.293199,10.53751,,,,,,,
18934,,,,0.5914771,0.037794728,0.33922824,-26.03553,1.7970695,-90.83598,
18944,0.33895987,1.8705093,10.3818035,,,,,,,
18954,,,,0.33581388,0.35524327,0.44575462,-26.03553,1.7970695,-90.83598,
18964,0.6336037,2.0861022,11.090866,,,,,,,
18974,,,,0.11051066,0.48840117,0.47345147,-25.575562,1.6798286,-89.27554,
18984,1.2971512,1.4632779,11.196267,,,,,,,
18994,,,,-2.767481E-4,0.23433585,0.34135878,-25.575562,1.6798286,-89.27554,
19004,1.941535,0.56976444,11.368741,,,,,,,
19014,,,,-0.22664523,-0.3030896,-0.012841353,-24.96125,2.5713043,-89.425354,
19024,1.0839536,-0.108155996,11.938865,,,,,,,
19034,,,,-0.44129583,-0.4053549,-0.38887936,-26.655735,2.720829,-87.61206,
19044,-0.65037274,-0.12492433,12.049057,,,,,,,
19054,,,,-0.39229372,0.0591,-0.4085867,-26.80798,2.552555,-88.852005,
19064,-1.2755927,-0.031500697,11.821486,,,,,,,
19074,,,,-0.13663046,0.48573804,-0.0021887175,-25.113045,0.94978714,-89.255585,
19084,-0.5952768,0.0020360053,11.007024,,,,,,,33.0
19094,,,,0.13554436,0.39998433,0.36745775,-26.034882,0.19641495,-89.42456,
19104,0.58569413,0.35177588,9.426008,,,,,,,
19114,,,,0.2708328,-0.033577926,0.40633985,-25.112175,0.9382057,-90.02925,
19124,1.4121343,0.68474734,8.144427,,,,,,,
19134,,,,0.13394646,-0.28604537,0.19541766,-26.806221,1.5160561,-89.14949,
19144,1.0528125,0.43561763,7.8402014,,,,,,,
19154,,,,-0.13663046,-0.08950426,-0.115639284,-25.270086,2.2926636,-88.03693,
19164,0.046711475,0.25835222,8.276178,,,,,,,
19174,,,,-0.3438242,0.25830427,-0.2871467,-25.729645,0.23351288,-87.25069,
19184,-0.80368346,-0.026709706,9.210415,,,,,,,
19194,,,,-0.3917611,0.39625588,-0.25678667,-26.187683,-0.68805313,-89.263336,
19204,-1.467231,-0.06982833,9.538596,,,,,,,
19214,,,,-0.25114632,0.120352656,-0.13268352,-23.88264,1.5511513,-89.69623,
19224,-1.1630051,0.2703296,9.246346,,,,,,,
19234,,,,-0.0018746434,-0.23597798,0.0702492,-25.576834,1.986229,-88.505295,36.0
19244,0.16408992,0.64402425,8.769647,,,,,,,
19254,,,,0.18774228,-0.38937595,0.2593335,-26.346334,1.834095,-88.05838,
19264,1.100722,1.113538,8.163591,,,,,,,
19274,,,,0.25432122,-0.2546201,0.24015872,-24.961004,1.2654686,-88.017334,
19284,0.72463185,1.5830519,8.201919,,,,,,,
19294,,,,0.28840965,0.18959479,0.13949132,-25.26873,1.5509834,-88.33783,
19304,0.27667743,1.7243851,8.046212,,,,,,,
19314,,,,0.32303074,0.32328534,0.12404501,-26.8069,0.5119896,-87.2807,
19324,0.21199948,1.7267805,8.302529,,,,,,,
19334,,,,0.2841486,0.0591,0.091021836,-24.959997,0.5284233,-88.00877,
19344,0.18564922,1.6716845,8.798393,,,,,,,
19354,,,,0.2740286,-0.24503271,0.03882393,-25.113401,0.086177826,-87.85272,
19364,0.46831566,1.7052213,9.243952,,,,,,,
19374,,,,0.33474863,-0.27752328,0.027638663,-24.64945,-1.820816,-87.66432,
19394,0.9090837,1.5806564,8.9421215,0.4098497,0.0026410352,-0.010178195,-26.187838,-1.6990776,-87.858765,
19414,0.5425755,1.5375378,8.920562,0.28787702,0.27215272,-0.1257593,-26.034378,-1.5470123,-87.701935,
19434,-0.087435335,1.3866227,9.857194,0.08281381,0.3126327,-0.171033,-26.957832,-1.9893494,-86.7912,
19454,-0.087435335,1.2069616,10.515951,0.06044327,0.12940739,-0.12629193,-25.111387,-1.3879128,-87.8356,
19474,0.25751355,1.0871878,10.451273,0.12489171,-0.11666848,-0.12895508,-24.954422,-4.177086,-87.18033,
19494,0.2647,1.1039561,11.133984,0.007180097,-0.22426009,-0.2163067,-25.110043,-2.9978333,-87.04309,
19514,0.34375083,0.9266907,12.398797,-0.15207678,-0.057013724,-0.23175302,-24.956526,-3.1359596,-86.57338,
19534,0.30781865,0.98897314,13.083904,-0.20640524,0.1730832,-0.1880772,-24.649725,-3.119709,-85.792114,
19544,,,,,,,,,,38.0
19554,0.25272262,1.0584421,13.306683,-0.16379468,0.28174007,-0.18008773,-24.95423,-5.192734,-86.085205,
19574,0.57371676,0.6152785,13.057554,-0.049278874,0.27108744,-0.1662393,-24.801363,-3.7302094,-87.02693,
19594,0.6791178,0.2703296,12.786865,0.10039065,0.20131269,-0.15558667,-23.878786,-4.1445274,-86.0706,
19614,0.3988468,0.21762908,11.754413,0.23461387,0.014891567,-0.21577406,-24.339773,-4.1584816,-86.54619,
19634,-0.37489277,0.4260357,10.487205,0.31184545,-0.03730635,-0.26584142,-23.26163,-5.4618683,-86.03999,
19654,-0.80607885,0.7925439,8.848698,0.34380338,0.16828953,-0.063974,-24.494102,-4.298958,-85.92935,
19674,-0.31740126,1.4153684,7.768337,0.20798229,0.33873165,0.25560507,-23.264156,-5.8624077,-83.249664,
19694,0.6863043,1.6525208,7.598258,-0.052474663,0.19864954,0.39728513,-23.719961,-6.668995,-87.4303,
19714,1.5534675,1.6405435,7.8593655,-0.28683263,-0.10335268,0.27371454,-23.567772,-6.210533,-86.50322,
19734,1.7858288,1.5662836,7.7946873,-0.433839,-0.2844475,-0.008047667,-23.568697,-5.9087677,-86.04245,
19754,0.83721936,1.3866227,7.9671617,-0.5526159,-0.14436533,-0.28980985,-23.875097,-6.2198334,-86.8203,
19774,-0.65516376,1.3315266,8.532495,-0.5334412,0.17255057,-0.37875935,-22.957308,-4.2547646,-84.49875,
19794,-1.4169259,1.4513005,8.83193,-0.32038844,0.27854428,-0.14120562,-22.955486,-4.7132072,-85.57675,
19814,-0.91387546,1.4369277,8.60915,-0.056735717,0.051110525,0.18210186,-22.80087,-5.1554184,-85.72255,
19834,-0.19283639,1.4513005,8.834325,0.07322644,-0.31374225,0.27051878,-22.34015,-5.572109,-84.468155,
19844,,,,,,,,,,41.0
19854,0.27428192,1.6213795,8.443862,0.21011281,-0.45382437,0.20553765,-23.570345,-5.4526405,-85.1192,
19874,0.47310662,2.1004753,7.940811,0.37576127,-0.28071904,0.20607029,-23.41619,-5.3098526,-85.5813,
19894,1.0192758,2.4741697,7.746778,0.43062234,-0.1757906,0.33922824,-22.9563,-4.99181,-84.49019,
19914,1.495976,2.6011302,7.4617157,0.32516125,-0.24822852,0.31845564,-23.570747,-5.1578255,-85.12262,
19934,1.4025522,2.816723,7.492857,0.13128331,-0.1944327,0.12990394,-22.340847,-5.562847,-83.84923,
19954,1.3378744,2.5101018,8.187546,-0.105737835,-0.014935814,0.0020723366,-25.108595,-6.056362,-84.5314,
19974,0.93064296,1.8202043,9.423613,-0.3294432,0.029805256,-0.075159274,-23.56975,-6.763115,-84.020645,
19994,0.44915187,1.2740351,11.009419,-0.35873792,-0.09163478,-0.11723717,-22.649736,-5.5513,-82.77368,
20014,0.35093725,0.893154,10.939951,-0.13609785,-0.21467271,-0.06876769,-23.415337,-7.057911,-84.16815,
20034,0.47071117,0.8500354,10.939951,-0.04608308,-0.20987903,0.023377609,-23.262947,-6.7468643,-83.23938,
20054,0.23595428,0.9218998,11.773577,-0.103607304,-0.034110557,0.07237973,-24.032558,-6.3186226,-83.41824,
20074,-0.073062465,1.0967697,11.354368,-0.030104125,0.27375057,0.16825344,-25.263275,-6.1922035,-83.6051,
20094,0.05868885,1.623775,10.822572,-0.06472518,0.4015822,0.2593335,-24.64869,-6.7516594,-82.190445,44.0
20114,0.5114343,1.3458996,11.53882,-0.31026843,0.24978219,0.19808082,-22.801687,-5.434021,-84.636,
20134,0.72463185,0.54820514,12.480243,-0.52598435,-0.09163478,0.0026049684,-24.032366,-7.3342743,-82.323135,
20154,0.23355877,-0.0051504374,12.535338,-0.5275822,-0.15022427,-0.18914248,-22.802711,-6.4334564,-82.45775,
20174,-0.76535577,-0.25428018,12.080198,-0.47378638,0.12141792,-0.2349488,-23.419127,-6.283806,-81.70099,
20194,-1.5031631,-0.38603148,12.214345,-0.40560952,0.3456559,-0.0756919,-21.880987,-5.099716,-82.91455,48.0
20214,-1.3642254,-0.40040436,11.991566,-0.18669786,0.1949211,0.1794387,-21.571693,-5.4060783,-83.986664,
20234,-0.18564996,-0.13450626,10.460855,0.02049589,-0.23917377,0.32910824,-22.033247,-7.004471,-81.9677,
20254,0.8899199,0.06910941,9.155319,-0.06632309,-0.3989633,0.26146403,-21.881453,-5.38295,-82.13747,
20274,0.9330385,-0.081805766,9.224788,-0.31186634,-0.036241084,0.059063938,-21.727581,-4.6574707,-83.07063,
20294,0.18325374,-0.28781685,9.883545,,,,-22.64939,-5.555935,-83.08316,
20304,,,,-0.39229372,0.43034434,-0.04320136,,,,
20314,-0.3677063,-0.1967887,9.440381,,,,-23.573706,-5.11845,-82.49216,
20324,,,,-0.21865577,0.56989384,0.0020723366,,,,
20334,-0.681514,0.33021656,8.443862,,,,-21.265158,-5.8204765,-82.426605,
20344,,,,-0.032234654,0.41915905,0.10966395,,,,
20354,-0.44436163,0.65121067,7.950393,,,,-21.266237,-3.7799149,-83.997894,
20364,,,,0.03967063,0.186399,0.19595028,,,,
20374,0.14971703,0.87159467,7.9048796,,,,-21.266237,-3.7799149,-83.997894,
20384,,,,0.06310643,-0.03251266,0.19648291,,,,
20394,0.5329936,1.0800014,7.6533537,,,,-20.189907,-3.7566223,-83.50711,52.0
20404,,,,0.11583698,-0.13531058,0.124577634,,,,
20414,0.544971,1.113538,7.6198173,,,,-20.189907,-3.7566223,-83.50711,
20424,,,,0.16696963,-0.08897162,0.054270253,,,,
20434,0.31979603,1.1806115,7.6509585,,,,-21.421072,-4.926773,-81.66701,
20444,,,,0.17229596,-0.050089512,0.025508136,,,,
20454,-0.21200022,1.4249502,8.690597,,,,-19.57307,-5.214428,-83.01059,
20464,,,,0.13341384,-0.061807405,0.018051289,,,,
20474,-0.14492682,1.4009955,9.452359,,,,-20.342113,-5.951565,-82.24736,
20484,,,,0.28521386,-0.082580045,0.07877131,,,,
20494,0.34375083,1.5519106,8.954099,,,,-20.185568,-7.432583,-82.84537,
20504,,,,0.5137129,-0.19017164,0.09528289,,,,
20514,0.73900473,1.6668936,8.343252,,,,-20.035795,-5.2052155,-81.93886,
20524,,,,0.50412554,-0.34516752,0.013257603,,,,
20534,0.9833436,1.5063965,8.724133,,,,-21.26663,-8.116482,-78.221405,
20544,,,,0.24420123,-0.33877593,-0.0623761,,,,
20554,0.87554705,1.2716396,9.538596,,,,-20.804409,-6.3822594,-81.01575,
20564,,,,-0.039158866,-0.11400532,-0.08847506,,,,
20574,0.5305981,0.98418224,10.3027525,,,,-20.342405,-6.237114,-81.625,
20584,,,,-0.15154417,0.22261797,-0.06876769,,,,
20594,0.3964513,0.4643634,10.882459,,,,-19.724773,-6.402977,-83.46489,
20604,,,,-0.12065152,0.39519066,-0.07942033,,,,
20614,0.022756696,0.04036367,11.946052,,,,-19.72458,-7.4186325,-82.36977,
20624,,,,-0.12757576,0.18586637,-0.19979511,,,,
20634,-0.60246325,0.11701898,12.700626,,,,-18.496584,-6.929928,-80.48772,
20644,,,,-0.10627046,-0.40801805,-0.31803933,,,,
20654,-0.20960474,0.5290413,11.845442,,,,-19.726147,-7.397785,-80.97717,
20664,,,,0.03274642,-0.8021655,-0.22269829,,,,
20674,0.82524204,0.7134931,10.242866,,,,-20.651644,-6.220936,-80.23999,
20684,,,,-0.026375704,-0.6130812,-0.05119084,,,,
20694,1.876857,0.15534665,10.03925,,,,-20.80557,-6.6562347,-79.619736,
20704,,,,-0.47644952,-0.04103477,-0.05545189,,,,
20714,1.4600438,-0.79805374,12.650322,,,,-21.112144,-6.964985,-80.24283,
20724,,,,-0.95049185,0.4234201,-0.2706351,,,,
20734,-0.22158213,-1.2915224,14.722411,,,,-18.034334,-5.3408012,-83.12561,
20744,,,,-0.81200755,0.36376536,-0.47782886,,,,
20754,-1.2013328,-0.9010594,13.833689,,,,-18.192043,-4.133751,-81.13158,
20764,,,,-0.050344136,0.0042389305,-0.32336566,,,,
20774,-0.40842944,-0.15127462,10.276402,,,,-18.188297,-6.4992485,-81.56839,
20784,,,,0.59414023,-0.34250435,0.029236559,,,,
20794,0.91866565,0.56976444,7.1311398,,,,-18.191273,-5.446537,-80.18776,
20804,,,,0.48388553,-0.26420748,0.19701555,,,,
20814,1.666055,0.7542163,6.846078,,,,-18.96148,-6.4576454,-78.02852,
20824,,,,-0.2463526,0.11982002,0.1607966,,,,
20834,1.6924052,0.33261204,8.827139,,,,-18.343187,-7.3559265,-79.550385,
20844,,,,-0.87432545,0.4479212,0.017518658,,,,
20854,0.78691435,0.11701898,10.633328,,,,-18.189762,-5.1772003,-81.893265,
20864,,,,-0.98138446,0.4782812,-0.17635931,,,,
20874,-0.15450874,0.21044263,11.58673,,,,-17.266563,-4.297268,-83.11861,
20884,,,,-0.6266517,0.26789165,-0.2434709,,,,
20894,-0.31979674,0.34458944,11.052538,,,,-15.886031,-3.3547401,-80.61896,
20904,,,,0.021561153,0.17894216,-0.16091299,,,,
20914,-0.27667814,0.89794505,8.28097,,,,-17.42321,-4.117447,-80.803116,
20924,,,,0.57975924,0.27162006,-0.005384508,,,,
20934,-0.18804543,1.5111876,6.3574004,,,,-16.651934,-6.0151405,-80.29767,
20944,,,,0.5696392,0.33660114,0.11552289,,,,
20954,0.0035928488,1.6956394,6.690372,,,,-15.732634,-3.7807312,-79.68161,
20964,,,,0.19413385,0.19705163,0.16026396,,,,
20974,0.31979603,1.6165885,7.9240427,,,,-14.804335,-6.0079727,-81.64465,
20984,,,,-0.027440967,-0.014403181,0.14321975,,,,
20994,0.45154732,1.5303513,8.791205,,,,-14.959068,-5.8536377,-81.03125,
21004,,,,0.05511695,-0.0868411,0.038291298,,,,
21014,0.17846277,1.3890182,8.88463,,,,-13.576439,-4.0706635,-81.4818,
21024,,,,0.27136543,-0.0042831777,-0.08155085,,,,
21034,-0.15450874,1.4465095,8.324088,,,,-14.805691,-5.2662964,-81.343765,
21044,,,,0.3730981,0.031403154,-0.070365585,,,,
21054,-0.22397761,1.504001,8.669037,,,,-14.035832,-7.00037,-79.7569,
21064,,,,0.26444122,0.048979998,0.020714449,,,,
21074,-0.15929969,1.1973798,9.780539,,,,-13.420571,-6.5557556,-80.21103,
21084,,,,0.121695936,0.0069020893,0.040421825,,,,
21094,-0.3581244,0.8332671,10.96151,,,,-13.5769615,-4.063713,-81.01759,55.0
21104,,,,0.08707486,-0.113472685,-0.010178195,,,,
21114,-0.7246326,0.507482,11.179499,,,,-14.961119,-5.1026955,-80.111404,
21124,,,,0.23408124,-0.15608323,-0.013906617,,,,
21134,-0.91387546,0.38770807,10.753103,,,,-13.728645,-6.265602,-80.222046,
21144,,,,0.3528581,-0.035175823,0.08622815,,,,
21154,-0.77733314,0.39728996,10.729149,,,,-14.345894,-5.381222,-79.628586,
21164,,,,0.32196546,0.16935478,0.25560507,,,,
21174,-0.64558184,0.59132373,11.095656,,,,-12.191877,-6.0763206,-78.94791,
21184,,,,0.24633177,0.18267058,0.36639246,,,,
21194,-0.40363848,1.0009506,10.925578,,,,-13.578875,-4.0382347,-79.31552,
21204,,,,0.21597175,0.036729466,0.44628724,,,,
21214,0.11378488,1.5135831,10.499183,,,,-13.422905,-5.222122,-79.76224,
21224,,,,0.12862015,-0.0634053,0.4723862,,,,
21234,0.7749369,1.2548712,10.360245,,,,-13.887224,-5.046978,-77.454346,
21244,,,,-0.10627046,-0.005881073,0.33869562,,,,
21254,0.47789764,0.5721599,11.280108,,,,-14.344768,-5.8304024,-80.08765,
21264,,,,-0.43969795,0.12674426,0.053204987,,,,
21274,-0.2503279,0.09545967,12.576063,,,,-13.424315,-4.190262,-79.774216,
21284,,,,-0.59043276,0.15337582,-0.045331888,,,,
21294,-0.30781937,-0.17283392,13.167746,,,,-14.961834,-4.0800934,-80.742325,
21304,,,,-0.42584953,0.10011265,0.08622815,,,,
21314,-0.046712205,-0.12013337,12.506594,,,,-12.810289,-2.716095,-80.395065,
21324,,,,-0.08549783,-0.04050214,0.1693187,,,,
21334,0.20481306,0.13618281,11.143566,,,,-12.346647,-3.8953133,-80.83417,
21344,,,,0.20265596,-0.20881377,0.15973133,,,,
21354,0.6431856,0.17930141,9.478709,,,,-12.348213,-3.874466,-79.441574,
21364,,,,0.25698438,-0.34783065,0.07078183,,,,
21374,0.7461912,0.10743706,8.597173,,,,-12.813265,-1.6633873,-79.014465,
21384,,,,0.0029190425,-0.33238435,-0.13321613,,,,
21394,0.25990906,-0.18481132,8.903794,,,,-14.502514,-2.5966835,-80.59332,
21404,,,,-0.32411686,0.015956828,-0.29247302,,,,
21414,-0.43717518,-0.42675462,9.423613,,,,-12.351783,-1.5112877,-79.1595,
21424,,,,-0.41892532,0.4937275,-0.28235298,,,,
21434,-0.9833443,-0.2087661,9.344562,,,,-12.811699,-1.6842308,-80.40706,
21444,,,,-0.27085367,0.6769529,-0.16517405,,,,
21454,-1.222892,0.17451046,8.819952,,,,-14.043422,-0.82077026,-80.60246,
21464,,,,0.010375887,0.5651002,-0.024026617,,,,
21474,-0.95220304,0.39249903,7.9815345,,,,-12.501592,-1.7119904,-82.56572,
21484,,,,0.27509388,0.2535106,0.09634815,,,,
21494,-0.42998877,0.6488152,7.195818,,,,-11.7359085,-0.64066315,-80.701904,
21504,,,,0.34167284,-0.14170216,0.10859869,,,,
21514,-0.37968373,1.0177189,6.846078,,,,-12.813109,-0.65237045,-80.41904,
21524,,,,0.27189806,-0.27965382,0.06066183,,,,
21534,-0.45394355,1.3363175,7.066462,,,,-13.580531,-1.7005386,-80.73552,
21544,,,,0.1813507,-0.18910639,0.10273974,,,,
21554,-0.12336751,1.2500803,7.7539644,,,,-13.119344,-1.833992,-80.25821,
21564,,,,0.14619699,-0.078851625,0.17624292,,,,
21574,0.11378488,1.1997752,8.290551,,,,-11.273559,-0.50014496,-81.62062,
21584,,,,0.22023281,-0.060742144,0.1741124,,,,
21594,0.039525032,1.568679,8.482189,,,,-12.197224,-1.663311,-79.618195,
21604,,,,0.33741176,-0.12199479,0.14002395,,,,
21614,0.41561514,1.618984,8.161196,,,,-11.426762,-1.089798,-81.462845,
21624,,,,0.40079495,-0.26154432,0.11552289,,,,
21634,0.71744543,1.5662836,7.912066,,,,-12.812047,-1.6795998,-80.09758,
21644,,,,0.28361598,-0.40428963,0.003670232,,,,51.0
21654,0.59048504,1.4129729,8.772043,,,,-14.503923,-1.5648193,-80.6053,
21664,,,,-0.024245178,-0.43944332,-0.14812984,,,,
21674,,,,,,,-12.198323,-1.3592339,-79.002686,
21684,0.42519706,0.7063067,10.214121,-0.27884316,-0.286578,-0.24879724,,,,
21694,,,,,,,-14.351223,-1.9815521,-79.04903,
21704,0.17846277,-0.01233685,11.670572,-0.29642,-0.056481093,-0.2605151,,,,
21714,,,,,,,-12.812569,-1.6726494,-79.63339,
21724,-0.22397761,-0.4578959,12.3437,-0.11798836,0.010630512,-0.24986249,,,,
21734,,,,,,,-12.659649,-0.500309,-80.26222,
21744,-0.51383054,-0.21595255,12.183204,0.04286642,-0.16673586,-0.24986249,,,,
21754,,,,,,,-13.739127,0.5314255,-79.21767,
21764,0.0035928488,0.035572723,11.454979,0.022093786,-0.3414391,-0.17689195,,,,
21774,,,,,,,-14.047066,0.0961113,-78.44646,
21784,0.7797278,0.10025062,11.030979,-0.23410209,-0.2508917,-0.13321613,,,,
21794,,,,,,,-14.047066,0.0961113,-78.44646,47.0
21804,1.1438407,-0.31177166,12.116131,-0.5925632,0.12301581,-0.24080774,,,,
21814,,,,,,,-14.044979,0.0683136,-80.30327,
21824,0.42519706,-1.059161,13.814525,-0.74809176,0.45963907,-0.419772,,,,
21834,,,,,,,-14.044979,0.0683136,-80.30327,
21844,-0.91627085,-1.1214434,14.619406,-0.48710218,0.5342076,-0.45119727,,,,
21854,,,,,,,-12.353441,0.8264084,-80.5795,
21864,-1.3402706,-0.69983923,13.232424,0.050323267,0.31849167,-0.19713195,,,,
21874,,,,,,,-13.583699,0.36782455,-80.45001,
21884,-0.42280233,-0.0985741,10.456064,0.41251284,-0.027186343,0.1474808,,,,
21894,,,,,,,-12.509062,2.0056648,-80.44226,
21904,0.9066882,0.4260357,8.441466,0.29639915,-0.16194217,0.3216514,,,,
21914,,,,,,,-12.202205,1.7317276,-79.3481,
21924,1.8217609,0.5266458,8.350438,-0.15793574,0.008499985,0.27691033,,,,
21934,,,,,,,-13.43076,0.52682877,-79.82901,
21944,1.8145747,0.3493804,9.533805,-0.5616706,0.2705548,0.0819671,,,,
21954,,,,,,,-13.430953,1.5424805,-80.92412,
21964,0.67432684,0.11941446,10.312335,-0.601618,0.40850645,-0.15239088,,,,
21974,,,,,,,-14.664077,4.3060455,-82.224915,
21984,-0.46352547,0.28709796,9.864381,-0.36033583,0.35737377,-0.20086038,,,,
21994,,,,,,,-13.588332,3.7582302,-80.489395,
22004,-0.91627085,0.5242503,8.925353,-0.090291515,0.22634637,-0.029352937,,,,
22014,,,,,,,-12.816039,1.9917297,-81.06879,
22024,-0.8180562,0.8524308,8.065376,0.04766011,0.083601065,0.15813343,,,,
22034,,,,,,,-12.048177,3.4682293,-81.68584,
22044,-0.180859,1.1854024,7.866552,0.051388532,0.003173667,0.281704,,,,
22054,,,,,,,-13.5855665,1.9846916,-80.77832,
22064,0.40363777,1.2979898,8.060586,0.04819274,-2.2123684E-5,0.30087876,,,,
22074,,,,,,,-12.818392,4.3386936,-81.86986,
22084,0.8060781,1.4201592,7.8761334,0.09559697,-0.0021526506,0.24868084,,,,
22094,,,,,,,-13.587627,4.6172047,-82.20174,
22104,0.87075615,1.5878428,8.091726,0.14619699,-0.0032179141,0.15919869,,,,
22114,,,,,,,-15.1263075,4.4533997,-81.77382,
22124,0.8156601,1.6668936,8.645082,0.2117107,-0.013337918,0.085162885,,,,
22134,,,,,,,-13.433012,4.1749973,-82.347534,
22144,0.6431856,1.6070067,9.105014,0.32143283,0.0015757716,0.014322867,,,,
22154,,,,,,,-14.509205,3.4262428,-82.05611,
22164,0.17367181,1.6165885,8.975657,0.3762939,-0.060209513,-0.11031297,,,,
22174,,,,,,,-15.741743,4.011099,-81.16495,
22184,-0.2503279,1.729176,9.272697,0.29906228,-0.02026213,-0.1342814,,,,
22194,,,,,,,-16.047539,3.257803,-81.93765,
22204,-0.17367256,1.4632779,10.099138,0.15951279,0.047914732,-0.025624514,,,,
22214,,,,,,,-14.50764,3.4053974,-83.4487,
22224,-0.12336751,0.95064545,11.627453,0.09985802,0.07135054,0.052139726,,,,
22234,,,,,,,-14.66383,3.0002098,-80.816895,
22244,-0.48268926,0.50269103,12.31256,0.2724307,0.020750513,0.028703924,,,,
22254,,,,,,,-14.663884,3.2903957,-81.12979,
22264,-0.67672306,0.24637482,11.730459,0.56218237,-0.008544232,0.080369204,,,,
22274,,,,,,,-14.356157,3.004879,-80.809296,
22284,-0.5545536,0.27272508,10.877667,0.6527298,-0.047426354,0.2044724,,,,
22294,,,,,,,-15.127278,3.1637764,-79.282684,
22304,-0.76535577,0.7805666,10.815386,0.5126476,-0.011207391,0.30354193,,,,
22314,,,,,,,-15.739675,2.2468224,-80.83493,
22324,-0.7485874,1.1973798,11.16273,0.39546865,0.07720948,0.48250622,,,,
22334,,,,,,,-16.969933,1.7882347,-80.705475,
22344,-0.034734815,1.5327468,10.568652,0.3597823,0.048979998,0.61726207,,,,
22354,,,,,,,-16.048353,2.9791985,-80.85109,
22364,0.7749369,1.6429387,10.216516,0.20585176,-0.03464319,0.52564937,,,,
22374,,,,,,,-17.74425,4.1605873,-79.04979,
22384,1.1390496,1.063233,10.377013,-0.023712546,-0.023990551,0.22204925,,,,
22394,,,,,,,-16.972149,3.4097366,-80.724304,
22404,-0.1473223,0.47394526,10.590211,-0.2159926,0.13846214,-0.15665194,,,,
22414,,,,,,,-18.045164,1.4608612,-81.81177,
22424,-1.6109596,0.30626178,10.590211,-0.30654,0.2705548,-0.22802459,,,,
22434,,,,,,,-17.278008,2.0783844,-80.71649,
22444,-1.7283381,0.31105274,10.566256,-0.3209211,0.186399,0.052672356,,,,
22454,,,,,,,-15.122737,2.0902214,-82.05589,
22464,-0.7677513,0.32542562,10.386595,-0.24209155,-0.05168741,0.29874822,,,,
22474,,,,,,,-16.047794,3.6953983,-82.25226,
22484,0.44196546,0.5218549,9.550572,-0.14994626,-0.29083908,0.30354193,,,,
22494,,,,,,,-17.742281,3.844921,-80.438965,
22504,1.1725863,0.5649735,8.336065,-0.24155892,-0.33185172,0.13203448,,,,
22514,,,,,,,-18.973455,4.5563393,-80.94212,
22524,0.82763755,0.30865726,8.501353,-0.53503907,-0.039436877,-0.102856115,,,,
22534,,,,,,,-18.204008,4.998659,-81.70192,
22544,-0.085039854,-0.079410255,9.629623,-0.6932306,0.25777164,-0.2381446,,,,
22554,,,,,,,-17.89836,5.6091805,-80.61804,
22564,-0.7390055,-0.2423028,9.981759,-0.54249585,0.3563085,-0.2099151,,,,
22574,,,,,,,-17.437511,6.3485966,-80.92467,
22584,-0.95459855,-0.09617859,9.797307,,,,,,,
22594,,,,-0.24368946,0.29825166,-0.10072559,-16.207142,6.2268124,-80.42836,
22604,-0.8396156,0.15055569,9.3253975,,,,,,,
22614,,,,0.046594847,0.1059716,-0.029352937,-18.205875,6.615528,-82.03023,
22624,-0.51862144,0.5601825,8.273783,,,,,,,
22634,,,,0.23461387,-0.04689372,0.018051289,-16.6677,5.772949,-80.744095,
22644,-0.32698318,1.0201144,7.2964277,,,,,,,
22654,,,,0.23674439,0.043121044,0.075575516,-16.819695,4.2988396,-80.576035,
22664,-0.23355952,1.1758205,7.8497834,,,,,,,
22674,,,,0.15418647,0.20184532,0.13523026,-16.35838,5.3214912,-81.65976,
22684,0.013174772,1.2620577,8.551659,,,,,,,
22694,,,,0.18348122,0.061763156,0.14801343,-16.972404,3.8473282,-81.038895,
22704,0.11857581,1.5375378,8.362416,,,,,,,
22714,,,,0.2639086,-0.24503271,0.06652078,-18.04825,3.0939407,-81.05693,
22724,0.104202926,1.8273907,8.046212,,,,,,,
22734,,,,0.21490648,-0.30202433,-0.024026617,-18.514015,6.3276234,-81.26073,
22744,0.077852696,1.6644982,8.520517,,,,,,,
22754,,,,0.061508533,-0.12945163,-0.0756919,-18.204165,3.9876423,-80.29733,
22764,0.027547628,1.2860125,9.608065,,,,,,,
22774,,,,-0.05194203,-0.039436877,-0.14599931,-17.895329,4.266283,-81.68576,
22784,-0.07785343,1.1207244,10.305149,,,,,,,
22794,,,,-0.05567045,-0.1321148,-0.22216564,-20.050198,3.9596272,-80.342926,
22804,-0.44436163,1.0512556,10.460855,,,,,,,
22814,,,,0.011441151,-0.13051689,-0.27329826,-19.58824,5.2632008,-82.358475,
22824,-0.8563839,0.8045213,10.288381,,,,,,,
22834,,,,0.10145592,0.007434721,-0.22003512,-21.434319,3.6437988,-80.3737,
22844,-0.80368346,0.37333518,10.206934,,,,,,,
22854,,,,0.11423908,0.06549159,-0.12203088,-17.28069,3.4166489,-79.95824,
22864,-0.9809488,0.38052163,11.112425,,,,,,,
22874,,,,-0.008798856,-0.04689372,-0.102856115,-18.50876,4.2314663,-83.403015,
22884,-0.88992065,0.5458096,12.473057,,,,,,,
22894,,,,-0.016788332,-0.24396746,-0.035744514,-18.510271,3.9621258,-81.69754,
22904,-0.21439569,0.68235195,12.240696,,,,,,,
22914,,,,0.20052543,-0.41494226,0.084097624,-18.04966,4.125807,-81.06891,
22924,0.6383947,1.0057415,11.054934,,,,,,,
22934,,,,0.2772244,-0.43518227,0.10646816,-20.357328,2.9346771,-79.56488,
22944,1.6852187,0.7566117,10.5470915,,,,,,,
22954,,,,-0.0024072751,-0.2658054,0.02391024,-20.203062,2.4971008,-79.401215,43.0
22964,1.6397046,0.09545967,11.248967,,,,,,,
22974,,,,-0.4285127,0.026609464,-0.23175302,-20.357796,2.6514416,-78.78778,
22984,-0.113785595,-0.41238174,12.542526,,,,,,,
22994,,,,-0.6042812,0.32648113,-0.5017973,-21.124998,3.1923428,-81.28937,
23004,-1.3258977,-0.46508232,12.786865,,,,,,,
23014,,,,-0.383239,0.34885165,-0.429892,-20.049849,3.9549942,-80.65239,
23024,-1.1414459,-0.40519533,11.502888,,,,,,,
23034,,,,0.023159048,0.10703686,-0.14812984,-20.355013,2.6143818,-81.26352,
23044,-0.27188718,-0.019523293,9.574528,,,,,,,
23054,,,,0.2687023,-0.15182216,0.054802883,-22.818174,3.7586136,-81.18327,
23064,0.5761122,0.4380131,8.4797945,,,,,,,
23074,,,,0.17336121,-0.22266218,0.14268711,-19.435347,3.830822,-79.70709,
23084,0.985739,0.68714285,7.8761334,,,,,,,
23094,,,,-0.1169231,-0.050089512,0.10114184,-21.589455,4.0929585,-79.7637,
23104,0.59048504,0.8859676,7.9336247,,,,,,,39.0
23114,,,,-0.44608954,0.30943692,0.022844978,-21.12705,3.943285,-80.36952,
23124,0.1329487,0.71828413,8.846302,,,,,,,
23134,,,,-0.58723694,0.5182286,0.024975501,-22.20393,4.0720387,-80.55257,
23144,-0.101808205,0.60569656,9.4835,,,,,,,
23154,,,,-0.4407632,0.3429927,0.0026049684,-20.817436,3.777382,-81.90755,
23164,-0.45633903,0.8404535,9.366121,,,,,,,
23174,,,,-0.1068031,0.014358934,-0.024559248,-20.35723,4.23588,-81.282364,
23184,-0.39405656,1.0704194,8.46063,,,,,,,
23194,,,,0.2420707,-0.23011903,0.051074456,-21.5854,3.7494946,-83.009674,
23204,0.11857581,1.4081819,6.721513,,,,,,,
23214,,,,0.31717178,-0.33877593,0.12777342,-21.5854,3.7494946,-83.009674,
23224,0.4563383,1.6597072,6.9131513,,,,,,,
