Timestamp,acc_x,acc_y,acc_z,gyro_x,gyro_y,gyro_z,mag_x,mag_y,mag_z,light
2520,0.43956995,0.55539155,9.152924,,,,,,,
2526,,,,0.24047282,-0.2514243,-0.16570668,,,,
2537,,,,,,,-3.4817333,27.254738,-67.20036,
2540,0.13773966,0.667979,9.236765,,,,,,,
2546,,,,0.089205384,0.09744949,-0.079952955,,,,
2557,,,,,,,-3.0197124,26.38655,-66.55975,
2560,0.08743459,0.6607926,9.397263,,,,,,,
2566,,,,0.00504957,0.21409586,0.014855499,,,,
2577,,,,,,,-2.7113533,25.513714,-66.07768,
2580,0.42759258,1.0153234,9.198438,,,,,,,
2586,,,,-0.07591046,0.051643156,0.05640078,,,,
2597,,,,,,,-3.3269196,26.66512,-67.34445,
2600,0.710259,0.8691993,10.139861,,,,,,,
2606,,,,-0.16539258,-0.005348441,0.039356563,,,,
2617,,,,,,,-3.4807262,26.517693,-67.1918,
2620,0.544971,0.727866,10.405759,,,,,,,
2626,,,,-0.034897815,-0.021327393,-0.059180308,,,,
2637,,,,,,,-3.482603,27.26632,-66.4267,
2640,0.06108433,0.77577555,9.835635,,,,,,,
2646,,,,0.1110433,-0.060742144,-0.12203088,,,,
2657,,,,,,,-3.3309002,28.454874,-65.9724,
2660,-0.073062465,0.8763857,8.990031,,,,,,,
2666,,,,0.13820751,-0.021327393,-0.053853996,,,,
2677,,,,,,,-4.0970497,27.100306,-67.05911,
2681,0.19044018,0.9314817,9.009194,,,,,,,
2687,,,,0.008777991,0.005836825,0.050009195,,,,
2697,,,,,,,-3.483059,27.851322,-66.74301,
2701,0.49227053,0.8356626,9.703884,,,,,,,
2707,,,,-0.09188941,-0.0026852824,0.075575516,,,,
2717,,,,,,,-3.019558,27.397568,-67.96434,
2721,0.7126545,0.68953836,9.914686,,,,,,,
2727,,,,-0.056735717,0.02873999,0.02976919,,,,
2737,,,,,,,-4.556774,25.911713,-67.21155,
2741,0.37010103,0.81170774,9.323003,,,,,,,
2747,,,,-0.013592543,0.107569486,-0.046397153,,,,
2757,,,,,,,-3.4813309,26.959919,-67.196945,
2761,-0.33656508,0.95304096,9.495477,,,,,,,
2767,,,,-0.063127294,0.176279,-0.017102407,,,,
2777,,,,,,,-2.5589561,26.693005,-66.24231,
2781,-0.20002282,0.838058,9.58411,,,,,,,
2787,,,,-0.037028342,0.12887478,0.122979745,,,,
2797,,,,,,,-1.3272133,27.566025,-68.233734,
2801,0.21679044,0.9769957,9.538596,,,,,,,
2807,,,,-0.03116939,0.089460015,0.19488502,,,,
2817,,,,,,,-4.7113857,26.353922,-67.06575,
2821,0.25272262,1.0416737,10.398573,,,,,,,
2827,,,,-0.09242204,0.06815474,0.174645,,,,
2837,,,,,,,-2.559826,26.704586,-65.46864,
2841,0.06108433,0.85482633,10.777058,,,,,,,
2847,,,,0.038072735,0.008499985,0.10646816,,,,
2857,,,,,,,-3.1760292,27.575071,-65.80359,
2861,-0.28386456,0.9961597,10.515951,,,,,,,
2867,,,,0.22662438,-0.15821375,0.07504288,,,,
2877,,,,,,,-2.7117367,27.545013,-68.26793,
2881,-0.09701724,1.2500803,9.543386,,,,,,,
2887,,,,0.35339075,-0.25248957,0.12084922,,,,
2897,,,,,,,-3.482603,27.26632,-66.4267,
2901,0.039525032,1.8633229,8.489376,,,,,,,
2907,,,,0.28627914,-0.10708111,0.15547027,,,,
2917,,,,,,,-2.251749,26.414438,-65.45763,
2922,-0.13774037,2.110057,8.992427,,,,,,,
2928,,,,0.02635484,0.1848011,0.17890607,,,,
2937,,,,,,,-3.6351948,27.102676,-67.35718,
2942,-0.02036193,1.8633229,10.024878,,,,,,,
2948,,,,-0.16485997,0.17361583,0.19808082,,,,
2957,,,,,,,-3.6344986,27.093412,-67.97612,
2962,0.0107792765,1.5159785,11.002233,,,,,,,
2968,,,,-0.13130416,-0.08950426,0.109131314,,,,
2977,,,,,,,-0.86473465,26.112835,-67.27681,
2982,-0.073062465,1.403391,11.057329,,,,,,,
2988,,,,0.1430012,-0.32439485,-0.014439248,,,,
2997,,,,,,,-4.096813,27.676044,-67.99437,
3002,-0.03713028,1.6644982,9.131364,,,,,,,
3008,,,,0.40771917,-0.29936117,-0.06131084,,,,
3017,,,,,,,-3.0206013,27.411465,-67.035934,
3022,0.099411994,1.9447691,7.126349,,,,,,,
3028,,,,0.23301597,-0.024523186,-0.07942033,,,,
3037,,,,,,,-4.0953465,26.353996,-67.669495,
3042,-0.07066698,1.8345772,7.6533537,,,,,,,
3046,,,,,,,,,,521.0
3048,,,,-0.3299758,0.22528112,-0.0975298,,,,
3057,,,,,,,-3.3265152,26.3703,-67.34102,
3062,-0.40603396,1.4513005,9.641601,,,,,,,
3068,,,,-0.71347064,0.26735902,-0.08847506,,,,
3077,,,,,,,-4.8649025,26.492046,-67.53548,
3082,-0.7581693,1.12312,10.7387295,,,,,,,
3088,,,,-0.61227065,0.12248318,-0.047995046,,,,
3097,,,,,,,-3.0198498,27.112015,-67.34198,
3102,-0.7485874,1.1566567,10.245262,,,,,,,
3108,,,,-0.24262418,-0.10175479,0.04415025,,,,
3117,,,,,,,-3.3271103,27.680767,-68.43956,
3122,-0.48748025,1.417764,9.124178,,,,,,,
3128,,,,-0.029571494,-0.24450009,0.13629553,,,,
3137,,,,,,,-1.4811401,27.13073,-67.613464,
3143,-0.23116404,1.6716845,8.527704,,,,,,,
3147,,,,,,,,,,583.0
3149,,,,-0.059931505,-0.20881377,0.20660293,,,,
3157,,,,,,,-3.789999,28.560535,-68.3065,
3163,0.041920513,1.7962494,9.188856,,,,,,,
3169,,,,-0.20693785,-0.11240742,0.23802818,,,,
3177,,,,,,,-3.1753864,27.855991,-66.73541,
3183,0.34375083,1.5375378,10.070392,,,,,,,
3189,,,,-0.24901576,-0.086308464,0.2145924,,,,
3197,,,,,,,-3.1763935,28.593037,-66.74397,
3203,0.47310662,1.4297413,10.518346,,,,,,,
3209,,,,-0.12597784,-0.1374411,0.17251448,,,,
3217,,,,,,,-2.558609,26.688374,-66.55179,
3223,0.52820265,1.559097,10.400968,,,,,,,
3229,,,,0.040735893,-0.23224956,0.117120795,,,,
3237,,,,,,,-3.175314,29.302286,-68.60933,
3243,0.56413484,1.7579218,9.682323,,,,,,,
3247,,,,,,,,,,647.0
3249,,,,0.14566436,-0.2061506,0.06811867,,,,
3257,,,,,,,-3.4825382,27.844374,-67.207214,
3263,0.4659202,2.0429838,9.397263,,,,,,,
3269,,,,0.06949801,-0.08098215,0.05746604,,,,
3277,,,,,,,-0.40504074,27.446522,-67.28082,
3283,0.6767223,2.0861022,9.720652,,,,,,,
3289,,,,-0.09295467,0.067089476,0.06758604,,,,
3297,,,,,,,-2.095049,25.944433,-67.460236,
3303,0.61683536,1.8609275,10.640516,,,,,,,
3309,,,,-0.2159926,0.16935478,-0.040538203,,,,
3317,,,,,,,-1.9466228,29.781721,-67.34621,
3323,-0.10899465,1.5950292,11.572357,,,,,,,
3329,,,,-0.12597784,0.14751688,-0.15132561,,,,
3337,,,,,,,-2.0974007,28.291397,-68.26129,
3343,-0.5545536,1.6980348,11.354368,,,,,,,
3347,,,,,,,,,,706.0
3349,,,,0.15099068,-0.08577583,-0.11617191,,,,
3357,,,,,,,-3.1732445,27.53801,-68.27933,
3364,-0.085039854,1.8513454,10.693215,,,,,,,
3370,,,,0.37789178,-0.27059907,0.0015397047,,,,
3377,,,,,,,-3.1732445,27.53801,-68.27933,
3384,0.3820784,1.8249952,10.422527,,,,,,,
3390,,,,0.43275288,-0.25195694,0.034030244,,,,
3397,,,,,,,-3.173767,27.54496,-67.81511,
3404,0.5401801,1.6908484,10.240471,,,,,,,
3410,,,,0.37735915,-0.07725373,0.011659708,,,,
3417,,,,,,,-3.173767,27.54496,-67.81511,
3424,0.5473665,1.6716845,10.63812,,,,,,,
3430,,,,0.23674439,0.09744949,-0.019232932,,,,
3437,,,,,,,-3.48036,28.24954,-69.68808,
3444,0.8108691,0.9290862,11.68734,,,,,,,
3448,,,,,,,,,,762.0
3450,,,,0.1078475,0.08466633,-0.064506635,,,,
3457,,,,,,,-3.0195007,27.107384,-67.65146,
3464,0.6863043,0.3853126,12.595226,,,,,,,
3470,,,,0.14087068,-0.108679,-0.18168563,,,,
3477,,,,,,,-3.3271103,27.680767,-68.43956,
3484,0.6431856,0.2607477,11.838255,,,,,,,
3490,,,,0.3294223,-0.24077167,-0.28341827,,,,
3497,,,,,,,-3.3272305,27.392899,-67.97194,
3504,0.78930986,0.08348228,10.472832,,,,,,,
3510,,,,0.30492124,-0.18164954,-0.3260288,,,,
3517,,,,,,,-3.7886448,27.818857,-68.60741,
3524,0.44436085,0.004431486,10.324313,,,,,,,
3530,,,,0.0726938,0.14219056,-0.29300565,,,,
3537,,,,,,,-5.019617,28.382868,-69.10886,
3544,0.2886548,-0.29979423,11.299272,,,,,,,
3548,,,,,,,,,,831.0
3550,,,,-0.14089152,0.30837163,-0.18328352,,,,
3557,,,,,,,-3.4788132,26.492212,-68.89386,
3564,0.5186207,-0.4626868,12.223927,,,,,,,
3570,,,,-0.10094415,0.15710425,-0.0991277,,,,
3577,,,,,,,-3.171955,26.218277,-67.79971,
3584,0.8635696,-0.16804296,11.96282,,,,,,,
3590,,,,0.23780966,-0.081514776,-0.06503927,,,,
3597,,,,,,,-4.7094173,26.038258,-68.454926,
3605,1.050417,0.16732404,10.056019,,,,,,,
3611,,,,0.59840137,-0.14489795,-0.054919258,,,,
3617,,,,,,,-4.862816,26.464252,-69.39226,
3625,1.0096939,0.82368517,8.463026,,,,,,,
3631,,,,0.63515294,-0.02345792,-0.032548726,,,,
3637,,,,,,,-3.4792252,25.918789,-67.80388,
3645,1.3354789,1.0464647,7.765941,,,,,,,
3648,,,,,,,,,,896.0
3651,,,,0.41677392,0.12301581,0.01219234,,,,
3657,,,,,,,-3.6304073,24.723286,-68.7224,
3665,1.5127444,1.118329,8.065376,,,,,,,
3671,,,,0.10731487,0.16562636,-0.031483464,,,,
3677,,,,,,,-3.7874928,27.224588,-68.91002,
3685,1.26601,1.008137,8.6355,,,,,,,
3691,,,,-0.04341992,0.17734425,-0.13161825,,,,
3697,,,,,,,-3.6318703,26.045334,-69.04727,
3705,0.7006771,0.9266907,8.463026,,,,,,,
3711,,,,-0.037028342,0.08573159,-0.23601407,,,,
3717,,,,,,,-4.5534496,24.85437,-68.90163,
3725,0.099411994,1.0847923,7.943207,,,,,,,
3731,,,,-0.103607304,-0.07246004,-0.29300565,,,,
3737,,,,,,,-2.7072983,25.170254,-69.323654,
3745,-0.15929969,1.1039561,8.125263,,,,,,,
3751,,,,-0.28150633,-0.13104953,-0.22695933,,,,
3757,,,,,,,-2.0935745,25.490625,-68.22876,
3765,-0.3701018,1.0009506,8.961285,,,,,,,
3771,,,,-0.3683253,-0.05168741,-0.07089822,,,,
3777,,,,,,,-4.246666,25.883953,-69.37021,
3785,-0.010780022,1.0512556,9.392472,,,,,,,
3791,,,,-0.22131892,-0.06926425,0.089956574,,,,
3797,,,,,,,-4.2492924,26.932032,-68.29907,
3799,,,,,,,,,,982.0
3805,0.7342138,1.3147583,9.0595,,,,,,,
3811,,,,-0.015190437,-0.30042645,0.107533425,,,,
3817,,,,,,,-3.017332,26.644308,-69.038925,
3826,1.151027,1.4896282,8.319297,,,,,,,
3832,,,,0.0961296,-0.39416963,0.03882393,,,,
3837,,,,,,,-4.09326,26.3262,-69.52629,
3846,0.82524204,1.7579218,7.6198173,,,,,,,
3852,,,,0.06790012,-0.18804112,-0.023493987,,,,
3857,,,,,,,-2.7095222,25.923513,-68.2491,
3866,0.34614623,1.8657182,7.6174216,,,,,,,
3872,,,,-0.053539924,0.0724158,-0.0043192445,,,,
3877,,,,,,,-3.785616,26.475962,-69.675125,
3886,0.42280155,1.8896731,8.106099,,,,,,,
3892,,,,-0.12651047,0.11502634,0.083565,,,,
3897,,,,,,,-3.014906,25.74364,-70.11177,
3906,1.0671853,1.94956,8.575613,,,,,,,
3912,,,,-0.096150465,-0.04103477,0.11445763,,,,
3917,,,,,,,-3.6344357,27.671467,-68.75664,
3926,1.4887896,2.1076615,8.242642,,,,,,,
3932,,,,-0.07750835,-0.13158216,0.013790234,,,,
3937,,,,,,,-4.402563,25.764322,-67.36076,
3946,1.1366543,2.2992997,8.451048,,,,,,,
3952,,,,-0.21972103,0.0010431398,-0.11191086,,,,
3957,,,,,,,-4.2483406,26.485172,-68.60339,
3966,0.5234117,2.2154582,9.521827,,,,,,,
3972,,,,-0.34222636,0.18959479,-0.100192964,,,,
3977,,,,,,,-4.399523,25.289667,-69.52191,
3986,0.38926488,1.9423736,10.475228,,,,,,,
3992,,,,-0.33370423,0.1949211,0.011127076,,,,
3997,,,,,,,-4.554394,26.169472,-69.690704,
4006,0.43717444,1.4441142,11.428628,,,,,,,
4012,,,,-0.19202417,0.14219056,0.07930394,,,,
4017,,,,,,,-3.4792976,27.22231,-69.36662,
4026,0.37010103,1.0847923,12.128108,,,,,,,
4032,,,,0.07056327,-0.0080116,0.05160709,,,,
4037,,,,,,,-3.0169277,26.349491,-69.03549,
4047,0.324587,0.9171088,11.895747,,,,,,,
4053,,,,0.36883706,-0.2327822,-5.8190548E-5,,,,
4057,,,,,,,-4.094881,26.637232,-68.44658,
4067,0.18085825,0.9817867,10.796222,,,,,,,
4073,,,,0.5126476,-0.2194664,0.04521551,,,,
4077,,,,,,,-3.3237953,25.755184,-69.036255,
4087,0.077852696,1.2716396,10.343477,,,,,,,
4093,,,,0.40718654,0.023946306,0.20926608,,,,
4097,,,,,,,-4.7101307,27.060856,-69.085846,
4107,0.5593439,1.2117527,11.066911,,,,,,,
4113,,,,0.18241595,0.25404322,0.34135878,,,,
4117,,,,,,,-3.4787579,26.202026,-68.58098,
4127,0.73900473,1.173425,12.1856,,,,,,,
4133,,,,0.040735893,0.4101043,0.30300927,,,,
4137,,,,,,,-2.3993416,24.592236,-68.84502,
4147,0.59527606,0.95304096,12.559294,,,,,,,
4153,,,,0.0625738,0.43300748,0.15387239,,,,
4157,,,,,,,-4.093727,26.042963,-68.74921,
4167,0.69588614,0.51945937,11.627453,,,,,,,
4173,,,,0.15045805,0.30837163,0.023377609,,,,
4177,,,,,,,-2.7096329,26.503885,-68.87486,
4187,0.63120824,0.35417137,10.472832,,,,,,,
4193,,,,0.04819274,0.21249795,-0.10498665,,,,
4197,,,,,,,-2.7085514,27.213135,-70.740234,
4207,-0.25272334,0.20804717,10.403364,,,,,,,
4213,,,,-0.24155892,0.31849167,-0.20192564,,,,
4217,,,,,,,-2.2454681,25.317719,-69.77818,
4227,-1.5199316,0.19127882,11.416651,,,,,,,
4233,,,,-0.35287896,0.44898644,-0.12096559,,,,
4237,,,,,,,-4.4015903,27.053944,-69.85191,
4247,-1.7498974,0.20325622,11.589125,,,,,,,
4253,,,,-0.1169231,0.27534848,0.12777342,,,,
4257,,,,,,,-2.403782,26.966995,-67.789276,
4267,-0.79889244,0.4380131,10.257238,,,,,,,
4273,,,,0.16270858,-0.15128954,0.33336928,,,,
4277,,,,,,,-1.0173264,25.949194,-68.207306,
4288,0.52820265,0.617674,9.167296,,,,,,,
4294,,,,0.1882749,-0.3670054,0.38077354,,,,
4297,,,,,,,-3.018221,27.669224,-69.51511,
4308,1.2636145,0.337403,8.798393,,,,,,,
4314,,,,0.035942208,-0.29882854,0.25400716,,,,
4317,,,,,,,-2.5553665,26.066309,-68.71121,
4328,1.1318632,0.22481552,8.819952,,,,,,,
4334,,,,-0.14994626,-0.21147692,0.028171293,,,,
4337,,,,,,,-2.4026546,26.517818,-68.24835,
4348,0.49945688,0.29907534,8.611546,,,,,,,
4354,,,,-0.25913578,-0.07778636,-0.106051914,,,,
4357,,,,,,,-2.5544968,26.054728,-69.48488,
4368,-0.00598906,0.4260357,9.116992,,,,,,,
4374,,,,-0.27298424,0.0708179,-0.041070834,,,,
4377,,,,,,,-1.7834759,24.594627,-69.29401,
4388,0.044315994,0.3589623,8.872653,,,,,,,
4394,,,,-0.088160984,0.12088528,0.10220711,,,,
4397,,,,,,,-3.1707382,26.202065,-68.88284,
4408,0.2862593,0.63923335,8.118077,,,,,,,
4414,,,,0.085476965,0.012228407,0.1741124,,,,
4417,,,,,,,-2.2434464,24.711868,-70.85446,
4428,0.59527606,1.0129279,8.051003,,,,,,,
4434,,,,0.0742917,-0.14276743,0.15866607,,,,
4437,,,,,,,-2.7096329,26.503885,-68.87486,
4448,0.7677505,1.0704194,8.597173,,,,,,,
4454,,,,0.08121592,-0.105483204,0.0904892,,,,
4457,,,,,,,-2.7083054,25.907299,-69.332214,
4468,0.5066433,1.0919788,8.343252,,,,,,,
4474,,,,0.2031886,0.03513157,0.013257603,,,,
4477,,,,,,,-1.7872219,26.960121,-68.85721,
4489,0.23595428,1.3075719,7.9456024,,,,,,,
4495,,,,0.23940754,-0.019196866,-0.007515035,,,,
4497,,,,,,,-2.2464752,26.054764,-69.78674,
4509,0.31500506,1.6429387,8.146823,,,,,,,
4515,,,,0.15365383,-0.23438008,0.027638663,,,,
4517,,,,,,,-1.7841263,26.195278,-70.705444,
4529,0.7581686,1.7171986,9.030754,,,,,,,
4535,,,,0.14513172,-0.2881759,0.054802883,,,,
4537,,,,,,,-1.782835,24.875547,-70.225845,
4549,0.97136617,1.7986449,9.08585,,,,,,,
4555,,,,0.25006017,-0.1992264,-0.003253981,,,,
4557,,,,,,,-3.1711407,26.496881,-68.88626,
4569,0.7222364,2.0022607,9.049918,,,,,,,
4575,,,,0.29480124,-0.07831899,-0.08794243,,,,
4577,,,,,,,-2.5573177,28.118454,-69.508835,
4589,0.6575585,2.0381927,9.320607,,,,,,,
4595,,,,0.27456126,-0.092167415,-0.12256349,,,,
4597,,,,,,,-2.7072983,25.170254,-69.323654,
4601,,,,,,,,,,1047.0
4609,1.0719763,1.7531308,9.847611,,,,,,,
4615,,,,0.25538647,-0.14489795,-0.15079299,,,,
4617,,,,,,,-2.7091103,26.496937,-69.339066,
4629,0.92106116,1.5351423,10.242866,,,,,,,
4635,,,,0.19999279,-0.16407269,-0.25305825,,,,
4637,,,,,,,-2.247282,26.6444,-69.793594,
4649,0.19523114,1.3746452,10.657284,,,,,,,
4655,,,,0.12276119,-0.06819899,-0.31004986,,,,
4657,,,,,,,-1.4750156,25.022991,-70.529434,
4669,-0.087435335,1.1758205,10.918391,,,,,,,
4675,,,,0.085476965,-0.050089512,-0.251993,,,,
4677,,,,,,,-2.553278,26.038513,-70.56801,
4689,-0.104203686,1.3435041,11.922097,,,,,,,
4695,,,,-0.018386228,-0.16300742,-0.18541406,,,,
4697,,,,,,,-3.320757,25.280529,-71.19737,
4709,0.41082418,0.99855506,12.949757,,,,,,,
4715,,,,-0.02477781,-0.19176954,-0.09486665,,,,
4717,,,,,,,-2.5528755,25.743694,-70.56459,
4730,1.1150949,0.56257796,12.949757,,,,,,,
4736,,,,0.12063067,-0.09536321,-0.06503927,,,,
4737,,,,,,,-2.0916615,25.465145,-69.93082,
4750,1.6828233,0.30147082,11.620267,,,,,,,
4756,,,,0.19839491,0.0473821,-0.15079299,,,,
4757,,,,,,,-3.4768448,26.176548,-70.28305,
4770,1.7522922,0.14336924,10.78664,,,,,,,
4776,,,,-0.08762835,0.24285798,-0.28022248,,,,
4777,,,,,,,-3.632759,27.07025,-69.52345,
4790,0.8156601,-0.23032543,11.9268875,,,,,,,
4796,,,,-0.48497164,0.51183707,-0.36064985,,,,
4797,,,,,,,-3.632759,27.07025,-69.52345,
4802,,,,,,,,,,1113.0
4810,-0.33656508,-0.23751184,13.26596,,,,,,,
4816,,,,-0.4791127,0.55284965,-0.29353827,,,,
4817,,,,,,,-2.247345,26.066345,-69.01308,
4830,-0.4898757,0.2487703,12.81561,,,,,,,
4836,,,,0.017300101,0.2987843,-0.05119084,,,,
4837,,,,,,,-2.247345,26.066345,-69.01308,
4850,0.42519706,0.9242953,10.690821,,,,,,,
4856,,,,0.5760308,0.0037062988,0.15333974,,,,
4857,,,,,,,-2.0923214,26.19756,-70.248856,
4870,1.4289026,1.4776508,8.0438175,,,,,,,
4876,,,,0.7097214,-0.080449514,0.17517765,,,,
4877,,,,,,,-2.3987198,25.88649,-71.02669,
4890,1.9918399,1.6932439,6.601739,,,,,,,
4896,,,,0.29959494,0.04951263,0.06279235,,,,
4897,,,,,,,-0.8597908,24.744461,-70.0466,
4910,1.9032073,1.6812665,7.243727,,,,,,,
4916,,,,-0.31399685,0.25191268,-0.110845596,,,,
4917,,,,,,,-2.3988743,24.875473,-69.6221,
4930,1.220496,1.2908034,8.887026,,,,,,,
4936,,,,-0.6282496,0.36483064,-0.29673406,,,,
4937,,,,,,,-1.4764805,26.345041,-70.854294,
4951,0.13055322,1.0464647,9.986549,,,,,,,
4957,,,,-0.4993527,0.26043478,-0.42243513,-1.4756756,25.755405,-70.84744,
4971,-0.6168361,1.072815,9.632019,,,,,,,
4977,,,,-0.06472518,0.007434721,-0.3697046,-1.1683502,25.764706,-70.530396,
4991,-0.48268926,1.3435041,8.003094,,,,,,,
4997,,,,0.31663913,-0.18484534,-0.20405616,-1.7827168,25.163416,-70.69347,
5011,-0.29584196,1.6860574,6.546643,,,,,,,
5017,,,,0.32675916,-0.16354007,-0.085811906,-1.9346294,23.254028,-70.056076,
5031,-0.45633903,1.7603173,6.970643,,,,,,,
5037,,,,0.0742917,-0.005881073,0.02124708,-2.2469425,25.771526,-69.00966,
5051,-0.17846352,1.7219896,8.163591,,,,,,,
5057,,,,-0.047148347,-0.018664235,0.12883869,-2.2438488,25.006687,-70.85788,
5071,0.73900473,1.6597072,8.65706,,,,,,,
5077,,,,0.0844117,-0.16140953,0.12990394,-2.551466,24.711832,-70.5526,
5091,1.2947557,1.8130177,7.914461,,,,,,,
5097,,,,0.18028542,-0.2844475,0.009529181,-1.9349594,24.995142,-71.93341,
5111,0.7749369,2.2130625,7.998303,,,,,,,
5117,,,,0.085476965,-0.14649585,-0.07196348,-3.6292439,24.997257,-70.11841,
5131,0.2862593,2.3831418,8.678618,,,,,,,
5137,,,,0.029017996,0.07348106,-0.008580298,-3.6279716,24.690857,-70.88866,
5151,0.45873374,2.1795259,9.023568,,,,,,,
5157,,,,-0.029571494,0.107569486,0.043617614,-2.551384,24.276554,-70.08325,
5171,0.35093725,1.5878428,10.7051935,,,,,,,
5177,,,,-0.1808389,0.029272621,-0.0064497716,-1.7831821,24.88018,-69.91638,
5192,0.11618033,0.99136865,12.025102,,,,,,,
5197,,,,,,,-2.551731,24.281185,-69.7738,
5198,,,,-0.090291515,-0.1875085,-0.03627715,,,,
5212,0.28386384,0.95304096,11.287294,,,,,,,
5217,,,,,,,-2.3992786,25.170292,-69.625534,
5218,,,,0.17282858,-0.4271928,-0.06716979,,,,
5232,0.16408992,1.1854024,10.76508,,,,,,,
5237,,,,,,,-3.1692715,24.880014,-68.55797,
5238,,,,0.21756965,-0.43038857,-0.09593191,,,,
5252,-0.01796645,1.3722497,11.534029,,,,,,,
5257,,,,,,,-3.1674595,23.553333,-68.54256,
5258,,,,0.15258858,-0.113472685,0.026573397,,,,
5272,0.09222555,1.4776508,11.61308,,,,,,,
5277,,,,,,,-3.4760742,24.863764,-69.33923,
5278,,,,0.2468644,0.29825166,0.2726493,,,,
5292,0.38686943,1.9759103,10.422527,,,,,,,
5297,,,,,,,-1.9334126,23.237816,-71.139206,
5298,,,,0.2687023,0.4367359,0.4020788,,,,
5312,0.71984094,2.1675487,10.051228,,,,,,,
5317,,,,,,,-1.318388,23.106693,-70.6581,
5318,,,,-0.02531044,0.3627001,0.34029353,,,,
5332,1.1941457,1.5375378,10.6261425,,,,,,,
5337,,,,,,,-0.39626884,23.277374,-70.01808,
5338,,,,-0.41945794,0.20610636,0.16345975,,,,
5352,0.78451884,0.7063067,11.493306,,,,,,,
5357,,,,,,,-2.546732,22.622627,-72.2307,
5358,,,,-0.63410854,0.16189793,-0.0772898,,,,
5372,-0.42040685,0.19127882,11.663384,,,,,,,
5377,,,,,,,-1.0089588,22.074867,-70.94798,
5378,,,,-0.5840411,0.17201795,-0.22269829,,,,
5392,-1.5414908,0.2152336,11.239386,,,,,,,
5397,,,,,,,-1.4767017,24.75597,-68.669205,
5398,,,,-0.4370348,0.048979998,-0.16197824,,,,
5413,-1.5295134,0.2679341,11.11003,,,,,,,
5417,,,,,,,0.06370163,23.160131,-68.45763,
5419,,,,-0.30014843,-0.14915901,0.081434466,,,,
5433,-0.38926563,0.17451046,10.166211,,,,,,,
5437,,,,,,,-2.3984623,25.448895,-70.71208,
5439,,,,-0.17657785,-0.29403484,0.27477983,,,,
5453,0.5329936,0.112228036,9.55776,,,,,,,
5457,,,,,,,-3.0154648,25.027443,-68.71062,
5459,,,,-0.22025365,-0.2759254,0.2795735,,,,
5473,0.79170537,-0.0051504374,9.814075,,,,,,,
5477,,,,,,,-1.3204021,24.580784,-70.67522,
5479,,,,-0.30387688,-0.17951901,0.17997134,,,,
5493,0.7797278,0.033177227,9.203229,,,,,,,
5497,,,,,,,-2.3978672,24.138428,-69.61354,
5499,,,,-0.25913578,-0.12891899,0.059063938,,,,
5513,0.42759258,0.40926737,8.383975,,,,,,,
5517,,,,,,,-3.4747849,23.544031,-68.85962,
5519,,,,-0.20640524,0.01009788,-0.032016095,,,,
5533,0.06587529,0.55539155,8.000699,,,,,,,
5537,,,,,,,-1.7820663,23.562763,-69.28203,
5539,,,,-0.20320943,0.19279057,-0.02189609,,,,
5553,-0.104203686,0.5362277,8.154009,,,,,,,
5557,,,,,,,-3.473219,23.523186,-70.25223,
5559,,,,-0.21386208,0.26735902,0.041487087,,,,
5573,-0.16648611,0.6248604,8.249828,,,,,,,
5577,,,,,,,-1.012886,23.574436,-69.26303,
5579,,,,-0.19308944,0.20610636,0.083565,,,,
5593,-0.26709622,0.7949394,8.312111,,,,,,,
5597,,,,,,,-2.7049255,24.559772,-70.70941,
5599,,,,-0.113194674,0.07827474,0.10806605,,,,
5613,-0.29823744,1.0943742,7.9959073,,,,,,,
5617,,,,,,,-2.397171,24.129162,-70.23248,
5619,,,,0.015702203,-0.070862144,0.14002395,,,,
5634,0.06587529,1.233312,7.952789,,,,,,,
5637,,,,,,,-2.089445,23.843647,-69.91199,
5640,,,,0.04180116,-0.18537796,0.16399238,,,,
5654,0.324587,1.0105325,8.776834,,,,,,,
5657,,,,,,,-1.4736614,24.281315,-70.83032,
5660,,,,-0.0013420116,-0.17152955,0.14162184,,,,
5674,0.209604,1.0560466,9.36133,,,,,,,
5677,,,,,,,-2.0892887,24.854664,-71.316574,
5680,,,,0.040203262,-0.10122215,0.10433763,,,,
5694,0.16408992,1.1997752,9.620042,,,,,,,
5697,,,,,,,-2.550579,23.686916,-70.0764,
5700,,,,0.1680349,-0.029849501,0.14428501,,,,
5714,0.5545529,1.168634,9.806889,,,,,,,
5717,,,,,,,-2.3974094,23.553425,-69.297226,
5720,,,,0.31078017,-0.06873162,0.21192923,,,,
5734,0.985739,1.1662385,9.68472,,,,,,,
5737,,,,,,,-1.7781391,22.063194,-70.96698,
5740,,,,0.42902443,-0.16620322,0.17677554,,,,
5754,1.2468462,1.1758205,9.531409,,,,,,,
5757,,,,,,,-2.088438,23.106602,-69.90343,
5760,,,,0.41464338,-0.25675064,0.040421825,,,,
5774,1.0647899,1.3243401,9.725443,,,,,,,
5777,,,,,,,-3.011427,22.9475,-69.76979,
5780,,,,0.2436686,-0.24077167,-0.12362876,,,,
5794,0.66234946,1.2213346,10.379409,,,,,,,
5797,,,,,,,-3.1617565,22.753748,-72.71179,
5800,,,,0.13607699,-0.0042831777,-0.13907509,,,,
5814,0.48029304,1.0752103,10.151838,,,,,,,
5817,,,,,,,-2.544508,21.869366,-73.30527,
5820,,,,0.14672963,0.19279057,-0.08634454,,,,
5834,0.48029304,1.1758205,10.331499,,,,,,,
5837,,,,,,,-2.7010994,21.759,-70.67688,
5840,,,,0.03967063,0.19438848,-0.07356137,,,,
5854,0.9809481,0.82128966,11.378323,,,,,,,
5857,,,,,,,-3.6235847,22.606285,-72.25729,
5860,,,,-0.16858837,-0.018664235,-0.08954033,,,,
5875,1.5151397,0.68474734,12.058639,,,,,,,
5877,,,,,,,-2.6983795,21.143885,-72.3721,
5881,,,,-0.31080106,-0.276458,-0.22802459,,,,
5895,1.8576932,0.4643634,11.948447,,,,,,,
5897,,,,,,,-2.2437115,24.281223,-70.07565,
5901,,,,-0.38004318,-0.2210643,-0.3377467,,,,
5905,,,,,,,,,,1184.0
5915,2.207433,-0.11534244,11.663384,,,,,,,
5917,,,,,,,-4.0843334,23.16807,-73.66814,
5921,,,,-0.56699693,0.009032616,-0.40592358,,,,
5935,1.6995916,-0.70942116,12.650322,,,,,,,
5937,,,,,,,-4.239012,23.032223,-72.74182,
5941,,,,-0.7550159,0.23859692,-0.53695095,,,,
5955,0.6359992,-0.92501414,13.936694,,,,,,,
5957,,,,,,,-3.4713955,23.064743,-71.33023,
5961,,,,-0.57019275,0.32541585,-0.5497342,,,,
5975,0.051502436,-0.57527435,12.930593,,,,,,,
5977,,,,,,,-3.6233654,24.195354,-74.4424,
5981,,,,0.02688747,0.20237795,-0.36118248,,,,
5995,0.38447392,0.023595303,9.996132,,,,,,,
5997,,,,,,,-3.1632023,23.062462,-71.786835,
6001,,,,0.51318026,0.12514633,-0.11723717,,,,
6015,0.935434,0.46675885,8.106099,,,,,,,
6017,,,,,,,-5.3159103,21.424494,-70.73805,
6021,,,,0.45885184,0.25404322,0.0073986542,,,,
6035,1.1869593,0.55539155,8.197128,,,,,,,
6037,,,,,,,-3.6257477,23.9376,-71.96323,
6041,,,,0.043399055,0.33180746,-0.044799257,,,,
6055,0.87315154,0.47873622,9.231975,,,,,,,
6057,,,,,,,-4.2383976,23.458237,-73.83009,
6061,,,,-0.23729788,0.23273796,-0.19287089,,,,
6075,0.47550213,0.53383225,9.126573,,,,,,,
6077,,,,,,,-3.1617565,22.753748,-72.71179,
6081,,,,-0.16272941,-0.014403181,-0.28448352,,,,
6095,-0.00598906,0.8524308,8.328879,,,,,,,
6097,,,,,,,-5.3178787,24.489971,-72.78554,
6101,,,,-0.018918859,-0.18218218,-0.30365825,,,,
6116,-0.4802938,1.0129279,7.6749134,,,,,,,
6117,,,,,,,-5.0068283,23.147114,-74.155136,
6122,,,,0.02582221,-0.10921163,-0.22536142,,,,
6136,-0.5018531,1.127911,7.411411,,,,,,,
6137,,,,,,,-4.2405033,24.499367,-73.22313,
6142,,,,-0.009331488,0.026609464,-0.04266873,,,,
6156,0.16648537,1.3890182,7.7898965,,,,,,,
6157,,,,,,,-4.699156,23.151783,-74.14754,
6162,,,,-0.090291515,-0.026653713,0.09261973,,,,
6176,0.5976715,1.3458996,8.2115,,,,,,,
6177,,,,,,,-5.0069466,22.859243,-73.687515,
6182,,,,-0.06738835,-0.11400532,0.06918394,,,,
6196,0.36770558,1.3339221,8.25941,,,,,,,
6197,,,,,,,-4.393362,23.905079,-73.37483,
6202,,,,0.08121592,-0.1827148,0.0031376001,,,,
6216,0.31260955,1.4776508,8.120473,,,,,,,
6217,,,,,,,-4.393362,23.905079,-73.37483,
6222,,,,0.217037,-0.21893376,0.020714449,,,,
6236,0.48268855,1.5495151,8.0438175,,,,,,,
6237,,,,,,,-5.4684544,22.85224,-73.69891,
6242,,,,0.2489949,-0.14809375,0.0702492,,,,
6256,0.66234946,1.8058314,8.501353,,,,,,,
6257,,,,,,,-4.54303,22.978912,-75.998825,
6262,,,,0.15898016,-0.03837161,0.09421763,,,,
6276,1.0528125,1.8010404,9.045127,,,,,,,
6277,,,,,,,-4.087446,24.946243,-73.06975,
6282,,,,0.08228118,0.109700024,0.084097624,,,,
6296,1.0647899,1.5303513,9.306233,,,,,,,
6297,,,,,,,-7.0047007,22.656006,-75.437256,
6302,,,,0.044464316,0.20557375,0.0047354954,,,,
6316,0.19283566,1.3411086,9.787725,,,,,,,
6317,,,,,,,-5.0079536,23.596289,-73.696075,
6322,,,,-0.0934873,0.102775805,-0.11617191,,,,
6336,-0.51143503,0.90513146,10.975883,,,,,,,
6337,,,,,,,-3.778181,24.784973,-74.298294,
6342,,,,-0.21812312,-0.10654847,-0.12788983,,,,
6357,-0.44196618,0.34219396,12.3101635,,,,-6.0850906,24.162636,-74.19371,
6363,,,,-0.15953363,-0.29616538,-0.024026617,,,,
6377,-0.25272334,0.023595303,13.237215,,,,-5.0078354,23.88416,-74.1637,
6383,,,,0.07855275,-0.41281173,0.08676079,,,,
6397,-0.14492682,0.23918839,12.827588,,,,-7.469139,25.2931,-76.098404,
6403,,,,0.4396771,-0.33558014,0.22737555,,,,
6417,0.2862593,0.9602275,11.217826,,,,-8.085243,24.714973,-74.71416,
6423,,,,0.60905397,-0.12945163,0.40793777,,,,
6437,0.91147923,1.5495151,10.118301,,,,-6.8538685,23.856144,-74.20929,
6443,,,,0.37416336,0.17947479,0.49475673,,,,
6456,,,,,,,,,,1096.0
6457,1.385784,1.1662385,10.6261425,,,,-6.7014685,25.035435,-74.37392,
6463,,,,-0.090291515,0.4015822,0.38237143,,,,
6477,1.5031624,0.26553866,11.625058,,,,-4.7012787,25.206245,-74.79042,
6483,,,,-0.49296114,0.26522848,0.10487026,,,,
6497,0.56892574,-0.12013337,12.650322,,,,-6.7027416,25.341835,-73.60367,
6503,,,,-0.6868391,0.079872645,-0.19287089,,,,
6517,-0.41801137,-0.5105964,13.035994,,,,-6.548009,25.187494,-74.2171,
6523,,,,-0.5041464,0.17255057,-0.24986249,,,,
6537,-0.7605648,-0.5465286,12.03708,,,,-5.930786,24.448206,-74.96701,
6543,,,,-0.08549783,0.2705548,-0.106051914,,,,
6557,,,,,,,-7.4703646,24.441074,-73.92186,
6558,-0.5904858,-0.23272088,10.460855,,,,,,,
6564,,,,0.15791489,0.13899477,0.029236559,,,,
6577,,,,,,,-7.4699535,25.014496,-75.01184,
6578,-0.23355952,-0.12731981,9.449963,,,,,,,
6584,,,,0.092401184,-0.11134216,0.0904892,,,,
6597,,,,,,,-7.4709606,25.751541,-75.0204,
6598,0.1880447,-0.09138766,9.28228,,,,,,,
6604,,,,-0.08123677,-0.25408748,0.09581552,,,,
6617,,,,,,,-7.6267376,25.919779,-73.47859,
6618,0.46112925,-0.24469826,9.272697,,,,,,,
6624,,,,-0.11798836,-0.12146217,0.053737618,,,,
6637,,,,,,,-7.6244583,24.876335,-74.240265,
6638,0.32698244,-0.14887914,8.740901,,,,,,,
6644,,,,-0.04555045,0.104906335,-0.00591714,,,,
6657,,,,,,,-7.780656,26.352722,-73.95172,
6658,-0.06108506,0.22002456,8.163591,,,,,,,
6664,,,,-0.026375704,0.22421585,-0.019765563,,,,
6677,,,,,,,-7.1656876,26.511786,-73.78351,
6678,-0.28386456,0.35177588,7.892902,,,,,,,
6684,,,,-0.04555045,0.21036743,0.021779712,,,,
6697,,,,,,,-7.0133705,28.126356,-74.417465,
6698,-0.22637309,0.46915433,7.7707324,,,,,,,
6704,,,,-0.041822027,0.026609464,0.058531303,,,,
6717,,,,,,,-7.4736795,26.366657,-73.32518,
6718,-0.27428266,0.7518208,7.66054,,,,,,,
6724,,,,-0.030104125,-0.1741927,0.06385762,,,,
6737,,,,,,,-7.625575,26.19375,-74.8746,
6738,-0.38207918,0.9698093,7.7539644,,,,,,,
6744,,,,0.03274642,-0.18963902,0.11605553,,,,
6757,,,,,,,-8.704534,27.218536,-74.29425,
6758,-0.17367256,1.1159335,7.6988683,,,,,,,
6764,,,,0.13714226,-0.10974426,0.21778819,,,,
6777,,,,,,,-6.549474,26.509542,-74.54198,
6778,0.1329487,1.1398883,7.7563596,,,,,,,
6784,,,,0.14672963,-0.033577926,0.27051878,,,,
6797,,,,,,,-8.396953,26.790245,-73.66258,
6799,0.2215814,1.1973798,8.441466,,,,,,,
6805,,,,0.019430626,-0.029849501,0.25347453,,,,
6817,,,,,,,-8.244104,26.51629,-72.417496,
6819,0.29823667,1.1039561,9.421217,,,,,,,
6825,,,,0.011441151,-0.027718974,0.25880086,,,,
6837,,,,,,,-7.936223,27.24179,-73.50159,
6839,0.32698244,1.3770406,9.466731,,,,,,,
6845,,,,0.21277596,-0.0634053,0.25347453,,,,
6857,,,,,,,-7.783824,28.421082,-73.666214,
6859,0.6647449,1.6980348,8.578009,,,,,,,
6865,,,,0.3842834,-0.107613735,0.2279082,,,,
6877,,,,,,,-7.9379807,28.278286,-73.2041,
6879,1.0767672,1.789063,8.2354555,,,,,,,
6885,,,,0.31184545,-0.05381793,0.15706816,,,,
6897,,,,,,,-8.243428,27.520359,-74.286285,
6899,0.8947109,1.688453,9.303839,,,,,,,
6905,,,,0.101988554,0.063361056,0.06066183,,,,
6917,,,,,,,-9.014888,28.552132,-73.543594,
6919,0.7222364,1.2572668,10.38899,,,,,,,
6925,,,,0.03967063,0.107569486,-0.00591714,,,,
6937,,,,,,,-11.014244,27.646591,-72.963776,
6939,0.68390876,0.5410187,10.908809,,,,,,,
6945,,,,0.118500136,0.17840952,-0.054919258,,,,
6957,,,,,,,-9.781596,26.481363,-73.22916,
6959,0.12576225,0.049945578,11.71369,,,,,,,
6965,,,,-0.0013420116,0.08093791,-0.12522666,,,,
6977,,,,,,,-10.244204,26.778442,-72.625046,
6979,-0.4898757,0.2703296,13.699542,,,,,,,
6985,,,,-0.21545996,-0.16140953,-0.09380139,,,,
6997,,,,,,,-9.783721,28.535824,-73.87207,
6999,0.48508406,0.32063466,14.607428,,,,,,,
7005,,,,-0.12171678,-0.42932335,0.13043658,,,,
7017,,,,,,,-11.015544,28.098083,-72.34999,
7019,2.387094,0.36135778,13.41448,,,,,,,
7025,,,,0.14353384,-0.4234644,0.27850825,,,,
7037,,,,,,,-11.167184,27.487583,-73.58481,
7040,3.733353,0.29188892,11.488515,,,,,,,
7046,,,,0.20265596,0.08892738,0.14854605,,,,
7057,,,,,,,-11.014189,27.356407,-72.65088,
7060,3.108133,0.07629584,10.681239,,,,,,,
7066,,,,-0.13396731,0.75311923,-0.28182036,,,,
7077,,,,,,,-11.475459,27.92514,-73.597534,
7080,0.40603328,-0.42915013,12.132899,,,,,,,
7086,,,,-0.45461163,1.0407403,-0.69567525,,,,
7097,,,,,,,-11.783882,28.219921,-73.29909,
7100,-1.7187562,-0.8220086,13.246796,,,,,,,
7106,,,,-0.22984102,0.61676544,-0.69141424,,,,
7117,,,,,,,-9.935926,26.340885,-72.612305,
7120,-1.8816488,-0.4842461,11.56038,,,,,,,
7126,,,,0.410915,-0.14383268,-0.3244309,,,,
7137,,,,,,,-10.55475,29.127686,-72.9695,
7140,-0.48748025,0.2703296,8.580404,,,,,,,
7146,,,,0.7672456,-0.5267949,0.047878668,,,,
7157,,,,,,,-9.475362,27.662989,-73.389984,
7160,1.151027,0.888363,6.963456,,,,,,,
7166,,,,0.49294025,-0.3062854,0.19328713,,,,
7177,,,,,,,-11.47318,26.881697,-74.35922,
7180,1.8289475,1.1566567,7.2197723,,,,,,,
7186,,,,-0.11639047,0.10916739,0.059063938,,,,
7197,,,,,,,-11.013108,28.065657,-74.51625,
7200,1.5678403,0.90273595,8.403139,,,,,,,
7206,,,,-0.5547464,0.22155268,-0.22429617,,,,
7217,,,,,,,-9.936522,27.651352,-73.710846,
7220,0.7749369,0.7566117,9.23437,,,,,,,
7226,,,,-0.6223906,-0.02558845,-0.45386043,,,,
7237,,,,,,,-13.169844,29.375868,-73.50171,
7240,0.05868885,0.8332671,8.843906,,,,,,,
7246,,,,-0.3353021,-0.20295481,-0.46398044,,,,
7257,,,,,,,-12.859636,27.899496,-73.94121,
7261,-0.35333344,1.1830069,7.847388,,,,,,,
7267,,,,-0.056203082,-0.17792113,-0.3276267,,,,
7277,,,,,,,-12.243093,26.156141,-72.82233,
7281,-0.5976722,1.5135831,7.998303,,,,,,,
7287,,,,0.0066474644,0.0042389305,-0.15718456,,,,
7297,,,,,,,-12.092104,28.367294,-72.99893,
7301,-0.044316724,1.4968146,8.199524,,,,,,,
7307,,,,0.10145592,0.22474849,0.02976919,,,,
7317,,,,,,,-13.322243,28.196575,-73.33708,
7321,0.43717444,1.5447241,7.495252,,,,,,,
7327,,,,0.15791489,0.27641377,0.04628077,,,,
7337,,,,,,,-11.630595,28.374298,-72.98753,
7341,0.154508,1.7339671,7.6821,,,,,,,
7347,,,,0.018365363,0.145919,-0.07089822,,,,
7357,,,,,,,-12.551552,28.477589,-75.023575,
7361,-0.13294941,1.6309614,9.061895,,,,,,,
7367,,,,-0.09455257,-0.13797374,-0.09007296,,,,
7377,,,,,,,-11.784889,28.956966,-73.30765,
7381,-0.13294941,1.4704643,9.4835,,,,,,,
7387,,,,0.023159048,-0.39470226,-0.03734241,,,,
7397,,,,,,,-11.321999,28.077202,-73.440704,
7401,0.19523114,1.8034359,9.018777,,,,,,,
7407,,,,0.14779489,-0.36274436,-0.015504511,,,,
7417,,,,,,,-13.322572,27.187876,-71.77777,
7421,0.47071117,1.7579218,8.997218,,,,,,,
7427,,,,0.035942208,-0.12572321,0.012724971,,,,
7437,,,,,,,-12.86025,27.473484,-72.852936,
7441,0.46112925,1.2021707,10.3554535,,,,,,,
7447,,,,-0.17018627,0.08679685,0.052139726,,,,
7457,,,,,,,-12.708455,29.095001,-73.02269,
7461,-0.029943839,0.5601825,12.156854,,,,,,,
7467,,,,-0.1472831,0.072948426,0.047346037,,,,
7477,,,,,,,-13.324175,29.23539,-72.88487,
7482,-0.56174004,0.28470248,12.573667,,,,,,,
7488,,,,0.23780966,-0.107613735,0.059063938,,,,
7497,,,,,,,-12.092452,28.371927,-72.68947,
7502,-0.7126552,0.4955046,11.275318,,,,,,,
7508,,,,0.6958729,-0.24236956,0.19275449,,,,
7517,,,,,,,-12.5539875,28.510017,-72.857315,
7522,-0.51143503,1.2500803,9.639206,,,,,,,
7528,,,,0.8673804,-0.12146217,0.40154618,,,,
7537,,,,,,,-12.398154,28.051594,-74.08624,
7542,-0.06108506,1.7483399,8.484585,,,,,,,
7548,,,,0.710254,0.24711902,0.6098052,,,,
7557,,,,,,,-12.856404,26.409191,-75.0072,
7562,0.27428192,1.8178087,8.194733,,,,,,,
7568,,,,0.30918232,0.61783075,0.7424305,,,,
7577,,,,,,,-12.396745,27.01973,-74.074265,
7582,0.8635696,0.99376416,9.294257,,,,,,,
7588,,,,-0.25594002,0.7701634,0.6817105,,,,
7597,,,,,,,-10.397097,28.210823,-75.27643,
7602,0.985739,0.19606978,11.931679,,,,,,,
7608,,,,-0.8913697,0.52888125,0.33443457,,,,
7617,,,,,,,-10.397097,28.210823,-75.27643,
7622,0.08024815,-0.31177166,14.157078,,,,,,,
7628,,,,-1.0516918,0.3222201,-0.13481404,,,,
7637,,,,,,,-9.783108,28.961838,-74.96033,
7642,-1.1031182,-0.723794,14.21457,,,,,,,
7648,,,,-0.6106727,0.3041106,-0.37343302,,,,
7657,,,,,,,-9.783108,28.961838,-74.96033,
7662,-1.903208,-0.49143258,12.451498,,,,,,,
7668,,,,-0.17231679,0.13313583,-0.29513615,,,,
7677,,,,,,,-11.170406,29.846128,-73.6122,
7682,-1.9151855,0.018804371,10.966301,,,,,,,
7688,,,,-0.10946626,-0.061274774,-0.05758242,,,,
7697,,,,,,,-10.398854,29.247318,-74.97894,
7702,-1.021672,-0.050664514,10.4369,,,,,,,
7708,,,,-0.2639295,-0.10601584,0.174645,,,,
7717,,,,,,,-9.783162,29.252024,-75.27321,
7723,-0.089830816,-0.29500332,10.285985,,,,,,,
7729,,,,-0.3784453,-0.016001077,0.20340712,,,,
7737,,,,,,,-11.628298,29.067335,-75.936035,
7743,-0.022757411,-0.39321795,10.072787,,,,,,,
7749,,,,-0.40774006,0.09478633,0.065988146,,,,
7757,,,,,,,-9.168074,29.698956,-75.57262,
7763,-0.52101696,-0.10096955,9.538596,,,,,,,
7769,,,,-0.3720537,0.07614422,-0.013906617,,,,
7777,,,,,,,-9.936503,29.387833,-75.89766,
7783,-0.77733314,0.27751604,9.28228,,,,,,,
7789,,,,-0.24848314,-0.0069463365,0.04415025,,,,
7797,,,,,,,-8.863149,30.463835,-74.026245,
7803,-0.44436163,0.37812614,8.527704,,,,,,,
7809,,,,-0.016788332,-0.13477795,0.14321975,,,,
7817,,,,,,,-10.398506,29.242685,-75.28841,
7823,-0.0682715,0.53383225,7.155094,,,,,,,
7829,,,,0.1547191,-0.20668325,0.18423238,,,,
7837,,,,,,,-9.322459,29.848663,-75.26866,
7843,-0.07066698,0.9242953,6.556225,,,,,,,
7849,,,,0.06949801,-0.16780111,0.18689555,,,,
7857,,,,,,,-10.244121,29.09298,-75.59238,
7863,-0.12336751,0.8835721,7.399433,,,,,,,
7869,,,,-0.08762835,-0.04050214,0.20500502,,,,
7877,,,,,,,-10.246053,30.13179,-75.14015,
7883,-0.20960474,0.85961735,8.213896,,,,,,,
7889,,,,-0.052474663,-0.045295823,0.2044724,,,,
7897,,,,,,,-9.011043,27.487839,-75.697876,
7903,-0.25990978,1.0416737,8.357625,,,,,,,
7909,,,,0.11423908,-0.10654847,0.2012766,,,,
7917,,,,,,,-9.166573,29.100056,-76.18471,
7923,0.08983007,0.95543647,8.716947,,,,,,,
7929,,,,0.17442648,-0.23118429,0.21778819,,,,
7937,,,,,,,-8.856621,28.06128,-76.9388,
7944,0.34375083,0.9793912,8.899003,,,,,,,
7950,,,,0.17602436,-0.3180033,0.15973133,,,,
7957,,,,,,,-8.859359,29.689728,-76.49342,
7964,0.08503914,1.1854024,9.20802,,,,,,,
7970,,,,0.19626439,-0.17685585,0.06172709,,,,
7977,,,,,,,-7.625556,27.930231,-77.06142,
7984,-0.008384541,1.0512556,9.426008,,,,,,,
7990,,,,0.22768965,-0.070862144,0.039889194,,,,
7997,,,,,,,-8.088055,27.64694,-75.83153,
8004,0.17367181,0.85961735,10.012901,,,,,,,
8010,,,,0.19093806,-0.16673586,0.047346037,,,,
8017,,,,,,,-7.9335766,27.930195,-76.75955,
8024,0.6359992,0.7518208,10.719567,,,,,,,
8030,,,,0.17495911,-0.256218,0.0702492,,,,
8037,,,,,,,-9.933088,26.013638,-74.77515,
8044,1.0336486,0.7374479,10.518346,,,,,,,
8050,,,,0.27562648,-0.10015689,0.11232711,,,,
8057,,,,,,,-9.008936,26.44671,-76.304825,
8064,1.095931,0.8021258,9.775748,,,,,,,
8070,,,,0.30492124,0.13952741,0.08622815,,,,
8077,,,,,,,-7.929595,26.14044,-78.13161,
8084,0.6503721,0.8787811,10.698007,,,,,,,
8090,,,,0.11903276,0.1981169,0.0031376001,,,,
8097,,,,,,,-7.161339,26.453878,-77.65184,
8104,0.36531013,0.6703745,11.78795,,,,,,,
8110,,,,-0.023179915,0.0015757716,-0.05545189,,,,
8117,,,,,,,-7.010295,28.374847,-77.51555,
8124,0.34375083,0.36614874,11.845442,,,,,,,
8130,,,,-0.035963077,-0.093232684,-0.066637166,,,,
8137,,,,,,,-7.9293013,26.425991,-78.75395,
8144,0.21439496,0.5961147,11.902933,,,,,,,
8150,,,,-0.13876098,0.009032616,-0.077822424,,,,
8157,,,,,,,-6.698722,27.02504,-79.34935,
8165,0.8971064,0.09545967,12.154458,,,,,,,
8171,,,,-0.29908317,0.17681164,-0.10072559,,,,
8177,,,,,,,-6.8540144,26.46318,-77.33476,
8185,1.491185,-0.87950015,12.520967,,,,,,,
8191,,,,-0.38110846,0.3025127,-0.2349488,,,,
8197,,,,,,,-5.3146553,27.631056,-79.63147,
8205,0.7294228,-1.3490138,12.6862545,,,,,,,
8211,,,,-0.30547473,0.19705163,-0.42722884,,,,1166.0
8217,,,,,,,-6.3900433,26.292664,-79.33319,
8225,-0.05150315,-1.1885167,11.98917,,,,,,,
8231,,,,-0.05833361,-0.14756112,-0.42243513,,,,
8237,,,,,,,-6.8493633,24.809254,-79.48219,
8245,0.03233859,-0.7357713,10.130279,,,,,,,
8251,,,,0.21810228,-0.3552875,-0.19979511,,,,
8257,,,,,,,-5.9285336,26.299667,-79.32179,
8265,0.6240218,-0.20157966,8.33367,,,,,,,
8271,,,,0.2250265,-0.10974426,0.038291298,,,,
8277,,,,,,,-6.851927,26.435385,-79.191574,
8285,1.3953658,0.22242004,8.051003,,,,,,,
8291,,,,-0.0615294,0.3073064,0.18476503,,,,
8297,,,,,,,-5.313347,25.297989,-77.90201,
8305,2.0828683,0.4931091,8.144427,,,,,,,
8311,,,,-0.36459687,0.38347274,0.12724079,,,,
8317,,,,,,,-5.9275913,24.984568,-78.532715,
8325,1.8025973,0.4955046,8.628314,,,,,,,
8331,,,,-0.49029797,0.25830427,-0.14386877,,,,
8337,,,,,,,-7.619899,25.539257,-79.2003,
8345,0.68390876,0.49790007,8.611546,,,,,,,
8351,,,,-0.4492853,-0.028784238,-0.42722884,,,,
8357,,,,,,,-4.697342,24.574915,-77.56879,
8365,-0.4946667,0.65839714,8.786416,,,,,,,
8371,,,,-0.3853695,-0.18218218,-0.5337552,,,,
8377,,,,,,,-4.5454845,26.774487,-78.51906,
8385,-1.0288584,0.55299604,9.162506,,,,,,,
8391,,,,-0.22877575,-0.13637584,-0.3782267,,,,
8397,,,,,,,-5.9320316,27.359327,-77.476974,
8406,-0.65037274,0.72307503,8.738506,,,,,,,
8412,,,,-0.018918859,-0.08790636,-0.1358793,,,,
8417,,,,,,,-5.62274,27.052963,-78.54909,
8426,0.16888088,0.8763857,8.249828,,,,,,,
8432,,,,0.14353384,0.08306843,0.013257603,,,,
8437,,,,,,,-6.390996,26.739525,-79.028854,
8446,0.47071117,1.1350974,8.173173,,,,,,,
8452,,,,0.1376749,0.1059716,0.022312343,,,,
8457,,,,,,,-4.546446,26.353107,-77.12132,
8466,0.09222555,1.4057864,8.604359,,,,,,,
8472,,,,0.08228118,0.032468412,-0.057049785,,,,
8477,,,,,,,-3.4674683,27.064802,-79.888504,
8486,-0.28626004,1.568679,8.999613,,,,,,,
8492,,,,0.1195654,0.0063694576,-0.08155085,,,,
8497,,,,,,,-3.3121967,25.890179,-79.71626,
8506,-0.09222628,1.4560915,9.358934,,,,,,,
8512,,,,0.2031886,-0.017066339,0.02444287,,,,
8517,,,,,,,-6.3854475,24.92892,-81.7935,
8526,0.5329936,1.3123628,9.761374,,,,,,,
8532,,,,0.30705175,0.0010431398,0.13043658,,,,
8537,,,,,,,-3.7750874,26.769947,-79.583206,
8546,0.9498069,1.4297413,10.082369,,,,,,,
8552,,,,0.38534862,0.057502102,0.10007658,,,,
8557,,,,,,,-4.2347183,26.014317,-80.35971,
8566,0.86836064,1.293199,10.132674,,,,,,,
8572,,,,0.3512602,0.01009788,-0.034679253,,,,
8577,,,,,,,-3.4645386,24.420704,-79.23874,
8586,0.21918592,0.82368517,10.659679,,,,,,,
8592,,,,0.21437386,-0.06819899,-0.14014035,,,,
8597,,,,,,,-3.464283,23.983109,-78.92413,
8606,-0.5904858,0.35177588,11.943656,,,,,,,
8612,,,,0.13714226,-0.08577583,-0.11350876,,,,
8617,,,,,,,-4.3871174,24.835026,-80.19507,
8627,-0.7677513,0.06910941,12.707814,,,,,,,
8633,,,,0.31131282,-0.023990551,0.047346037,,,,
8637,,,,,,,-4.6961975,25.86222,-80.214645,
8647,-0.67672306,0.507482,11.883769,,,,,,,
8653,,,,0.61171716,0.043121044,0.2012766,,,,
8657,,,,,,,-4.077879,24.818848,-81.58008,
8667,-0.67672306,1.3578769,10.707589,,,,,,,
8673,,,,0.69374245,0.107569486,0.2912914,,,,
8677,,,,,,,-2.6927319,23.3843,-80.29089,
8687,-0.52341247,1.8369725,10.142256,,,,,,,
8693,,,,0.52915925,0.16349584,0.34189144,,,,
8697,,,,,,,-3.76898,22.925728,-80.31236,
8707,-0.10659915,1.789063,10.089556,,,,,,,
8713,,,,0.23408124,0.2300748,0.2912914,,,,
8717,,,,,,,-3.1530762,23.651266,-81.6983,
8727,0.12336677,1.0704194,10.5734415,,,,,,,
8733,,,,-0.10254204,0.28174007,0.12883869,,,,
8737,,,,,,,-2.2302456,22.79935,-80.42738,
8747,-0.27907363,0.18888333,11.526843,,,,,,,
8753,,,,-0.37418425,0.24019481,-0.0623761,,,,
8757,,,,,,,-1.7650375,21.599287,-82.25908,
8763,,,,,,,,,,1090.0
8767,-1.237265,-0.4626868,11.955634,,,,,,,
8773,,,,-0.44981796,0.20291059,-0.109780334,,,,
8777,,,,,,,-1.3053417,22.932972,-82.26309,
8787,-1.567841,-0.48903707,11.701713,,,,,,,
8793,,,,-0.3294432,0.17681164,0.0601292,,,,
8797,,,,,,,-4.0765247,24.077171,-81.88098,
8807,-0.9378302,-0.2087661,10.985465,,,,,,,
8813,,,,-0.21918839,0.04631684,0.24175662,,,,
8817,,,,,,,-2.2297401,23.805735,-82.14143,
8827,0.23355877,-0.278235,10.693215,,,,,,,
8833,,,,-0.2463526,-0.16673586,0.27371454,,,,
8837,,,,,,,-1.1556721,23.859138,-79.6391,
8848,0.8611741,-0.49143258,10.477623,,,,,,,
8854,,,,-0.29642,-0.30362222,0.099543944,,,,
8857,,,,,,,-1.3058281,23.663067,-82.735855,
8868,0.5329936,-0.6064155,10.250052,,,,,,,
8874,,,,-0.27032104,-0.21467271,-0.1310856,,,,
8877,,,,,,,-0.8474407,24.580006,-81.03267,
8888,-0.17127708,-0.5417377,9.181669,,,,,,,
8894,,,,-0.148881,-0.03730635,-0.21098037,,,,
8897,,,,,,,-1.0031548,25.326298,-80.27136,
8908,-0.7581693,0.061922967,7.9815345,,,,,,,
8914,,,,-0.07058414,0.1629632,-0.10498665,,,,
8917,,,,,,,-1.1554604,24.579967,-80.73079,
8928,-0.6695366,0.36135778,7.4856706,,,,,,,
8934,,,,-0.06898624,0.2939906,0.035095505,,,,
8937,,,,,,,-1.1552048,24.142374,-80.41618,
8948,-0.3581244,0.36375326,7.401829,,,,,,,
8954,,,,-0.09455257,0.24552111,0.08090183,,,,
8957,,,,,,,-1.0000496,22.679882,-79.77635,
8968,-0.54257625,0.60809207,7.7252183,,,,,,,
8974,,,,-0.11798836,0.048979998,0.07717341,,,,
8977,,,,,,,0.9992504,23.875608,-80.66904,
8988,-0.6791185,0.7973349,8.336065,,,,,,,
8994,,,,-0.021049386,-0.1406369,0.10700079,,,,
8997,,,,,,,-0.8483467,23.868439,-79.32204,
9008,-0.48508477,0.8356626,8.362416,,,,,,,
9014,,,,0.1914707,-0.27272958,0.13789342,,,,
9017,,,,,,,0.2323494,22.82049,-81.44972,
9028,-0.087435335,0.838058,8.11089,,,,,,,
9034,,,,0.36564127,-0.30575275,0.13629553,,,,
9037,,,,,,,0.2323494,22.82049,-81.44972,
9048,0.1329487,1.0177189,8.05819,,,,,,,
9054,,,,0.39387074,-0.24343483,0.12511027,,,,
9057,,,,,,,0.84679794,22.986502,-80.81729,
9069,0.09701651,1.1303064,8.074959,,,,,,,
9075,,,,0.35019493,-0.18804112,0.13629553,,,,
9077,,,,,,,1.1546803,23.712002,-81.9014,
9089,0.075457215,1.458487,8.192337,,,,,,,
9095,,,,0.25325596,-0.2061506,0.14641553,,,,
9097,,,,,,,0.2343731,22.214638,-82.52602,
9109,0.43956995,1.5159785,8.827139,,,,,,,
9115,,,,0.14779489,-0.21307482,0.15280712,,,,
9117,,,,,,,0.23344994,22.516407,-82.06523,
9129,1.151027,1.3291311,9.699093,,,,,,,
9135,,,,0.03860537,-0.28498012,0.07664078,,,,
9137,,,,,,,-0.07497406,22.811188,-81.766785,
9149,1.3426654,1.0752103,10.690821,,,,,,,
9155,,,,0.033811685,-0.18218218,-0.106051914,,,,
9157,,,,,,,1.0010071,22.839111,-80.96652,
9164,,,,,,,,,,1158.0
9169,0.5042479,0.95064545,10.319522,,,,,,,
9175,,,,0.16750227,0.09212317,-0.29992983,,,,
9177,,,,,,,1.1545258,22.700985,-80.496826,
9189,-0.15211326,0.78296196,9.58411,,,,,,,
9195,,,,0.1376749,0.24552111,-0.33881196,,,,
9197,,,,,,,0.8521061,20.600163,-82.64671,
9209,-0.23355952,0.10743706,10.44169,,,,,,,
9215,,,,-0.16272941,0.15071268,-0.25039515,,,,
9217,,,,,,,1.3108234,22.525799,-82.50284,
9229,-0.7006779,0.11701898,12.695836,,,,,,,
9235,,,,-0.3970874,-0.16993164,-0.18594667,,,,
9237,,,,,,,2.5420227,21.669289,-81.84323,
9249,-0.31021482,0.3709397,13.8552475,,,,,,,
9255,,,,-0.23197155,-0.47193387,-0.025624514,,,,
9257,,,,,,,1.4667377,21.6321,-83.262436,
9269,1.270801,0.6344423,12.954548,,,,,,,
9275,,,,0.1376749,-0.4490307,0.18583028,,,,
9277,,,,,,,1.1585617,20.621044,-81.55597,
9289,2.8494213,0.838058,11.402278,,,,,,,
9295,,,,0.27456126,-0.14223479,0.1879608,,,,
9297,,,,,,,2.2347546,21.3698,-81.84741,
9310,3.0913649,0.5601825,10.978278,,,,,,,
9316,,,,-0.005070434,0.112363175,-0.091670856,,,,
9317,,,,,,,2.0831718,20.469112,-82.76935,
9330,1.5822133,-0.053059995,11.730459,,,,,,,
9336,,,,-0.28683263,0.31103483,-0.49487305,,,,
9337,,,,,,,3.618126,21.98508,-81.51059,
9350,-0.4946667,-0.26865306,11.986774,,,,,,,
9356,,,,-0.23090628,0.30837163,-0.72070897,,,,
9357,,,,,,,2.0814857,20.202091,-80.90912,
9365,,,,,,,,,,1232.0
9370,-1.5798185,0.21283811,11.102843,,,,,,,
9376,,,,0.02955063,0.112363175,-0.5721047,,,,
9377,,,,,,,1.4650173,20.641928,-80.465256,
9390,-0.85877943,0.6703745,9.521827,,,,,,,
9396,,,,0.19360122,-0.017066339,-0.2583846,,,,
9397,,,,,,,0.8483162,21.374268,-80.179535,
9410,0.3533327,0.91471326,7.9336247,,,,,,,
9416,,,,0.07855275,0.15870215,-0.11031297,,,,
9417,,,,,,,1.3105488,21.226913,-80.63063,
9430,0.42998803,0.9626229,7.7443824,,,,,,,
9436,,,,-0.2783105,0.45431274,-0.16730458,,,,
9437,,,,,,,3.1564903,20.821966,-79.96095,
9450,-0.13534491,0.95064545,8.616336,,,,,,,
9456,,,,-0.6128033,0.4537801,-0.26797196,,,,
9457,,,,,,,2.6965485,20.794117,-81.36496,
9470,-0.5018531,0.72547054,9.835635,,,,,,,
9476,,,,-0.70122015,0.15923479,-0.25625405,,,,
9477,,,,,,,4.387764,21.411749,-81.17529,
9490,-0.41801137,0.22960648,10.0656,,,,,,,
9496,,,,-0.45301375,-0.19390006,-0.14546667,,,,
9497,,,,,,,4.843935,23.950188,-79.49092,
9510,-0.5497627,0.40208092,9.114595,,,,,,,
9516,,,,-0.10999889,-0.32759067,-0.0975298,,,,
9517,,,,,,,2.2342987,21.954803,-82.16373,
9530,-0.93543476,0.94345903,8.257015,,,,,,,
9536,,,,0.051388532,-0.108679,0.0015397047,,,,
9537,,,,,,,2.0791702,20.522388,-79.210464,
9551,-0.72702813,1.1063516,8.039026,,,,,,,
9557,,,,0.064171694,0.166159,0.25400716,3.3110504,20.669943,-80.41966,
9571,0.23834974,0.99136865,8.403139,,,,,,,
9577,,,,0.06576959,0.15177794,0.40953565,3.0004559,21.4278,-78.73375,
9591,0.7437957,1.1039561,8.987636,,,,,,,
9597,,,,0.16111068,-0.10228742,0.34242404,3.7712307,21.273533,-79.9509,
9611,0.68151325,1.3986,8.98524,,,,,,,
9617,,,,0.3576518,-0.33398223,0.22204925,2.3868427,20.527058,-79.202866,
9631,0.7749369,1.6812665,8.376788,,,,,,,
9637,,,,0.51477814,-0.3196012,0.17997134,3.3107948,21.107538,-80.73425,
9651,0.7605641,1.9567466,8.007885,,,,,,,
9657,,,,0.5185066,-0.07139477,0.1863629,2.2372837,19.02052,-81.201096,
9671,0.69828165,2.019029,8.63071,,,,,,,
9677,,,,0.36723918,0.077742115,0.20180924,3.7754612,18.177942,-79.91495,
9691,0.8659651,1.6213795,9.332584,,,,,,,
9697,,,,0.22768965,0.028207358,0.13789342,3.4659748,19.499954,-79.93796,
9711,0.6719314,1.2476848,9.969782,,,,,,,
9717,,,,0.0977275,-0.035175823,-0.05758242,4.2355022,19.506996,-80.228424,
9731,0.08983007,0.6751655,10.899228,,,,,,,
9737,,,,0.039138,0.102775805,-0.17156562,3.7727146,18.93815,-78.376175,
9751,-0.61444056,0.2152336,11.021397,,,,,,,
9757,,,,0.11530435,0.22474849,-0.09699717,4.5443115,17.180914,-78.336624,
9772,-1.1558187,0.27991152,11.16273,,,,,,,
9777,,,,,,,4.236658,18.912727,-80.53105,
9778,,,,0.14672963,0.15603898,0.12990394,,,,
9792,-0.67672306,0.48592266,11.426233,,,,,,,
9797,,,,,,,4.545803,18.463587,-81.29198,
9798,,,,0.18667701,0.07720948,0.388763,,,,
9812,-0.116181076,0.99136865,10.985465,,,,,,,
9817,,,,,,,4.8527985,17.464188,-79.41559,
9818,,,,0.31663913,0.2854685,0.5112683,,,,
9832,-0.24314144,1.6956394,10.18777,,,,,,,
9837,,,,,,,4.5463333,16.575064,-79.41292,
9838,,,,0.32303074,0.47455278,0.50753987,,,,
9852,0.039525032,1.9136279,10.000923,,,,,,,
9857,,,,,,,4.5452366,16.879147,-78.797424,
9858,,,,0.064171694,0.33020955,0.44362408,,,,
9866,,,,,,,,,,1156.0
9872,0.62881273,1.3602724,10.899228,,,,,,,
9877,,,,,,,7.008314,16.17019,-79.346985,
9878,,,,-0.3816411,-0.057013724,0.2481482,,,,
9892,0.43956995,0.40687189,12.03708,,,,,,,
9897,,,,,,,6.544325,17.354042,-78.59842,
9898,,,,-0.6394349,-0.15501796,-0.063974,,,,
9912,-0.626418,-0.20397511,12.583249,,,,,,,
9917,,,,,,,7.0089283,16.596203,-80.43526,
9918,,,,-0.5861717,0.071883164,-0.25039515,,,,
9932,-1.5199316,-0.18960229,12.252673,,,,,,,
9937,,,,,,,5.774084,18.369598,-78.93887,
9938,,,,-0.34542212,0.22794427,-0.15132561,,,,
9952,-1.4241123,-0.050664514,11.435815,,,,,,,
9957,,,,,,,8.235863,18.112135,-78.87465,
9958,,,,-0.10254204,0.15390846,0.12404501,,,,
9972,-0.6791185,0.10264611,10.276402,,,,,,,
9977,,,,,,,6.0799446,19.70095,-78.946686,
9978,,,,-0.026908336,-0.16354007,0.28330192,,,,
9993,0.12815776,0.10983254,9.519432,,,,,,,
9997,,,,,,,7.31357,17.943768,-79.35994,
9999,,,,-0.113194674,-0.3819191,0.23110399,,,,
10013,0.48987502,-0.10096955,9.121782,,,,,,,
10017,,,,,,,5.7763004,16.748098,-78.920044,
10019,,,,-0.27724528,-0.29510012,0.09528289,,,,
10033,0.21679044,-0.23751184,9.121782,,,,,,,
10037,,,,,,,7.776205,17.501596,-79.8076,
10039,,,,-0.403479,0.007434721,-0.043733995,,,,
10053,-0.24793239,-0.23751184,9.358934,,,,,,,
10057,,,,,,,7.7761955,16.633356,-78.7142,
10059,,,,-0.3720537,0.16030005,-0.08794243,,,,
10073,-0.49945763,-0.14887914,9.191251,,,,,,,
10077,,,,,,,8.390076,17.964743,-79.023865,
10079,,,,-0.23729788,-0.003750546,-0.047995046,,,,
10093,-0.52820337,-0.0051504374,8.652268,,,,,,,
10097,,,,,,,7.6220856,18.08195,-80.282455,
10099,,,,-0.107335724,-0.20082428,0.0042028637,,,,
10113,-0.5880903,0.36375326,7.921648,,,,,,,
10117,,,,,,,7.1616383,17.047714,-79.9724,
10119,,,,-0.016788332,-0.15342006,0.0702492,,,,
10133,-0.37489277,0.66558355,7.914461,,,,,,,
10137,,,,,,,7.0031776,18.554214,-77.67232,
10139,,,,0.02635484,0.07720948,0.17624292,,,,
10153,0.24074522,0.64641976,8.446258,,,,,,,
10157,,,,,,,5.7729206,18.095627,-77.54285,
10159,,,,0.12755488,0.1832032,0.24069135,,,,
10173,0.37249655,0.7901484,8.30732,,,,,,,
10177,,,,,,,8.6998825,16.783192,-79.46678,
10179,,,,0.29852965,-0.033045296,0.12511027,,,,
10193,-0.00598906,1.12312,7.2053995,,,,,,,
10197,,,,,,,6.0835686,17.047586,-78.91586,
10199,,,,0.3209002,-0.29882854,-0.06610453,,,,
10214,-0.3916611,1.0273008,7.658145,,,,,,,
10217,,,,,,,7.93223,16.027523,-79.94142,1080.0
10220,,,,0.1110433,-0.20934638,-0.08527928,,,,
10234,-0.31500578,0.8284761,9.052314,,,,,,,
10237,,,,,,,6.697859,16.202583,-76.87886,
10240,,,,-0.0024072751,-0.04103477,0.053204987,,,,
10254,0.38686943,0.9171088,9.7278385,,,,,,,
10257,,,,,,,9.468998,16.21681,-78.66728,
10260,,,,0.111575924,-0.051154774,0.14162184,,,,
10274,0.8180555,1.118329,9.023568,,,,,,,
10277,,,,,,,6.3903446,17.20893,-78.29103,
10280,,,,0.19040543,-0.021327393,0.0484113,,,,
10294,0.49706143,1.1398883,9.205624,,,,,,,
10297,,,,,,,7.929949,17.070969,-79.17973,
10300,,,,0.033811685,0.166159,-0.09859507,,,,
10314,0.1329487,0.7566117,10.544697,,,,,,,
10317,,,,,,,7.313013,17.22757,-77.958786,
10320,,,,-0.09242204,0.22900954,-0.1662393,,,,
10334,-0.01796645,0.28949344,11.172312,,,,,,,
10337,,,,,,,7.774521,17.234573,-77.94739,
10340,,,,-0.017853595,0.06016526,-0.24027513,,,,
10354,-0.45633903,0.26314318,10.9136,,,,,,,
10357,,,,,,,8.697912,17.098856,-78.07761,
10360,,,,0.0625738,-0.1757906,-0.34360564,,,,
10374,-0.9450166,0.73505247,11.1148205,,,,,,,
10377,,,,,,,7.773861,17.966986,-78.265396,
10380,,,,-0.02850623,-0.27539277,-0.32070246,,,,
10394,-0.24074596,0.617674,12.235905,,,,,,,
10397,,,,,,,7.621269,17.803345,-79.19589,
10400,,,,-0.094019935,-0.2381085,-0.110845596,,,,
10414,1.2420553,0.35417137,12.794051,,,,,,,
10417,,,,,,,7.9317093,16.034472,-79.47722,
10420,,,,0.009843254,-0.23011903,0.010594444,,,,
10434,2.161919,0.27751604,11.749621,,,,,,,
10437,,,,,,,7.9317093,16.034472,-79.47722,
10440,,,,0.079618014,-0.14702848,-0.16091299,,,,
10454,1.7906199,-0.031500697,10.726753,,,,,,,
10457,,,,,,,8.388107,18.280409,-77.634705,
10460,,,,-0.16485997,0.21409586,-0.42030463,,,,
10475,0.324587,-0.4770597,11.421442,,,,,,,
10477,,,,,,,8.388107,18.280409,-77.634705,
10481,,,,-0.5227885,0.7025192,-0.51085204,,,,
10495,-0.7893106,-0.5920427,12.813215,,,,,,,
10497,,,,,,,9.619225,17.859173,-77.44443,
10501,,,,-0.5020159,0.84899294,-0.3494646,,,,
10515,-0.68870044,-0.28063044,12.3101635,,,,,,,
10517,,,,,,,9.464365,19.607218,-78.70665,
10521,,,,-0.0077335928,0.44685593,-0.08634454,,,,
10535,0.25272262,0.282307,9.938641,,,,,,,
10537,,,,,,,11.623049,16.244862,-78.92354,
10541,,,,0.51318026,-0.12412532,0.05746604,,,,
10555,1.2037276,0.7422389,7.15749,,,,,,,
10557,,,,,,,10.698706,16.827438,-78.48898,
10561,,,,0.5259634,-0.37765804,-0.01763504,,,,
10575,1.4049478,0.8739902,6.12983,,,,,,,
10577,,,,,,,9.314318,16.080963,-77.74095,
10581,,,,-0.070051506,-0.1321148,-0.2179046,,,,
10595,0.7677505,0.4715498,7.7898965,,,,,,,
10597,,,,,,,9.005043,18.123808,-78.85565,
10601,,,,-0.79709387,0.27641377,-0.34999725,,,,
10615,-0.04192123,-0.0027549267,9.876358,,,,,,,
10617,,,,,,,9.003962,17.414558,-76.990295,
10621,,,,-1.0751276,0.4260833,-0.41231516,,,,
10635,-0.91627085,-0.06743288,10.930368,,,,,,,
10637,,,,,,,9.617138,17.886969,-75.58765,
10641,,,,-0.78111494,0.28280532,-0.4016625,,,,
10655,-1.2037283,0.09066872,10.180584,,,,,,,
10657,,,,,,,12.078363,19.66312,-77.55893,
10661,,,,-0.2010789,-0.050089512,-0.27116773,,,,
10668,,,,,,,,,,964.0
10675,-0.91866636,0.28709796,8.721737,,,,,,,
10677,,,,,,,12.079168,19.073483,-77.55208,
10681,,,,0.20212333,-0.35582012,-0.15558667,,,,
10696,-0.67432755,0.51227295,7.691682,,,,,,,
10697,,,,,,,8.84956,18.577597,-77.9362,
10702,,,,0.21863492,-0.4421065,-0.09859507,,,,
10716,-0.24793239,0.7566117,7.600653,,,,,,,
10717,,,,,,,8.386175,19.31922,-77.182495,
10722,,,,-0.0013420116,-0.25728327,-0.028287672,,,,
10736,-0.029943839,0.787753,8.412721,,,,,,,
10737,,,,,,,10.231672,20.367517,-77.92255,
10742,,,,-0.19468734,0.051110525,0.043084983,,,,
10756,0.027547628,0.7590072,9.471521,,,,,,,
10757,,,,,,,9.926065,18.598572,-77.60013,
10762,,,,-0.14408731,0.095318966,0.12138185,,,,
10769,,,,,,,,,,902.0
10776,0.3030277,0.9410635,9.397263,,,,,,,
10777,,,,,,,9.462835,20.351212,-78.25101,
10782,,,,0.10624961,-0.0868411,0.15120922,,,,
10796,0.45154732,0.9650184,9.025963,,,,,,,
10797,,,,,,,11.3086605,19.658396,-77.11372,
10802,,,,0.31504124,-0.11080952,0.107533425,,,,
10816,0.324587,1.2141482,8.50854,,,,,,,
10817,,,,,,,10.541292,18.320042,-77.11731,
10822,,,,0.32675916,-0.04050214,0.039356563,,,,
10836,0.18085825,1.118329,8.745692,,,,,,,
10837,,,,,,,11.6132145,21.441238,-76.50774,
10842,,,,0.13021804,0.1043737,0.012724971,,,,
10856,-0.18564996,0.6344423,9.945827,,,,,,,
10857,,,,,,,11.465258,17.887188,-77.398834,
10862,,,,-0.12011889,0.13153793,-0.035211883,,,,
10869,,,,,,,,,,821.0
10876,-0.95459855,0.282307,11.488515,,,,,,,
10877,,,,,,,9.156124,18.018108,-76.21968,
10882,,,,-0.1504789,0.12301581,-0.061843473,,,,
10896,-1.3163158,0.08348228,12.001148,,,,,,,
10897,,,,,,,12.231562,20.252773,-77.716705,
10902,,,,0.112641186,0.033533674,0.054802883,,,,
10917,-0.77972865,-0.055455476,11.53882,,,,9.926065,18.598572,-77.60013,
10919,,,,,,,,,,764.0
10923,,,,0.38907707,-0.17366007,0.23163661,,,,
10937,-0.26230526,0.38770807,11.474142,,,,12.3841,20.7066,-77.09912,
10943,,,,0.38268548,-0.30735064,0.2896935,,,,
10957,0.09462103,0.6200695,11.759204,,,,12.230886,19.248707,-75.847916,
10963,,,,0.22396122,-0.16034427,0.31046614,,,,
10977,0.19283566,0.8356626,11.763995,,,,11.463526,18.778591,-76.944916,
10983,,,,0.14619699,0.20770428,0.35414195,,,,
10997,0.10899392,0.86440825,11.574752,,,,11.4628315,18.787857,-76.32599,
11003,,,,0.10891276,0.4383338,0.30087876,,,,
11017,-0.06348054,0.41166285,11.550797,,,,12.079058,19.653854,-78.17786,
11019,,,,,,,,,,664.0
11023,,,,-0.0024072751,0.3126327,0.16452502,,,,
11037,-0.38207918,-0.06264192,11.840651,,,,12.232626,19.225544,-77.39525,
11043,,,,-0.20853576,-0.02292529,-0.03787504,,,,
11057,-0.80847436,-0.4555004,12.446707,,,,12.076487,20.411747,-76.79382,
11063,,,,-0.2639295,-0.14543058,-0.14173825,,,,
11070,,,,,,,,,,601.0
11077,-0.94741213,-0.58006525,11.799927,,,,11.771811,19.209274,-78.02559,
11083,,,,-0.074845195,-0.081514776,-0.025624514,,,,
11097,-0.7893106,-0.21116155,10.408154,,,,12.384905,20.116964,-77.09227,
11103,,,,0.10838013,0.032468412,0.14428501,,,,
11117,-0.41801137,0.081086814,9.505059,,,,11.617796,18.341017,-76.78125,
11120,,,,,,,,,,546.0
11123,,,,0.10092329,0.081470534,0.24069135,,,,
11137,,,,,,,12.3836155,21.436699,-77.57187,
11138,0.073061705,0.011617929,9.315816,,,,,,,
11144,,,,-0.01305991,-0.03251266,0.21725556,,,,
11157,,,,,,,12.540586,19.515766,-78.01001,
11158,0.5042479,-0.28542146,9.296652,,,,,,,
11164,,,,-0.107335724,-0.19230218,0.08942394,,,,
11170,,,,,,,,,,498.0
11177,,,,,,,11.307356,20.109888,-76.49992,
11178,0.34854174,-0.4794552,9.097828,,,,,,,
11184,,,,-0.148881,-0.16460533,-0.09380139,,,,
11197,,,,,,,13.306391,20.874966,-76.613815,
11198,-0.346147,-0.24469826,8.956493,,,,,,,
11204,,,,-0.17391469,0.055371575,-0.16304351,,,,
11217,,,,,,,12.844347,21.888245,-77.41087,
11218,-0.77733314,0.033177227,8.851093,,,,,,,
11220,,,,,,,,,,447.0
11224,,,,-0.11745573,0.3445906,-0.05332136,,,,
11237,,,,,,,12.536955,21.300888,-76.94742,
11238,-0.8324291,0.30147082,8.537286,,,,,,,
11244,,,,0.031681154,0.48946646,0.09315237,,,,
11257,,,,,,,14.841555,23.111765,-76.44678,
11258,-0.6719321,0.51945937,8.290551,,,,,,,
11264,,,,0.2031886,0.3126327,0.1879608,,,,
11270,,,,,,,,,,396.0
11277,,,,,,,14.076506,21.453114,-78.149,
11278,-0.17127708,0.51945937,7.6509585,,,,,,,
11284,,,,0.34806442,-0.08311268,0.18689555,,,,
11297,,,,,,,15.151178,21.06429,-75.64154,
11298,-0.111390114,0.87159467,7.243727,,,,,,,
11304,,,,0.36084756,-0.36753806,0.08835868,,,,
11317,,,,,,,13.307608,20.858753,-77.69696,
11318,-0.046712205,1.1901934,7.145512,,,,,,,
11320,,,,,,,,,,357.0
11324,,,,0.27988753,-0.31534013,0.05640078,,,,
11337,,,,,,,12.689009,22.48481,-76.8026,
11338,0.26230454,1.1877979,7.387456,,,,,,,
11344,,,,0.1515233,-0.08471057,0.07397762,,,,
11357,,,,,,,13.923513,21.58429,-79.08292,
11358,0.33416885,1.0608375,8.25462,,,,,,,
11364,,,,0.030615892,0.06016526,0.019116554,,,,
11370,,,,,,,,,,322.0
11377,,,,,,,12.385721,20.395569,-78.17882,
11379,0.017965704,0.8835721,9.030754,,,,,,,
11385,,,,0.038072735,0.08306843,-0.08527928,,,,
11397,,,,,,,12.8469715,20.840168,-78.482025,
11399,-0.3701018,0.9218998,8.702574,,,,,,,
11405,,,,0.13075067,0.09744949,-0.14812984,,,,
11417,,,,,,,13.772993,19.656372,-79.683395,
11419,-0.61444056,0.99855506,8.355229,,,,,,,
11421,,,,,,,,,,285.0
11425,,,,0.07855275,0.25404322,-0.13268352,,,,
11437,,,,,,,12.077703,20.395533,-77.87695,
11439,-0.77972865,0.81649864,9.495477,,,,,,,
11445,,,,-0.18137154,0.32435063,-0.10658454,,,,
11457,,,,,,,14.077028,21.446163,-78.61322,
11459,-1.0456268,0.48113173,11.289691,,,,,,,
11465,,,,-0.28576738,0.196519,-0.1577172,,,,
11471,,,,,,,,,,253.0
11477,,,,,,,14.076624,21.740982,-78.61664,
11479,-1.5007676,0.5050865,11.809509,,,,,,,
11485,,,,-0.05407256,-0.06447057,-0.20831722,,,,
11497,,,,,,,13.615145,21.588886,-78.47159,
11499,-1.2636154,0.33261204,10.978278,,,,,,,
11505,,,,0.20691702,-0.32119906,-0.1577172,,,,
11517,,,,,,,14.847021,21.73644,-79.680756,
11519,-0.8491975,0.20565169,10.671657,,,,,,,
11521,,,,,,,,,,223.0
11525,,,,0.12648962,-0.41813806,-0.11776981,,,,
11537,,,,,,,15.767927,21.923338,-77.95761,
11539,-0.7485874,0.21044263,11.876583,,,,,,,
11545,,,,-0.14621784,-0.30575275,-0.06503927,,,,
11557,,,,,,,13.770052,21.43223,-79.23973,
11559,-0.235955,0.15534665,12.664695,,,,,,,
11565,,,,-0.20960101,-0.12519057,0.11658817,,,,
11571,,,,,,,,,,199.0
11577,,,,,,,13.306063,22.616081,-78.491165,
11579,1.0552078,0.19846526,12.350888,,,,,,,
11585,,,,-0.107335724,0.067089476,0.31366193,,,,
11597,,,,,,,12.846125,22.58823,-79.89517,
11600,2.2481563,-0.13450626,11.902933,,,,,,,
11606,,,,-0.148881,0.16988742,0.22364713,,,,
11617,,,,,,,14.537016,23.065403,-79.23958,
11620,1.7451057,-0.42196366,12.518571,,,,,,,
11621,,,,,,,,,,169.0
11626,,,,-0.26819053,0.25297794,-0.1827509,,,,
11637,,,,,,,13.461092,22.747293,-79.726944,
11640,-0.20720926,-0.31656262,12.691045,,,,,,,
11646,,,,-0.18137154,0.26150006,-0.52949417,,,,
11657,,,,,,,14.690882,22.922646,-79.07933,
11660,-1.5917959,0.17211498,11.565171,,,,,,,
11666,,,,0.1280875,0.1949211,-0.46025202,,,,
11671,,,,,,,,,,144.0
11677,,,,,,,14.536669,23.070034,-78.9301,
11680,-1.512745,0.6775609,9.730234,,,,,,,
11686,,,,0.3683044,0.081470534,-0.101258226,,,,
11697,,,,,,,13.919996,23.657282,-78.487946,
11700,-0.34135604,1.063233,8.403139,,,,,,,
11706,,,,0.33741176,-0.017598972,0.18423238,,,,
11717,,,,,,,14.68804,23.24989,-76.91649,
11720,1.0911402,1.063233,8.146823,,,,,,,
11721,,,,,,,,,,127.0
11726,,,,0.085476965,-0.038904242,0.2145924,,,,
11737,,,,,,,15.768084,22.934353,-79.36221,
11740,1.8960209,0.6919338,8.271388,,,,,,,
11746,,,,-0.2293084,-0.035175823,-0.031483464,,,,
11757,,,,,,,15.614737,23.070164,-79.98665,
11760,1.3187104,0.39728996,8.381579,,,,,,,
11766,,,,-0.49988532,0.017554725,-0.42350042,,,,
11772,,,,,,,,,,109.0
11777,,,,,,,14.382616,24.228443,-80.18547,
11780,-0.11857656,0.337403,8.546867,,,,,,,
11786,,,,-0.60854226,0.19864954,-0.66478264,,,,
11797,,,,,,,12.996149,24.378002,-78.67406,
11800,-1.3426661,0.30865726,9.013986,,,,,,,
11806,,,,-0.5329085,0.32328534,-0.591812,,,,
11817,,,,,,,14.53536,25.403101,-80.65958,
11820,-1.9511176,0.33500752,9.277489,,,,,,,
11822,,,,,,,,,,89.0
11826,,,,-0.29908317,0.206639,-0.31644142,,,,
11837,,,,,,,13.764727,24.831903,-78.66019,
11841,-1.6492873,0.5002955,8.879839,,,,,,,
11847,,,,-0.011462016,-0.15182216,-0.035211883,,,,
11857,,,,,,,14.995543,26.00669,-80.19083,
11861,-0.64318633,0.7637982,8.029445,,,,,,,
11867,,,,0.17708965,-0.4117465,0.1693187,,,,
11872,,,,,,,,,,78.0
11877,,,,,,,15.150167,26.432722,-81.43002,
11881,0.2718864,1.168634,8.051003,,,,,,,
11887,,,,0.18348122,-0.30788326,0.28756297,,,,
11897,,,,,,,15.150167,26.432722,-81.43002,
11901,0.7126545,1.3051764,8.494166,,,,,,,
11907,,,,0.19040543,-0.060742144,0.26252928,,,,
11917,,,,,,,14.072844,26.133142,-80.679535,
11921,0.59048504,1.4009955,8.578009,,,,,,,
11922,,,,,,,,,,73.0
11927,,,,0.21064544,-0.028784238,0.10327237,,,,
11937,,,,,,,13.612024,25.248634,-80.21646,
11941,0.46352476,1.4321368,8.678618,,,,,,,
11947,,,,0.15099068,-0.1944327,-0.025091883,,,,
11957,,,,,,,14.998114,25.248798,-81.57486,
11961,0.33656436,1.3219447,9.215206,,,,,,,
11967,,,,0.02688747,-0.1992264,-0.07942033,,,,
11977,,,,,,,12.229063,25.206776,-81.64325,
11981,0.17606732,0.94345903,10.242866,,,,,,,
11987,,,,-0.07218204,-0.03783898,-0.0975298,,,,
11997,,,,,,,12.536982,23.90561,-80.227646,
12001,-0.32219222,0.47634077,10.973487,,,,,,,
12007,,,,-0.033299915,0.1310053,-0.1358793,,,,
12017,,,,,,,14.072306,27.153425,-81.46518,
12021,-1.071977,0.36854422,11.165126,,,,,,,
12022,,,,,,,,,,66.0
12027,,,,0.06736749,0.10703686,-0.12682456,,,,
12037,,,,,,,13.611776,26.554468,-81.62445,
12041,-1.081559,0.10025062,11.0884695,,,,,,,
12047,,,,0.19413385,-0.08790636,0.007931286,,,,
12057,,,,,,,13.30567,26.528954,-83.02466,
12062,-0.7725422,-0.031500697,10.8704815,,,,,,,
12068,,,,0.28255072,-0.24929379,0.15547027,,,,
12077,,,,,,,12.534979,26.24794,-81.338165,
12082,-0.7941015,0.337403,10.815386,,,,,,,
12088,,,,0.28148544,-0.21147692,0.23856083,,,,
12097,,,,,,,14.538004,26.091503,-83.91753,
12102,-0.5449717,0.60090566,10.578233,,,,,,,
12108,,,,0.217037,0.026609464,0.36479458,,,,
12117,,,,,,,13.307482,25.20227,-83.00925,
12122,0.14971703,0.9218998,10.851317,,,,,,,
12123,,,,,,,,,,61.0
12128,,,,0.06683486,0.1997148,0.48889777,,,,
12137,,,,,,,13.921015,26.538292,-83.00946,
12142,1.1079085,0.71109766,11.517261,,,,,,,
12148,,,,-0.115325205,0.13633162,0.42178616,,,,
12157,,,,,,,13.4615,26.07053,-84.253586,
12162,1.5678403,-0.077014774,11.934073,,,,,,,
12168,,,,-0.25167894,-0.017598972,0.12191448,,,,
12177,,,,,,,14.381166,27.286972,-82.69716,
12182,0.17846277,-0.53934216,12.073011,,,,,,,
12188,,,,-0.38483688,-0.050089512,-0.32656142,,,,
12197,,,,,,,12.382681,26.369852,-82.89101,
12202,-1.7906204,-0.79565835,12.417961,,,,,,,
12208,,,,-0.34275898,0.114493705,-0.46238253,,,,
12217,,,,,,,12.843969,27.537598,-84.13118,
12222,-2.4110496,-0.75253975,12.003543,,,,,,,
12228,,,,-0.10413994,0.09105791,-0.1577172,,,,
12237,,,,,,,14.692125,25.51115,-83.44267,
12242,-1.6636603,-0.5489241,11.239386,,,,,,,
12248,,,,0.156317,-0.07991689,0.19595028,,,,
12257,,,,,,,13.458319,26.402409,-81.78128,
12262,-0.45154807,-0.46987328,10.377013,,,,,,,
12268,,,,0.27775702,-0.19283481,0.3243146,,,,
12277,,,,,,,13.765448,27.427359,-82.55934,
12283,0.5210162,-0.36926314,9.224788,,,,,,,
12289,,,,0.22822228,-0.22905377,0.20766819,,,,
12297,,,,,,,14.073988,27.420446,-83.32541,
12303,0.6695359,-0.39800885,8.762461,,,,,,,
12309,,,,0.009843254,-0.16460533,-0.04852768,,,,
12317,,,,,,,11.767015,26.220055,-82.44029,
12323,0.154508,-0.5561105,9.018777,,,,,,,
12329,,,,-0.18669786,-0.060742144,-0.25518876,,,,
12337,,,,,,,13.613554,27.254454,-84.108765,
12343,-0.4946667,-0.47226873,8.867862,,,,,,,
12349,,,,-0.22664523,0.08306843,-0.31111512,,,,
12357,,,,,,,11.304823,27.090555,-82.92616,
12363,-1.0480223,-0.16085654,8.292947,,,,,,,
12369,,,,-0.15793574,0.29665375,-0.20032774,,,,
12377,,,,,,,13.61315,27.54927,-84.11218,
12383,-1.1127001,0.25356126,7.9839296,,,,,,,
12389,,,,-0.07644309,0.42395276,0.011659708,,,,
12397,,,,,,,11.304888,27.66861,-83.70668,
12403,-0.4802938,0.53383225,7.928834,,,,,,,
12409,,,,0.016767468,0.31636116,0.18742818,,,,
12417,,,,,,,12.536001,27.247375,-83.51642,
12423,0.24074522,0.8452444,7.5503483,,,,,,,65.0
12429,,,,0.07748749,0.0473821,0.20553765,,,,
12437,,,,,,,12.844164,26.52195,-83.03606,
12443,0.44436085,1.178216,7.43297,,,,,,,
12449,,,,0.071095906,-0.08098215,0.1256429,,,,
12457,,,,,,,13.611395,28.585768,-83.8147,
12463,0.3557282,1.2524759,7.7563596,,,,,,,
12469,,,,0.04819274,-0.065003194,0.053737618,,,,
12477,,,,,,,12.997484,27.399471,-83.66145,
12483,0.053897917,1.1398883,8.230664,,,,,,,
12489,,,,0.05405169,-0.039436877,0.011659708,,,,
12497,,,,,,,14.689116,28.590528,-84.56177,
12503,-0.22397761,1.1350974,8.678618,,,,,,,
12509,,,,0.089205384,-0.093232684,0.007931286,,,,
12517,,,,,,,13.459288,27.692028,-84.272415,
12524,-0.07066698,1.1758205,9.172088,,,,,,,
12530,,,,0.13607699,-0.19656323,0.036160767,,,,
12537,,,,,,,12.229433,26.938623,-84.13953,
12544,0.46831566,0.99376416,9.313421,,,,,,,
12550,,,,0.17708965,-0.2743275,0.005800759,,,,
12557,,,,,,,11.461378,26.477776,-84.617584,
12564,0.87794244,0.7039112,9.46194,,,,,,,
12570,,,,0.15951279,-0.24077167,-0.13161825,,,,
12574,,,,,,,,,,70.0
12577,,,,,,,12.383356,27.37392,-84.759796,
12584,0.544971,0.39489448,10.206934,,,,,,,
12590,,,,0.07056327,-0.18697587,-0.3244309,,,,
12597,,,,,,,12.231619,28.21203,-87.713806,
12604,-0.40842944,0.23439743,10.695612,,,,,,,
12610,,,,0.04766011,-0.18111691,-0.4480015,,,,
12617,,,,,,,12.077658,27.053587,-86.15657,
12624,-0.69109595,0.15534665,10.829759,,,,,,,
12630,,,,0.10518434,-0.17206217,-0.36011726,,,,
12637,,,,,,,9.462698,26.576303,-85.906555,
12644,-0.25990978,0.227211,11.387905,,,,,,,
12650,,,,0.091335915,-0.14969164,-0.19659932,,,,
12657,,,,,,,9.46138,28.041128,-86.54262,
12664,0.2503271,0.447595,12.061035,,,,,,,
12670,,,,0.11051066,-0.10335268,-0.13374877,,,,
12677,,,,,,,10.384626,27.762634,-86.36165,
12684,0.92824745,0.43322214,11.304063,,,,,,,
12690,,,,0.16590437,-0.11666848,-0.18754458,,,,
12697,,,,,,,9.309584,26.419611,-86.37283,
12704,1.1174904,0.61288303,10.693215,,,,,,,
12710,,,,0.0029190425,0.010630512,-0.34413826,,,,
12717,,,,,,,10.078569,27.446934,-87.44896,
12724,0.91866565,0.18888333,11.330414,,,,,,,
12730,,,,-0.34915054,0.21462847,-0.49327517,,,,
12737,,,,,,,9.308632,26.86647,-86.06851,
12745,0.23116332,-0.6471387,12.525757,,,,,,,
12751,,,,-0.57179064,0.33020955,-0.591812,,,,
12757,,,,,,,8.999393,26.882648,-84.68352,
12765,-0.64558184,-0.88429093,13.172537,,,,,,,
12771,,,,-0.4407632,0.30996954,-0.5944752,,,,
12774,,,,,,,,,,76.0
12777,,,,,,,9.307772,27.746292,-86.388245,
12785,-1.0264629,-0.8675227,12.350888,,,,,,,
12791,,,,-0.052474663,0.19119269,-0.43681622,,,,
12797,,,,,,,10.381708,28.52516,-84.66815,
12805,-0.791706,-0.5082009,10.803408,,,,,,,
12811,,,,0.24579912,0.022348411,-0.20831722,,,,
12817,,,,,,,9.61322,28.504221,-85.306076,
12825,0.16408992,-0.103365034,9.5362,,,,,,,
12831,,,,0.26657173,-0.10495058,-0.016037142,,,,
12837,,,,,,,11.000608,28.052893,-87.27829,
12845,1.2396598,0.035572723,9.138551,,,,,,,
12851,,,,0.048725374,-0.10068952,-0.0016560858,,,,
12857,,,,,,,9.307634,28.471756,-87.17047,
12865,1.5702357,0.07869133,9.356539,,,,,,,
12871,,,,-0.18350206,0.03459894,-0.1678372,,,,
12877,,,,,,,9.153553,27.025444,-85.14563,
12885,0.91627014,-3.594756E-4,9.581714,,,,,,,
12891,,,,-0.27032104,0.20876953,-0.38408566,,,,
12897,,,,,,,7.1526566,28.745472,-86.45343,
12905,-0.17127708,-0.026709706,9.964991,,,,,,,
12911,,,,-0.18563259,0.3190243,-0.48102465,,,,
12917,,,,,,,9.30682,28.193153,-86.08391,
12925,-0.8707568,0.07629584,9.670347,,,,,,,
12931,,,,0.027420104,0.24445586,-0.41071725,,,,
12937,,,,,,,9.151337,28.646942,-85.16446,
12945,-1.1965418,0.42843118,9.093037,,,,,,,
12951,,,,0.23567913,0.12940739,-0.25625405,,,,
12957,,,,,,,8.845686,28.036423,-86.24834,
12965,-0.846802,0.81410325,8.2115,,,,,,,
12971,,,,0.39440337,0.10330844,-0.045331888,,,,
12975,,,,,,,,,,82.0
12977,,,,,,,8.691212,27.753168,-85.32031,
12986,-0.089830816,1.1614476,7.23175,,,,,,,
12992,,,,0.41251284,0.06868737,0.07983657,,,,
12997,,,,,,,9.308523,27.446842,-86.69429,
13006,0.25990906,1.5135831,6.9562697,,,,,,,
13012,,,,0.23780966,-0.027718974,0.0702492,,,,
13017,,,,,,,7.3093395,26.538986,-86.26921,
13026,0.36291462,1.5447241,7.3587103,,,,,,,
13032,,,,0.052986424,-0.072992675,0.03882393,,,,
13037,,,,,,,9.616386,26.435862,-85.59157,
13046,0.3102141,1.504001,7.88332,,,,,,,
13052,,,,-0.0018746434,-0.021327393,0.0073986542,,,,
13057,,,,,,,6.539427,25.81343,-84.732315,
13066,0.15211254,1.4944191,8.70976,,,,,,,
13072,,,,0.06363907,-0.0026852824,-0.019232932,,,,
13077,,,,,,,5.924467,26.522608,-85.99394,
13086,0.24074522,1.4513005,8.970867,,,,,,,
13092,,,,0.21970017,-0.12252743,-0.03627715,,,,
13097,,,,,,,7.1545258,27.128605,-86.12512,
13106,0.49466592,1.3866227,8.829534,,,,,,,
13112,,,,0.27030018,-0.286578,-0.09966033,,,,
13117,,,,,,,8.846228,27.016142,-85.46269,
13125,,,,,,,,,,77.0
13126,0.45394284,1.1039561,9.126573,,,,,,,
13132,,,,0.15205595,-0.2514243,-0.16464141,,,,
13137,,,,,,,8.23535,24.48695,-86.37718,
13146,0.10899392,0.6607926,10.151838,,,,,,,
13152,,,,-0.022114651,-0.108679,-0.19766457,,,,
13157,,,,,,,8.388163,26.239664,-87.63179,
13166,-0.50664407,0.30626178,11.191476,,,,,,,
13172,,,,0.0045169373,0.07507896,-0.1428035,,,,
13177,,,,,,,7.7699776,26.557571,-85.484146,
13186,-0.4922712,0.14097376,11.3855095,,,,,,,
13192,,,,0.23834229,0.13899477,0.011659708,,,,
13197,,,,,,,5.930666,23.111353,-87.34717,
13207,0.022756696,0.24397933,10.726753,,,,,,,
13213,,,,0.41570863,0.007434721,0.09901132,,,,
13217,,,,,,,6.0796223,25.060116,-85.35408,
13226,,,,,,,,,,71.0
13227,-0.235955,0.9626229,10.285985,,,,,,,
13233,,,,0.34114018,-0.078851625,0.06652078,,,,
13237,,,,,,,5.92931,23.853031,-87.046265,
13247,-0.3701018,1.4369277,10.075183,,,,,,,
13253,,,,0.11423908,0.07135054,0.14108922,,,,
13257,,,,,,,6.850773,24.756126,-86.72427,
13267,0.43956995,1.3914136,10.535115,,,,,,,
13273,,,,-0.17604521,0.2641632,0.27158403,,,,
13277,,,,,,,7.6193943,24.0516,-85.30411,
13287,1.7786424,0.54820514,11.555589,,,,,,,
13293,,,,-0.43011057,0.29612112,0.16186185,,,,
13297,,,,,,,7.6193943,24.0516,-85.30411,
13307,2.2433653,-0.5153874,12.54013,,,,,,,
13313,,,,-0.57232326,0.14698425,-0.23974249,,,,
13317,,,,,,,5.4642773,25.050777,-85.36928,
13326,,,,,,,,,,64.0
13327,0.8468013,-1.1238389,12.909034,,,,,,,
13333,,,,-0.56539905,0.052708417,-0.69247943,,,,
13337,,,,,,,7.003134,25.212269,-85.951935,
13347,-0.8491975,-1.1358162,12.626368,,,,,,,
13353,,,,-0.3954895,0.16402848,-0.80166894,,,,
13357,,,,,,,6.07856,26.087349,-85.67554,
13367,-1.5750275,-0.9058503,11.991566,,,,,,,
13373,,,,-0.19308944,0.22741166,-0.51511306,,,,
13377,,,,,,,6.6935844,25.956226,-85.19443,
13387,-0.79889244,-0.9010594,11.6298485,,,,,,,
13393,,,,-0.016255701,0.017554725,-0.09113822,,,,
13397,,,,,,,5.46665,24.440296,-86.755035,
13407,1.0192758,-1.0447881,11.1675205,,,,,,,
13413,,,,0.11583698,-0.3536896,0.074510254,,,,
13417,,,,,,,5.9245415,25.21909,-84.4312,
13426,,,,,,,,,,57.0
13427,1.931953,-1.1837258,10.405759,,,,,,,
13433,,,,0.16856754,-0.44370437,-0.15185826,,,,
13437,,,,,,,5.3111286,24.170938,-84.898605,
13448,1.4839987,-1.0352061,9.723048,,,,,,,
13454,,,,0.0961296,-0.19336745,-0.46717623,,,,
13457,,,,,,,4.2338276,25.607841,-86.33493,
13468,0.6575585,-0.93220055,9.696697,,,,,,,
13474,,,,-0.032767285,0.10171054,-0.62163943,,,,
13477,,,,,,,3.926632,24.004833,-84.77637,
13488,0.29823667,-0.92740965,10.09195,,,,,,,
13494,,,,-0.013592543,0.24552111,-0.5832899,,,,
13497,,,,,,,5.3108177,24.89872,-85.52611,
13508,0.36291462,-0.74295783,9.6751375,,,,,,,
13514,,,,0.22982019,0.22794427,-0.5140478,,,,
13517,,,,,,,4.6949425,24.028088,-83.9837,
13526,,,,,,,,,,52.0
13528,0.59288055,-0.39082244,8.772043,,,,,,,
13534,,,,0.46258023,0.1310053,-0.5039278,,,,
13537,,,,,,,4.696718,24.728073,-86.46799,
13548,1.2444508,-0.23032543,7.7563596,,,,,,,
13554,,,,0.50412554,-0.05275267,-0.53695095,,,,
13557,,,,,,,4.2350807,23.56496,-84.918365,
13568,1.601377,0.04515463,7.2748685,,,,,,,
13574,,,,0.32303074,-0.24396746,-0.66052157,,,,
13577,,,,,,,3.3126984,22.96363,-84.77959,
13588,1.7906199,0.093064204,7.8378057,,,,,,,
13594,,,,0.13394646,-0.28018644,-0.7633195,,,,
13597,,,,,,,3.1630173,21.169228,-86.310165,
13608,2.0277722,-0.053059995,7.9863253,,,,,,,
13614,,,,0.1110433,-0.18697587,-0.82350683,,,,
13617,,,,,,,2.5445595,22.93806,-85.726974,
13628,1.9439304,0.1481602,7.7946873,,,,,,,
13634,,,,0.06470433,-0.06447057,-0.9364248,,,,
13637,,,,,,,1.929985,21.61594,-84.79837,
13649,1.4193206,0.39010352,8.369602,,,,,,,
13655,,,,-0.099878885,0.012228407,-1.072246,,,,
13657,,,,,,,1.6226349,21.751732,-85.27188,
13669,1.2899649,0.337403,9.574528,,,,,,,
13675,,,,-0.08762835,0.036729466,-1.127107,,,,
13677,,,,,,,2.3924637,20.16275,-83.841446,47.0
13689,1.6876142,0.282307,10.223702,,,,,,,
13695,,,,0.22715703,-0.04689372,-1.1505429,,,,
13697,,,,,,,2.5444584,21.63686,-84.00951,
13709,2.116405,0.22481552,8.860675,,,,,,,
13715,,,,0.49986446,-0.4053549,-1.3268439,,,,
13717,,,,,,,1.4682045,20.310051,-82.93756,
13729,1.8265519,0.40687189,8.015072,,,,,,,
13735,,,,0.29852965,-0.72386867,-1.6128672,,,,
13737,,,,,,,1.1624088,19.556755,-83.710266,
13749,1.4217161,-0.0027549267,9.327794,,,,,,,
13755,,,,-0.15846837,-0.64610445,-1.789701,,,,
13757,,,,,,,-1.450407,18.76149,-85.00415,
13769,0.88752437,-0.63037026,10.798616,,,,,,,
13775,,,,-0.37684742,-0.36380962,-1.8296484,,,,
13777,,,,,,,-1.915348,20.3922,-83.95125,43.0
13789,0.19044018,-0.6471387,11.917306,,,,,,,
13795,,,,-0.3049421,-0.1608769,-1.7636019,,,,
13797,,,,,,,-4.2237873,20.513855,-83.39102,
13809,0.43956995,-0.9034549,12.307769,,,,,,,
13815,,,,0.0045169373,-0.09270005,-1.5990187,,,,
13817,,,,,,,-2.6847115,19.514603,-82.72211,
13829,0.65995395,-0.58246076,11.71369,,,,,,,
13835,,,,0.29160544,-0.20188956,-1.5857029,,,,
13837,,,,,,,-2.6835575,18.920334,-83.024734,
13849,0.655163,0.23439743,11.098052,,,,,,,
13855,,,,0.39174023,-0.33185172,-1.6197914,,,,
13857,,,,,,,-3.7594585,18.457132,-83.35567,
13870,1.6948006,0.38052163,10.336289,,,,,,,
13876,,,,0.28148544,-0.36380962,-1.5244503,,,,
13877,,,,,,,-4.068651,20.064697,-84.00102,
13878,,,,,,,,,,39.0
13890,3.117715,-0.22313896,9.85959,,,,,,,
13896,,,,-0.059931505,-0.26740324,-1.6389661,,,,
13897,,,,,,,-2.989729,18.316763,-83.644424,
13910,3.177602,-1.3609912,10.721962,,,,,,,
13916,,,,-0.49882007,-0.09909163,-2.086377,,,,
13917,,,,,,,-4.06604,17.28014,-82.88536,
13930,1.1653999,-2.1802452,12.578458,,,,,,,
13936,,,,-0.67884964,0.063361056,-2.5364506,,,,
13937,,,,,,,-4.990879,17.724573,-81.83017,
13950,-0.8683613,-2.0293298,13.237215,,,,,,,
13956,,,,-0.3784453,0.08306843,-2.541777,,,,
13957,,,,,,,-5.6059036,17.855696,-82.311264,
13970,-1.5534681,-1.3274544,11.802322,,,,,,,
13976,,,,0.17975278,0.021815779,-2.1449661,,,,
13977,,,,,,,-6.8364086,15.953129,-80.15314,
13990,-1.1294684,-0.28063044,9.481104,,,,,,,
13996,,,,0.51584345,0.01329367,-1.6384335,,,,
13997,,,,,,,-5.9108906,16.512762,-83.07713,
14010,0.22876784,0.7063067,8.079749,,,,,,,
14016,,,,0.3629781,-0.013870549,-1.2346987,,,,
14017,,,,,,,-3.6033802,16.692875,-83.176575,
14030,1.8145747,0.842849,7.947998,,,,,,,
14036,,,,-0.011462016,-0.0532853,-1.1255091,,,,
14037,,,,,,,-5.447405,14.322527,-82.11165,
14050,2.432608,0.3709397,8.268992,,,,,,,
14056,,,,-0.28896317,-0.09909163,-1.4030102,,,,
14057,,,,,,,-7.753703,14.126202,-83.09532,
14070,1.1318632,0.0595275,9.0547085,,,,,,,
14076,,,,-0.42904532,-0.19656323,-1.8632041,,,,
14077,,,,,,,-5.2924824,13.15254,-81.629944,
14091,-0.796497,0.22002456,9.5362,,,,,,,
14097,,,,-0.40294635,-0.36487487,-2.0837138,-6.5241966,14.884241,-82.91876,
14111,-1.7235471,0.5410187,8.839116,,,,,,,
14117,,,,-0.25008103,-0.49536967,-1.901021,-7.600993,14.577715,-82.63246,
14131,-1.7211516,0.82368517,8.302529,,,,,,,
14137,,,,-0.17284943,-0.45488966,-1.5441577,-6.678068,14.158758,-81.985596,
14151,-0.7509829,0.9626229,8.6977825,,,,,,,
14157,,,,-0.21386208,-0.39097384,-1.197947,-6.368922,13.7096195,-82.74652,
14171,0.34375083,1.0320917,9.36133,,,,,,,
14177,,,,-0.23143892,-0.42133385,-1.0408207,-5.9065247,12.691708,-82.25894,
14178,,,,,,,,,,37.0
14191,0.6767223,1.1758205,9.847611,,,,,,,
14197,,,,-0.09242204,-0.36274436,-1.0717133,-7.139448,12.55805,-80.12135,
14211,0.600067,1.2452893,9.519432,,,,,,,
14217,,,,0.16963279,-0.20082428,-1.1409554,-8.215394,13.253275,-81.8586,
14231,0.1880447,1.5303513,8.498958,,,,,,,
14237,,,,0.2905402,-0.047426354,-1.1798376,-8.982158,11.472694,-81.85704,
14251,-0.24074596,1.908837,8.386371,,,,,,,
14257,,,,0.14992541,0.033533674,-1.0994102,-8.369817,12.679834,-80.617676,
14271,-0.17846352,2.0861022,8.98524,,,,,,,
14277,,,,-0.014125174,0.045251574,-0.9348269,-7.444584,11.072342,-80.57605,
14291,0.12336677,2.0956843,9.473918,,,,,,,
14297,,,,-0.05194203,0.051643156,-0.8394858,-6.9829206,12.090361,-81.96922,
14311,0.101807475,2.0262153,9.7278385,,,,,,,
14317,,,,-0.0849652,0.015424198,-0.8442795,-7.754133,11.816299,-79.81854,
14332,-0.13534491,1.5782609,10.743521,,,,,,,
14337,,,,,,,-7.4437695,11.3509445,-81.6626,
14338,,,,-0.17711048,-0.088438995,-0.83842057,,,,
14352,-0.34854248,0.9674139,11.766391,,,,,,,
14357,,,,,,,-6.832032,13.000315,-80.42836,
14358,,,,-0.18350206,-0.2610117,-0.7835595,,,,
14372,-0.51143503,0.5146684,12.384424,,,,,,,
14377,,,,,,,-8.060588,11.795416,-80.909256,
14378,,,,0.018897995,-0.31054646,-0.66478264,,,,
14392,-0.6192316,0.7494253,12.022707,,,,,,,
14397,,,,,,,-8.06068,11.362453,-80.2852,
14398,,,,0.3699023,-0.1757906,-0.47143728,,,,
14412,-0.1688816,1.1255155,11.122006,,,,,,,
14417,,,,,,,-8.058309,10.751972,-81.670944,
14418,,,,0.57975924,-0.013337918,-0.25465617,,,,
14432,0.35812366,1.3938091,10.106324,,,,,,,
14437,,,,,,,-6.982728,11.074713,-80.8741,
14438,,,,0.512115,0.054838944,-0.1428035,,,,
14452,1.0312531,1.6621027,9.878754,,,,,,,
14457,,,,,,,-8.059929,11.063004,-80.59125,
14458,,,,0.2117107,0.005304194,-0.16730458,,,,
14472,1.606168,1.2524759,10.456064,,,,,,,
14477,,,,,,,-6.5232162,11.542475,-79.629974,
14478,,,,-0.18350206,-0.13424532,-0.32549617,,,,
14492,1.666055,0.39249903,11.0884695,,,,,,,
14497,,,,,,,-6.8308334,11.24762,-79.32469,
14498,,,,-0.433839,-0.16673586,-0.5960731,,,,
14512,0.6359992,-0.14408818,11.869396,,,,,,,
14517,,,,,,,-6.674205,9.331322,-79.45337,
14518,,,,-0.58350855,-0.060742144,-0.86505216,,,,
14532,-0.37249726,-0.13929722,12.655113,,,,,,,
14537,,,,,,,-7.752467,10.346842,-79.49196,
14538,,,,-0.60108536,0.029805256,-0.83575743,,,,
14552,-0.6359999,-0.12252888,12.4419155,,,,,,,
14557,,,,,,,-6.3672657,11.37192,-81.32654,
14558,,,,-0.33849794,0.12621161,-0.53695095,,,,
14573,-0.13055395,-0.103365034,11.296877,,,,,,,
14577,,,,,,,-6.830018,11.526224,-80.41124,
14579,,,,0.024756946,0.15763688,-0.19233826,,,,
14593,0.21918592,0.10025062,10.245262,,,,,,,
14597,,,,,,,-7.755232,12.12038,-79.20303,
14599,,,,0.23408124,0.0841337,-0.102856115,,,,
14613,0.27907288,0.12899637,9.73263,,,,,,,
14617,,,,,,,-6.5218887,10.94589,-80.087326,
14619,,,,0.35339075,-0.021327393,-0.18488142,,,,
14630,,,,,,,,,,39.0
14633,0.44436085,0.16971952,8.951704,,,,,,,
14637,,,,,,,-9.2918625,11.205633,-79.69495,
14639,,,,0.37895706,-0.22692324,-0.26317826,,,,
14653,0.52820265,0.24637482,8.2354555,,,,,,,
14657,,,,,,,-6.5197277,9.614574,-80.38139,
14659,,,,0.20744964,-0.3446349,-0.3665088,,,,
14673,0.31979603,0.16253307,8.431885,,,,,,,
14677,,,,,,,-7.754691,11.1001,-78.41737,
14679,,,,-0.040756762,-0.2061506,-0.4352183,,,,
14693,0.051502436,0.16492856,8.65706,,,,,,,
14697,,,,,,,-8.213197,9.895292,-79.65294,
14699,,,,-0.16326205,0.05590421,-0.42509833,,,,
14713,-0.14253134,0.31105274,8.669037,,,,,,,
14717,,,,,,,-8.213197,9.895292,-79.65294,
14719,,,,-0.17178416,0.22687902,-0.3963362,,,,
14733,-0.22397761,0.44280407,8.903794,,,,,,,
14737,,,,,,,-7.140785,12.286396,-78.5706,
14739,,,,-0.14408731,0.17095268,-0.37023723,,,,
14753,-0.25272334,0.5362277,9.291861,,,,,,,
14757,,,,,,,-9.293218,11.947311,-79.39404,
14759,,,,-0.04874624,-0.019196866,-0.33668146,,,,
14773,-0.18804543,0.7134931,8.870256,,,,,,,
14777,,,,,,,-5.7565536,12.021854,-77.91406,
14779,,,,0.17868753,-0.12412532,-0.2876793,,,,
14794,-0.3054239,1.108747,7.813851,,,,,,,
14797,,,,,,,-6.9846973,11.390377,-79.48494,
14800,,,,0.3816202,-0.08790636,-0.2434709,,,,
14814,-0.31740126,1.5519106,6.752654,,,,,,,
14817,,,,,,,-6.8314276,12.558086,-80.42323,
14820,,,,0.35711917,0.029272621,-0.17742456,,,,
14834,-0.116181076,1.7100123,7.037716,,,,,,,
14837,,,,,,,-6.9843493,11.385744,-79.7944,
14840,,,,0.07748749,0.16083267,-0.10072559,,,,
14854,-0.022757411,1.6261705,8.654664,,,,,,,
14857,,,,,,,-6.831236,11.5424385,-79.32811,
14860,,,,-0.12970626,0.21090005,-0.091670856,,,,
14874,-0.180859,1.6094022,9.564946,,,,,,,
14877,,,,,,,-6.831236,11.5424385,-79.32811,
14880,,,,-0.020516755,0.095318966,-0.13215087,,,,
14894,-0.11857656,1.6070067,10.012901,,,,,,,
14897,,,,,,,-5.4467106,11.56345,-79.293915,
14900,,,,0.24792965,-0.2061506,-0.15452142,,,,
14914,0.6479766,1.3339221,9.921872,,,,,,,
14917,,,,,,,-6.523162,11.252289,-79.31709,
14920,,,,0.45246023,-0.5289254,-0.19553405,,,,
14934,1.1222814,0.99855506,9.540991,,,,,,,
14937,,,,,,,-6.371174,11.858156,-78.39174,
14940,,,,0.3693697,-0.58485174,-0.34413826,,,,
14954,0.61683536,1.0344872,10.650098,,,,,,,
14957,,,,,,,-7.140538,10.980562,-77.1626,
14960,,,,0.08867276,-0.29350224,-0.43788147,,,,
14974,0.25751355,0.90034044,11.790346,,,,,,,
14977,,,,,,,-8.369477,11.806961,-79.83374,
14980,,,,0.023159048,0.08519896,-0.3382793,,,,
14994,0.0059883296,0.55299604,11.047747,,,,,,,
14997,,,,,,,-7.754939,12.405937,-79.82539,
15000,,,,0.22555913,0.414898,-0.17529404,,,,
15014,-0.42519778,0.95064545,10.341081,,,,,,,
15017,,,,,,,-7.9090414,11.972956,-79.050385,
15020,,,,0.2521907,0.59279704,-0.055984523,,,,
15031,,,,,,,,,,42.0
15035,-0.02036193,1.2309165,11.397487,,,,,,,
15037,,,,,,,-6.061846,12.274942,-80.4008,
15041,,,,-0.0056030657,0.40957168,-0.020830829,,,,
15055,0.9569932,0.71828413,12.396401,,,,,,,
15057,,,,,,,-8.060396,10.779768,-79.81416,
15061,,,,-0.20747049,-0.13531058,-0.13960773,,,,
15075,1.5798178,0.33261204,12.417961,,,,,,,
15077,,,,,,,-7.755946,13.1429825,-79.833954,
15081,,,,-0.17870837,-0.51880544,-0.37076986,,,,
15095,1.2492416,-0.048269033,11.63943,,,,,,,
15097,,,,,,,-7.141884,12.590479,-77.95511,
15101,,,,-0.19948103,-0.48738018,-0.62856364,,,,
15115,-0.16648611,-0.40279987,11.617871,,,,,,,
15117,,,,,,,-9.141432,12.700588,-78.4704,
15121,,,,-0.38696742,-0.13637584,-0.83362687,,,,
15135,-1.357039,-0.42675462,12.147272,,,,,,,
15137,,,,,,,-7.6027784,13.009489,-79.05478,
15141,,,,-0.45674217,0.2082369,-0.74893844,,,,
15155,-1.297152,-0.36447218,12.061035,,,,,,,
15157,,,,,,,-9.755788,12.967539,-79.72688,
15161,,,,-0.23676524,0.2993169,-0.33295304,,,,
15175,-0.046712205,-0.19918418,11.0884695,,,,,,,
15177,,,,,,,-6.525111,13.304434,-80.114716,
15181,,,,0.10944539,0.013826301,0.11818606,,,,45.0
15195,1.0264621,0.25595674,9.605669,,,,,,,
15197,,,,,,,-8.682368,14.621595,-78.63599,
15201,,,,0.2772244,-0.38138646,0.251344,,,,
15215,1.4768121,0.8045213,8.510936,,,,,,,
15217,,,,,,,-7.9105606,13.585188,-79.68814,
15221,,,,0.21277596,-0.51134855,0.16452502,,,,
15235,1.7906199,1.0704194,6.932315,,,,,,,
15237,,,,,,,-9.4488945,13.416752,-79.5697,
15241,,,,0.03327905,-0.3286559,0.06172709,,,,
15255,1.6516821,1.233312,5.914237,,,,,,,
15257,,,,,,,-10.218367,13.119526,-78.96634,
15261,,,,-0.36086845,0.14272319,-0.08634454,,,,
15276,0.46831566,1.1758205,7.50723,,,,,,,
15277,,,,,,,-9.908781,13.098717,-80.66081,
15282,,,,-0.83224756,0.5677634,-0.24080774,,,,
15296,-0.53299433,0.8763857,9.1337595,,,,,,,
15297,,,,,,,-8.834209,14.158503,-79.87253,
15302,,,,-0.90202236,0.5427297,-0.2940709,,,,
15316,-1.0504177,0.7542163,9.790121,,,,,,,
15317,,,,,,,-10.990019,15.166946,-79.31877,
15322,,,,-0.58244324,0.20291059,-0.2727656,,,,
15336,-1.1246774,0.6488152,8.776834,,,,,,,
15337,,,,,,,-9.453334,15.791508,-78.51396,
15342,,,,-0.17604521,-0.22639062,-0.1880772,,,,
15356,-0.5976722,0.842849,7.914461,,,,,,,
15357,,,,,,,-8.991936,16.378885,-79.12834,
15362,,,,-0.01305991,-0.47992334,-0.01763504,,,,
15376,0.27667743,0.9674139,8.027049,,,,,,,
15377,,,,,,,-11.143416,15.592941,-80.2561,
15382,,,,-0.04288729,-0.38618013,0.1863629,,,,49.0
15396,0.820451,1.0560466,8.122869,,,,,,,
15397,,,,,,,-8.83712,15.789265,-79.27243,
15402,,,,-0.0716494,-0.078851625,0.2864977,,,,
15416,0.9474114,1.3938091,8.204314,,,,,,,
15417,,,,,,,-10.990129,15.747316,-79.94455,
15422,,,,-0.12917362,0.2417927,0.24122399,,,,
15436,0.36770558,1.4129729,9.088245,,,,,,,
15437,,,,,,,-11.148671,17.689096,-78.113815,
15442,,,,-0.20054628,0.41969168,0.13949132,,,,
15456,-0.099412724,1.1590521,9.8931265,,,,,,,
15457,,,,,,,-9.914568,17.083393,-80.39757,
15462,,,,-0.19575259,0.18852952,0.08942394,,,,
15476,0.029943138,0.74702984,10.623748,,,,,,,
15477,,,,,,,-9.4541855,17.539572,-79.92711,
15482,,,,-0.16539258,-0.2210643,0.064922884,,,,52.0
15497,0.21199948,0.31105274,10.915996,,,,-11.604658,16.016582,-81.046295,
15503,,,,-0.10307467,-0.3552875,-0.003253981,,,,
15517,-0.09701724,0.32303014,11.797532,,,,-11.299752,17.794794,-80.74979,
15523,,,,0.007180097,-0.047426354,0.010061813,,,,
15537,0.05868885,-0.30458525,12.243091,,,,-9.91509,17.090342,-79.933365,
15543,,,,0.30332336,0.2801422,0.15813343,,,,
15557,0.12336677,-0.43154564,11.421442,,,,-10.531386,17.527863,-79.644226,
15563,,,,0.45778656,0.18852952,0.15547027,,,,
15577,-0.47789833,0.25595674,10.904018,,,,-10.991676,17.504644,-80.73877,
15583,,,,0.3320855,0.057502102,0.11818606,,,,
15597,-0.47550285,0.3829171,11.318436,,,,-12.222044,17.626429,-81.23508,
15603,,,,0.15312122,0.15923479,0.29874822,,,,
15617,0.075457215,0.34458944,11.946052,,,,-12.682812,16.451735,-80.45911,
15623,,,,0.08281381,0.21196532,0.439363,,,,
15633,,,,,,,,,,56.0
15637,0.44915187,0.2487703,11.828672,,,,-11.144945,16.336935,-79.80046,
15643,,,,0.121695936,0.15071268,0.37065354,,,,
15657,0.68869966,-0.1416927,10.654889,,,,-11.604099,16.732782,-82.447464,
15663,,,,0.06576959,0.14964741,0.19808082,,,,
15677,-0.22876856,-0.71421206,10.6261425,,,,-12.373436,15.710091,-81.061874,
15683,,,,-0.26659262,0.26842427,-0.01816767,,,,
15697,-1.5247225,-1.2100761,11.608289,,,,-10.680461,15.291231,-81.16968,
15703,,,,-0.510538,0.31476325,-0.08155085,,,,
15717,,,,,,,-12.224012,17.942093,-79.84589,
15718,-2.0229821,-1.279545,12.319746,,,,,,,
15724,,,,-0.41999057,0.10703686,0.11658817,,,,
15733,,,,,,,,,,60.0
15737,,,,,,,-11.450117,16.877893,-82.75485,
15738,-1.3977622,-1.0759294,11.498096,,,,,,,
15744,,,,-0.04235466,-0.24450009,0.40633985,,,,
15757,,,,,,,-12.680952,16.71644,-82.47406,
15758,-0.089830816,-0.5992291,10.127883,,,,,,,
15764,,,,0.34593388,-0.45435703,0.5847715,,,,
15777,,,,,,,-13.145033,17.467327,-81.10141,
15778,1.3881794,-0.41238174,8.5396805,,,,,,,
15784,,,,0.43754652,-0.55395913,0.47504935,,,,
15797,,,,,,,-14.529091,17.729553,-81.912704,
15798,1.8002017,-0.37884507,7.718032,,,,,,,
15804,,,,0.16217594,-0.4421065,0.111261845,,,,
15817,,,,,,,-12.063173,16.69335,-84.62514,
15818,0.88033795,-0.36926314,8.1564045,,,,,,,
15824,,,,-0.23729788,-0.10654847,-0.20192564,,,,
15837,,,,,,,-15.760777,16.566349,-79.6084,
15838,-0.44436163,-0.43154564,9.200832,,,,,,,
15844,,,,-0.3885653,0.32488325,-0.26530877,,,,
15857,,,,,,,-12.836263,17.167913,-81.709335,
15858,-1.1797736,-0.28781685,9.327794,,,,,,,
15864,,,,-0.2010789,0.5517844,-0.08527928,,,,
15877,,,,,,,-13.914332,17.167786,-80.65279,
15878,-1.0911407,-0.050664514,9.016381,,,,,,,
15884,,,,0.10252118,0.43140957,0.1357629,,,,
15897,,,,,,,-12.681648,16.725704,-81.85512,
15898,-0.0682715,0.37333518,8.398348,,,,,,,
15904,,,,0.3549886,0.030870518,0.24069135,,,,
15917,,,,,,,-12.677867,15.083359,-83.2289,
15918,0.83242834,0.81170774,7.186236,,,,,,,
15924,,,,0.44393814,-0.26207697,0.12351238,,,,
15937,,,,,,,-13.757091,15.677498,-81.869736,
15938,0.63120824,1.1327019,6.6280894,,,,,,,
15944,,,,0.3193023,-0.16034427,-0.093268745,,,,
15957,,,,,,,-14.834346,15.955975,-81.89975,
15959,-0.099412724,0.9674139,7.3730826,,,,,,,
15965,,,,0.12222856,0.13047267,-0.16091299,,,,
15977,,,,,,,-14.062602,14.3415165,-82.17139,
15979,-0.5042486,0.55539155,8.580404,,,,,,,
15985,,,,0.049790636,0.19705163,-0.06503927,,,,
15997,,,,,,,-14.063609,15.078562,-82.17995,
15999,-0.31979674,0.51945937,9.761374,,,,,,,
16005,,,,0.16217594,0.05057789,0.04628077,,,,
16017,,,,,,,-13.603888,16.267155,-82.02753,
16019,0.05629337,0.7542163,9.572132,,,,,,,
16025,,,,0.42902443,-0.057546355,0.039356563,,,,
16037,,,,,,,-13.911092,16.545721,-82.81221,
16039,0.17606732,1.1422838,8.795997,,,,,,,
16045,,,,0.60692346,-0.014935814,-0.028287672,,,,
16057,,,,,,,-14.985125,14.465654,-82.814835,
16059,0.49706143,1.2788261,8.669037,,,,,,,
16065,,,,0.49027708,-0.107613735,-0.056517158,,,,
16077,,,,,,,-14.370787,15.212038,-82.8082,
16079,0.48987502,1.0680239,9.36133,,,,,,,
16085,,,,0.2117107,-0.28391486,-0.16357616,,,,
16097,,,,,,,-14.52249,14.023479,-83.2625,
16099,-0.19762734,0.9266907,10.307544,,,,,,,
16105,,,,0.064171694,-0.25834855,-0.28341827,,,,
16117,,,,,,,-15.445883,14.159197,-83.13228,
16119,-0.30781937,0.42124474,10.753103,,,,,,,
16125,,,,0.071095906,-0.13850638,-0.25465617,,,,
16137,,,,,,,-14.675346,13.429192,-83.414185,
16139,-0.056294113,0.37573066,11.529238,,,,,,,
16145,,,,-0.0034725387,-0.21999902,-0.20618668,,,,
16157,,,,,,,-15.134768,10.644581,-81.84572,
16159,0.24074522,0.51227295,12.683859,,,,,,,
16165,,,,-0.06738835,-0.3984307,-0.16570668,,,,
16177,,,,,,,-15.598198,12.544628,-82.49831,
16180,0.69828165,0.8093122,12.331724,,,,,,,
16186,,,,-0.0279736,-0.4202686,-0.14972773,,,,
16197,,,,,,,-16.210613,9.891193,-81.863754,
16200,1.0647899,1.127911,11.5771475,,,,,,,
16206,,,,-0.108400986,-0.14862637,-0.17742456,,,,
16217,,,,,,,-18.982454,11.767803,-81.79967,
16220,1.4983715,0.6320469,11.474142,,,,,,,
16226,,,,-0.3182579,0.257239,-0.1662393,,,,
16237,,,,,,,-16.82886,12.380859,-82.37227,
16240,1.6229364,-0.45310488,12.06343,,,,,,,
16246,,,,-0.5217233,0.5054454,-0.22376354,,,,
16257,,,,,,,-17.443802,12.076704,-82.38405,
16260,0.47071117,-0.9609463,12.669486,,,,,,,
16266,,,,-0.5776496,0.4101043,-0.4437404,,,,
16277,,,,,,,-17.135048,12.790623,-84.24179,
16280,-1.0528132,-0.98011005,12.614389,,,,,,,
16286,,,,-0.3699232,0.17468111,-0.52896154,,,,
16297,,,,,,,-15.753765,13.433697,-82.04819,
16300,-1.7091743,-0.5944381,11.222617,,,,,,,
16306,,,,-0.01305991,0.03459894,-0.33455092,,,,
16317,,,,,,,-16.675655,12.970514,-82.530045,
16320,-1.4241123,-0.105760545,9.196042,,,,,,,
16326,,,,0.14886016,0.042588413,-0.010178195,,,,
16337,,,,,,,-17.748608,11.599695,-84.39804,
16340,-0.346147,0.19606978,8.285761,,,,,,,
16346,,,,-0.029038861,0.12514633,0.28703034,,,,
16357,,,,,,,-20.21155,11.583187,-83.06622,
16360,0.83242834,0.17690594,8.470212,,,,,,,
16366,,,,-0.32518214,0.0591,0.378643,,,,
16377,,,,,,,-18.980421,12.030195,-83.969376,
16380,1.3977613,-0.0027549267,8.980449,,,,,,,
16386,,,,-0.46686217,-0.07778636,0.22045134,,,,
16397,,,,,,,-18.827015,12.472439,-84.12543,
16401,1.0096939,0.06671393,9.136155,,,,,,,
16407,,,,-0.39442426,-0.11986426,-0.023493987,,,,
16417,,,,,,,-18.215553,12.822922,-81.019,
16421,-0.09222628,0.507482,8.556449,,,,,,,
16427,,,,-0.17338206,-0.031447396,-0.13268352,,,,
16437,,,,,,,-18.060116,13.527557,-83.34476,
16441,-0.60964966,0.89794505,7.60784,,,,,,,
16447,,,,0.009843254,0.054838944,-5.8190548E-5,,,,
16457,,,,,,,-16.060284,12.834761,-82.35841,
16461,-0.15211326,1.0344872,7.162281,,,,,,,
16467,,,,0.0061148335,0.039925255,0.17571028,,,,
16477,,,,,,,-17.906307,13.674986,-83.49739,
16481,0.35093725,1.0464647,7.4880657,,,,,,,
16487,,,,-0.08283467,-0.08737373,0.16665554,,,,
16497,,,,,,,-18.827885,12.48402,-83.35176,
16501,0.5210162,1.1638432,7.83541,,,,,,,
16507,,,,-0.11585784,-0.24503271,0.05160709,,,,
16517,,,,,,,-19.29031,13.647026,-83.995804,
16521,0.7366092,1.0991652,8.022258,,,,,,,
16527,,,,-0.121184155,-0.29510012,-0.033613987,,,,
16537,,,,,,,-18.521,12.064995,-82.101166,
16541,0.5018524,1.0656285,8.970867,,,,,,,
16547,,,,-0.099878885,-0.15022427,-0.029885568,,,,
16557,,,,,,,-17.751692,13.232777,-83.6432,
16561,0.27667743,1.233312,9.782935,,,,,,,
16567,,,,0.06363907,0.05057789,0.06066183,,,,
16577,,,,,,,-19.599611,13.085146,-81.83028,
16581,0.6455811,1.1542612,9.897918,,,,,,,
16587,,,,0.22076544,0.07827474,0.10700079,,,,
16597,,,,,,,-18.214674,13.679583,-82.88606,
16601,1.0432305,0.6607926,10.482414,,,,,,,
16607,,,,0.2468644,-0.04423056,0.043617614,,,,
16617,,,,,,,-19.134697,11.599529,-83.03963,
16621,0.6791178,0.11941446,11.0621195,,,,,,,
16627,,,,0.23940754,-0.15448532,-0.1257593,,,,
16637,,,,,,,-19.135155,12.184534,-83.35594,
16642,-0.23355952,-0.22792992,11.519656,,,,,,,
16648,,,,0.2809528,-0.13637584,-0.22589406,,,,
16657,,,,,,,-19.28877,11.021458,-82.108185,
16662,-0.67432755,-0.5704833,11.557983,,,,,,,
16668,,,,0.39600128,-0.08897162,-0.09220348,,,,
16677,,,,,,,-19.440666,10.848551,-83.65761,
16682,-0.65516376,-0.5848563,11.732854,,,,,,,
16688,,,,0.49294025,-0.11134216,0.105402894,,,,
16697,,,,,,,-20.210196,10.841509,-83.36713,
16702,-0.235955,-0.20157966,11.625058,,,,,,,
16708,,,,0.5717698,-0.21414007,0.24335451,,,,
16717,,,,,,,-19.43966,10.1115055,-83.64905,
16722,0.4204061,0.41645378,10.954324,,,,,,,
16728,,,,0.57549816,-0.316938,0.32271668,,,,
16737,,,,,,,-20.36254,9.372034,-82.88962,
16742,0.96178424,1.2189391,9.61046,,,,,,,
16748,,,,0.42210022,-0.23331481,0.3328367,,,,
16757,,,,,,,-21.443748,11.295174,-81.39113,
16762,1.4768121,1.2141482,9.40924,,,,,,,
16768,,,,-0.0024072751,0.07454633,0.2561377,,,,
16777,,,,,,,-21.593365,10.078821,-83.70224,
16782,1.4887896,0.31105274,10.674053,,,,,,,
16788,,,,-0.49455902,0.32328534,0.052672356,,,,
16797,,,,,,,-21.74677,9.636574,-83.54616,
16802,0.27428192,-0.5489241,12.022707,,,,,,,
16808,,,,-0.70548123,0.3579064,-0.23441617,,,,
16817,,,,,,,-21.746706,10.21463,-84.326675,
16822,-1.016881,-0.81242657,12.588039,,,,,,,
16828,,,,-0.5845738,0.2449885,-0.31164777,,,,
16837,,,,,,,-19.134092,11.157301,-83.034485,
16842,-1.4456717,-0.79805374,12.195181,,,,,,,
16848,,,,-0.2628642,0.12940739,-0.116704546,,,,
16857,,,,,,,-21.285637,9.793304,-83.381744,
16863,-1.3043383,-0.5201783,10.875273,,,,,,,
16869,,,,0.051921163,0.011695775,0.09741342,,,,
16877,,,,,,,-21.285637,9.793304,-83.381744,
16883,-0.55694914,-0.22792992,9.749398,,,,,,,
16889,,,,0.15844752,-0.113472685,0.29395455,,,,
16897,,,,,,,-21.595259,11.840778,-84.18698,
16903,0.55215746,-0.15127462,9.064291,,,,,,,
16909,,,,0.06683486,-0.24236956,0.36106616,,,,
16917,,,,,,,-19.43945,10.832336,-84.74074,
16923,1.0001118,-0.12731981,8.807975,,,,,,,
16929,,,,-0.08656309,-0.25888115,0.19062397,,,,
16937,,,,,,,-21.903051,11.548243,-83.72696,
16943,0.5809032,-0.024314255,8.896607,,,,,,,
16949,,,,-0.17018627,-0.11240742,-0.016037142,,,,
16957,,,,,,,-20.825594,11.122356,-83.69522,
16963,0.041920513,0.15055569,8.860675,,,,,,,
16969,,,,-0.122782044,0.06868737,-0.07675716,,,,
16977,,,,,,,-21.749992,11.995121,-83.57355,
16983,-0.27907363,0.2487703,8.431885,,,,,,,
16986,,,,,,,,,,55.0
16989,,,,0.009843254,0.16136532,-0.053853996,,,,
16997,,,,,,,-22.05761,11.700266,-83.268265,
17003,-0.16648611,0.447595,8.036631,,,,,,,
17009,,,,0.12329382,0.10064528,0.0042028637,,,,
17017,,,,,,,-22.057142,11.983503,-84.045364,
17023,0.20481306,0.5434141,7.7611504,,,,,,,
17029,,,,0.16430646,-0.04050214,0.04201972,,,,
17037,,,,,,,-21.28799,12.140268,-84.1828,
17043,0.23595428,0.787753,8.000699,,,,,,,
17049,,,,0.11636961,-0.12945163,-0.012841353,,,,
17057,,,,,,,-22.206877,10.479282,-85.888824,
17063,-0.029943839,0.90752685,8.381579,,,,,,,
17069,,,,0.09080328,-0.0852432,-0.085811906,,,,
17077,,,,,,,-23.903725,12.107531,-83.78319,
17083,-0.113785595,0.74702984,8.755275,,,,,,,
17089,,,,0.08228118,0.018087355,-0.106051914,,,,
17097,,,,,,,-22.362051,10.205292,-84.34187,
17104,-0.20002282,0.5649735,9.598483,,,,,,,
17110,,,,0.09985802,0.03459894,-0.07143085,,,,
17117,,,,,,,-21.903042,12.416483,-84.82036,
17124,-0.09701724,0.7566117,10.020087,,,,,,,
17130,,,,0.21863492,-0.060209513,0.0020723366,,,,
17137,,,,,,,-23.592154,10.757721,-85.61699,
17144,0.5401801,0.85482633,9.823658,,,,,,,
17150,,,,0.37150022,-0.07139477,0.054802883,,,,
17157,,,,,,,-23.438564,9.316076,-83.58452,
17164,0.8108691,0.8763857,9.524222,,,,,,,
17170,,,,0.42582864,0.074013695,0.0063333907,,,,
17177,,,,,,,-23.440916,11.66304,-84.38559,
17184,0.6120444,0.56976444,9.5960865,,,,,,,
17190,,,,0.34380338,0.094253704,-0.11617191,,,,
17197,,,,,,,-22.668623,9.89654,-84.96498,
17204,-0.10659915,0.40208092,10.0320635,,,,,,,
17210,,,,0.20478648,-0.14330006,-0.2727656,,,,
17217,,,,,,,-22.978209,9.917351,-83.27052,
17224,-0.5952768,0.507482,10.142256,,,,,,,
17230,,,,0.20531912,-0.26367483,-0.25146037,,,,
17237,,,,,,,-22.976645,9.896503,-84.66312,51.0
17244,0.017965704,0.40926737,9.816471,,,,,,,
17250,,,,0.18774228,-0.19816113,-0.06983296,,,,
17257,,,,,,,-23.5898,8.410759,-84.81593,
17264,0.5090388,0.33021656,10.456064,,,,,,,
17270,,,,-0.025843073,-0.13690847,-0.011243457,,,,
17277,,,,,,,-23.743452,9.274347,-86.06787,
17284,0.61683536,0.30147082,11.536425,,,,,,,
17290,,,,-0.21759048,-0.0532853,-0.0421361,,,,
17297,,,,,,,-23.743544,8.841383,-85.44379,
17304,1.1486316,0.43082666,12.130504,,,,,,,
17310,,,,-0.24901576,0.106504224,-0.011243457,,,,
17317,,,,,,,-22.976645,9.896503,-84.66312,
17325,2.0301678,0.15774211,11.390301,,,,,,,
17331,,,,-0.26819053,0.26789165,-0.061843473,,,,
17337,,,,,,,-22.97462,9.290651,-85.739395,
17345,1.9846535,-0.26625755,11.694526,,,,,,,
17351,,,,-0.45674217,0.39998433,-0.272233,,,,
17357,,,,,,,-23.745962,10.610294,-85.46434,
17365,0.9450159,-0.75014424,12.578458,,,,,,,
17371,,,,-0.57019275,0.39891908,-0.49061203,,,,
17377,,,,,,,-24.516415,10.90502,-84.71309,
17385,-0.28865552,-0.75972605,12.66709,,,,,,,
17388,,,,,,,,,,47.0
17391,,,,-0.3864348,0.37921166,-0.52363515,,,,
17397,,,,,,,-23.593563,11.789583,-85.62897,
17405,-0.9042935,-0.30218974,11.531633,,,,,,,
17411,,,,-0.037028342,0.40584326,-0.3041909,,,,
17417,,,,,,,-21.746147,10.930828,-85.72783,
17425,-0.78691506,0.1481602,9.909895,,,,,,,
17431,,,,0.19360122,0.40637589,-0.022428725,,,,
17437,,,,,,,-22.670382,10.933035,-84.667496,
17445,0.2647,0.3493804,8.920562,,,,,,,
17451,,,,0.19413385,0.26735902,0.18742818,,,,
17457,,,,,,,-21.43712,10.193821,-86.02115,
17465,1.4432755,0.46915433,8.649873,,,,,,,
17471,,,,-0.029038861,-0.028251607,0.134165,,,,
17477,,,,,,,-22.205404,10.025473,-86.65735,
17485,1.270801,0.46915433,9.231975,,,,,,,
17491,,,,-0.27085367,-0.14276743,-0.16144563,,,,
17497,,,,,,,-24.359108,9.992788,-86.71054,
17505,-0.025152892,0.4499905,9.670347,,,,,,,
17511,,,,-0.27085367,-0.034110557,-0.3276267,,,,
17517,,,,,,,-21.744528,10.619799,-86.80754,
17525,-0.73421454,0.63683784,9.093037,,,,,,,
17531,,,,-0.06365992,0.15231057,-0.19766457,,,,
17537,,,,,,,-22.05523,11.958023,-85.74742,
17546,-0.5401808,0.82368517,8.240247,,,,,,,
17552,,,,0.10944539,0.236999,0.014322867,,,,
17557,,,,,,,-22.05523,11.958023,-85.74742,
17566,-0.23116404,1.0512556,8.022258,,,,,,,
17572,,,,0.15365383,0.10863476,0.12138185,,,,
17577,,,,,,,-22.665264,9.562344,-87.592026,
17586,0.08264366,1.1854024,8.213896,,,,,,,
17588,,,,,,,,,,44.0
17592,,,,0.17762226,-0.14436533,0.14535028,,,,
17597,,,,,,,-23.438747,11.199966,-85.773056,
17606,0.29105026,1.3195492,7.785105,,,,,,,
17612,,,,0.27189806,-0.2247927,0.117120795,,,,
17617,,,,,,,-22.050377,10.156687,-87.89314,
17626,0.29344577,1.6525208,7.586281,,,,,,,
17632,,,,0.27935493,-0.0751232,0.105402894,,,,
17637,,,,,,,-23.586952,8.951752,-88.072174,
17646,0.47789764,1.6621027,7.866552,,,,,,,
17652,,,,0.20904754,0.06762211,0.122979745,,,,
17657,,,,,,,-21.282644,10.477076,-86.94916,
17666,0.49706143,1.729176,8.465422,,,,,,,
17672,,,,0.11903276,0.0015757716,0.0601292,,,,
17677,,,,,,,-23.589369,10.720659,-88.09271,
17686,0.25272262,1.8249952,9.718257,,,,,,,
17692,,,,0.09666224,-0.16567059,-0.012841353,,,,
17697,,,,,,,-22.974264,10.154261,-87.14227,
17706,0.44436085,1.5255604,10.041646,,,,,,,
17712,,,,0.22396122,-0.1976285,-0.010710826,,,,
17717,,,,,,,-23.43415,9.8362255,-88.23337,
17726,0.16648537,1.2668487,10.03925,,,,,,,
17732,,,,0.28574648,-0.010674759,-0.02775504,,,,
17737,,,,,,,-23.433804,9.831593,-88.54285,
17746,-0.56413555,0.9362726,10.5734415,,,,,,,
17752,,,,0.24846227,0.097982116,0.011127076,,,,
17757,,,,,,,-23.586605,8.947121,-88.38164,
17767,-0.6048587,0.7206795,10.985465,,,,,,,
17773,,,,0.28894228,-0.0064137047,0.1474808,,,,
17777,,,,,,,-23.588774,9.4101925,-86.99417,
17787,0.14971703,0.65121067,10.377013,,,,,,,
17789,,,,,,,,,,41.0
17793,,,,0.32995492,-0.16673586,0.23270188,,,,
17797,,,,,,,-24.045458,7.7469444,-89.30774,
17807,0.16408992,0.85722184,10.889646,,,,,,,
17813,,,,0.18241595,-0.14756112,0.174645,,,,
17817,,,,,,,-22.665264,9.562344,-87.592026,
17827,-0.47550285,0.893154,11.768785,,,,,,,
17833,,,,0.09080328,0.009565247,0.16399238,,,,
17837,,,,,,,-23.279629,8.961054,-87.7551,
17847,-0.5928813,1.2668487,11.6298485,,,,,,,
17853,,,,0.15684964,0.10543896,0.3062051,,,,
17857,,,,,,,-24.0489,8.516418,-87.15004,
17867,0.11138937,1.5830519,10.642911,,,,,,,
17873,,,,0.121695936,0.15177794,0.41965565,,,,
17877,,,,,,,-24.046465,8.48399,-89.3163,
17887,0.91627014,1.0943742,9.943432,,,,,,,
17893,,,,-0.20001365,0.21622638,0.31472722,,,,
17897,,,,,,,-22.81594,9.373224,-90.22458,
17907,0.7342138,0.13618281,11.244176,,,,,,,
17913,,,,-0.62292325,0.30677378,0.015920762,,,,
17917,,,,,,,-22.355734,9.83172,-89.59938,
17927,-0.33416963,-0.5585059,12.6335535,,,,,,,
17933,,,,-0.7321128,0.22261797,-0.26477614,,,,
17937,,,,,,,-23.743288,11.1536045,-88.56584,
17947,-1.2636154,-0.7309804,12.358074,,,,,,,
17953,,,,-0.5190601,-0.02612108,-0.28448352,,,,
17957,,,,,,,-23.28114,11.441528,-89.48628,
17967,-1.73792,-0.4411275,11.823882,,,,,,,
17973,,,,-0.2809737,-0.1992264,-0.053853996,,,,
17977,,,,,,,-22.820326,11.457796,-88.85594,
17987,-1.081559,-0.35968128,11.208243,,,,,,,
17989,,,,,,,,,,37.0
17993,,,,-0.009331488,-0.17951901,0.32964087,,,,
17997,,,,,,,-22.664412,10.564096,-89.61554,
18008,0.6144399,-0.09617859,10.1638155,,,,,,,
18014,,,,0.16377385,-0.16247481,0.5576073,,,,
18017,,,,,,,-24.511599,11.13035,-89.358505,
18028,1.7427102,0.07629584,8.752879,,,,,,,
18034,,,,0.15099068,-0.14330006,0.40953565,,,,
18037,,,,,,,-23.894258,10.67893,-90.576035,
18048,1.2588236,0.20086074,8.187546,,,,,,,
18054,,,,-0.056203082,-0.024523186,0.10487026,,,,
18057,,,,,,,-23.590368,12.325947,-89.19469,
18068,-0.022757411,0.38052163,8.154009,,,,,,,
18074,,,,-0.2649947,0.087329485,-0.09966033,,,,
18077,,,,,,,-24.820223,11.57254,-89.06178,
18088,-0.8108699,0.39968544,8.690597,,,,,,,
18090,,,,,,,,,,34.0
18094,,,,-0.32624736,0.22208533,-0.08155085,,,,
18097,,,,,,,-23.741264,10.547754,-89.642136,
18108,-0.8108699,0.25356126,9.121782,,,,,,,
18114,,,,-0.1755126,0.23806429,0.05160709,,,,
18117,,,,,,,-24.048872,11.12114,-90.43025,
18128,-0.27428266,0.36854422,8.745692,,,,,,,
18134,,,,0.09879276,0.010630512,0.13203448,,,,
18137,,,,,,,-22.511007,11.00634,-89.77161,
18148,-0.09222628,0.77817106,7.672518,,,,,,,
18154,,,,0.28521386,-0.22266218,0.08090183,,,,
18157,,,,,,,-24.049826,11.567999,-90.125916,
18168,-0.22158213,1.1446793,7.1479077,,,,,,,
18174,,,,0.27669176,-0.1976285,0.03882393,,,,
18177,,,,,,,-24.971579,10.379353,-89.82555,
18188,0.022756696,1.1614476,7.58149,,,,,,,
18194,,,,0.18188332,-0.057013724,0.0702492,,,,
18197,,,,,,,-25.125029,11.095533,-91.07579,
18208,0.23355877,0.9793912,8.568427,,,,,,,
18214,,,,0.10624961,-0.05914425,0.053737618,,,,
18217,,,,,,,-23.27669,9.935009,-91.63542,
18229,0.11138937,0.9769957,9.406844,,,,,,,
18235,,,,0.19626439,-0.159279,0.009529181,,,,
18237,,,,,,,-23.8952,11.994032,-91.36511,
18249,0.29584128,1.0464647,8.930144,,,,,,,
18255,,,,0.4386118,-0.1757906,0.047878668,,,,
18257,,,,,,,-24.816954,10.805384,-91.06476,
18269,0.6048579,1.118329,7.768337,,,,,,,
18275,,,,0.48814657,-0.14010426,0.0366934,,,,
18277,,,,,,,-24.662085,9.925579,-90.89595,
18289,0.5425755,1.1806115,7.9456024,,,,,,,
18290,,,,,,,,,,31.0
18295,,,,0.23727702,-0.08311268,-0.08101822,,,,
18297,,,,,,,-25.889313,8.124098,-91.83421,
18309,0.3533327,0.9410635,9.2128105,,,,,,,
18315,,,,-0.05780098,-0.0074789682,-0.20725195,,,,
18317,,,,,,,-24.352598,8.603567,-90.87294,
18329,-0.31261033,0.4404086,10.906414,,,,,,,
18335,,,,-0.17444731,0.036196835,-0.31590882,,,,
18337,,,,,,,-24.659466,8.00926,-90.87369,
18349,-0.906689,0.10264611,11.641826,,,,,,,
18355,,,,-0.044485185,-0.06447057,-0.30046248,,,,
18357,,,,,,,-24.964254,6.518919,-91.63783,
18369,-0.60246325,0.18888333,11.531633,,,,,,,
18375,,,,0.1195654,-0.246098,-0.17156562,,,,
18377,,,,,,,-24.04469,9.183975,-91.8006,
18389,0.015570253,0.49790007,11.831069,,,,,,,
18395,,,,0.16004542,-0.373397,-0.044799257,,,,
18397,,,,,,,-25.739632,9.918503,-90.30362,
18409,1.1725863,0.5889282,11.852628,,,,,,,
18415,,,,0.17762226,-0.3579507,0.07184709,,,,
18417,,,,,,,-26.04474,8.287703,-90.60184,
18429,2.2577384,0.9290862,11.481329,,,,,,,
18435,,,,0.06576959,-0.1859106,0.07610814,,,,
18437,,,,,,,-26.659105,7.686411,-90.76494,
18450,3.0865738,0.893154,11.493306,,,,,,,
18456,,,,-0.21332943,0.039925255,-0.06077821,,,,
18457,,,,,,,-26.35363,8.299248,-89.52632,
18470,3.0362687,0.25835222,12.116131,,,,,,,
18476,,,,-0.46366638,0.26735902,-0.33455092,,,,
18477,,,,,,,-25.583662,8.734615,-90.75032,
18490,1.4073433,-0.30218974,12.724582,,,,,,,
18496,,,,-0.46366638,0.44419274,-0.68235946,,,,
18497,,,,,,,-26.198294,7.7026787,-90.1346,
18510,-0.65037274,-0.48903707,12.084989,,,,,,,
18516,,,,-0.2628642,0.46762854,-0.7894184,,,,
18517,,,,,,,-24.965609,7.260597,-91.33693,
18530,-1.7331291,-0.11055148,10.767476,,,,,,,
18536,,,,-0.0716494,0.35364535,-0.49913412,,,,
18537,,,,,,,-25.580091,6.371439,-91.032394,
18550,-1.1989374,0.36375326,9.749398,,,,,,,
18556,,,,0.012506414,0.18746427,0.0068660225,,,,
18557,,,,,,,-25.271423,7.5206375,-93.3595,
18570,0.70786357,0.62965137,9.176879,,,,,,,
18576,,,,-0.062062036,-0.10974426,0.29874822,,,,
18577,,,,,,,-23.580389,7.2723427,-91.92168,
18590,2.1235912,0.77577555,8.827139,,,,,,,
18596,,,,-0.16432732,-0.31534013,0.19701555,,,,
18597,,,,,,,-24.65672,7.249052,-92.41246,
18610,1.872066,0.90513146,8.326484,,,,,,,
18616,,,,-0.3049421,-0.25355485,-0.11297612,,,,
18617,,,,,,,-24.658459,7.272215,-90.86513,
18630,0.33416885,0.8284761,8.949307,,,,,,,
18636,,,,-0.5057443,-0.018664235,-0.31963724,,,,
18637,,,,,,,-24.35127,8.006981,-91.33029,
18650,-0.93543476,0.7566117,9.974573,,,,,,,
18656,,,,-0.45514426,0.05324105,-0.25678667,,,,
18657,,,,,,,-23.73373,7.4081535,-92.54613,
18670,-1.0767679,0.86440825,9.723048,,,,,,,
18676,,,,0.021028522,-0.080449514,0.031367086,,,,
18677,,,,,,,-25.888771,7.103815,-91.04855,
18691,0.3030277,1.2428938,7.847388,,,,,,,
18697,,,,0.47802654,-0.4090833,0.27371454,-26.351141,7.976631,-91.379684,
18711,1.1174904,1.4560915,6.5705976,,,,,,,
18717,,,,0.51584345,-0.42186648,0.1911566,-24.966131,7.2675457,-90.87273,
18731,0.8468013,1.6525208,6.45801,,,,,,,
18737,,,,0.31131282,-0.072992675,0.028171293,-24.96279,5.196871,-91.31296,
18751,0.71505,1.7962494,7.2557044,,,,,,,
18757,,,,0.10145592,0.10810213,-0.020830829,-25.580853,5.8026466,-89.63295,
18771,0.6910952,1.5974247,8.448653,,,,,,,
18777,,,,0.018365363,-0.06287266,-0.08527928,-26.65614,5.765459,-91.05214,
18791,0.19283566,1.5279559,9.390076,,,,,,,
18797,,,,0.051388532,-0.363277,-0.201393,-24.96279,5.196871,-91.31296,
18811,-0.001198113,1.6980348,9.672743,,,,,,,
18817,,,,0.1547191,-0.3552875,-0.17848983,-25.272549,5.2199974,-89.463776,
18831,0.14253059,1.7243851,9.761374,,,,,,,
18837,,,,0.20478648,-0.058611616,-0.033613987,-25.27209,4.6349964,-89.147446,
18851,0.2431407,1.4417187,10.587815,,,,,,,
18857,,,,0.13341384,0.14698425,0.02124708,-28.65469,4.2702827,-90.465485,
18871,-0.104203686,0.9722048,11.9005375,,,,,,,
18877,,,,0.104651704,0.04684947,0.0026049684,-25.88478,3.4324856,-90.07735,
18891,-0.1688816,0.48113173,12.295792,,,,,,,
18897,,,,0.313976,-0.1709969,0.065988146,-26.343275,3.0959206,-92.40633,
18911,0.08503914,0.56257796,11.605894,,,,,,,
18917,,,,0.57496554,-0.21680324,0.20021135,-25.730368,3.1376877,-90.22487,
18932,0.16888088,1.293199,10.53751,,,,,,,
18937,,,,,,,-26.03553,1.7970695,-90.83598,
18938,,,,0.5914771,0.037794728,0.33922824,,,,
18952,0.33895987,1.8705093,10.3818035,,,,,,,
18957,,,,,,,-26.03553,1.7970695,-90.83598,
18958,,,,0.33581388,0.35524327,0.44575462,,,,
18972,0.6336037,2.0861022,11.090866,,,,,,,
18977,,,,,,,-25.575562,1.6798286,-89.27554,
18978,,,,0.11051066,0.48840117,0.47345147,,,,
18992,1.2971512,1.4632779,11.196267,,,,,,,
18997,,,,,,,-25.575562,1.6798286,-89.27554,
18998,,,,-2.767481E-4,0.23433585,0.34135878,,,,
19012,1.941535,0.56976444,11.368741,,,,,,,
19017,,,,,,,-24.96125,2.5713043,-89.425354,
19018,,,,-0.22664523,-0.3030896,-0.012841353,,,,
19032,1.0839536,-0.108155996,11.938865,,,,,,,
19037,,,,,,,-26.655735,2.720829,-87.61206,
19038,,,,-0.44129583,-0.4053549,-0.38887936,,,,
19052,-0.65037274,-0.12492433,12.049057,,,,,,,
19057,,,,,,,-26.80798,2.552555,-88.852005,
19058,,,,-0.39229372,0.0591,-0.4085867,,,,
19072,-1.2755927,-0.031500697,11.821486,,,,,,,
19077,,,,,,,-25.113045,0.94978714,-89.255585,
19078,,,,-0.13663046,0.48573804,-0.0021887175,,,,
19092,-0.5952768,0.0020360053,11.007024,,,,,,,
19093,,,,,,,,,,33.0
19097,,,,,,,-26.034882,0.19641495,-89.42456,
19098,,,,0.13554436,0.39998433,0.36745775,,,,
19112,0.58569413,0.35177588,9.426008,,,,,,,
19117,,,,,,,-25.112175,0.9382057,-90.02925,
19118,,,,0.2708328,-0.033577926,0.40633985,,,,
19132,1.4121343,0.68474734,8.144427,,,,,,,
19137,,,,,,,-26.806221,1.5160561,-89.14949,
19138,,,,0.13394646,-0.28604537,0.19541766,,,,
19153,1.0528125,0.43561763,7.8402014,,,,,,,
19157,,,,,,,-25.270086,2.2926636,-88.03693,
19159,,,,-0.13663046,-0.08950426,-0.115639284,,,,
19173,0.046711475,0.25835222,8.276178,,,,,,,
19177,,,,,,,-25.729645,0.23351288,-87.25069,
19179,,,,-0.3438242,0.25830427,-0.2871467,,,,
19193,-0.80368346,-0.026709706,9.210415,,,,,,,
19197,,,,,,,-26.187683,-0.68805313,-89.263336,
19199,,,,-0.3917611,0.39625588,-0.25678667,,,,
19213,-1.467231,-0.06982833,9.538596,,,,,,,
19217,,,,,,,-23.88264,1.5511513,-89.69623,
19219,,,,-0.25114632,0.120352656,-0.13268352,,,,
19233,-1.1630051,0.2703296,9.246346,,,,,,,
19237,,,,,,,-25.576834,1.986229,-88.505295,
19239,,,,-0.0018746434,-0.23597798,0.0702492,,,,
19243,,,,,,,,,,36.0
19253,0.16408992,0.64402425,8.769647,,,,,,,
19257,,,,,,,-26.346334,1.834095,-88.05838,
19259,,,,0.18774228,-0.38937595,0.2593335,,,,
19273,1.100722,1.113538,8.163591,,,,,,,
19277,,,,,,,-24.961004,1.2654686,-88.017334,
19279,,,,0.25432122,-0.2546201,0.24015872,,,,
19293,0.72463185,1.5830519,8.201919,,,,,,,
19297,,,,,,,-25.26873,1.5509834,-88.33783,
19299,,,,0.28840965,0.18959479,0.13949132,,,,
19313,0.27667743,1.7243851,8.046212,,,,,,,
19317,,,,,,,-26.8069,0.5119896,-87.2807,
19319,,,,0.32303074,0.32328534,0.12404501,,,,
19333,0.21199948,1.7267805,8.302529,,,,,,,
19337,,,,,,,-24.959997,0.5284233,-88.00877,
19339,,,,0.2841486,0.0591,0.091021836,,,,
19353,0.18564922,1.6716845,8.798393,,,,,,,
19357,,,,,,,-25.113401,0.086177826,-87.85272,
19359,,,,0.2740286,-0.24503271,0.03882393,,,,
19373,0.46831566,1.7052213,9.243952,,,,,,,
19377,,,,,,,-24.64945,-1.820816,-87.66432,
19379,,,,0.33474863,-0.27752328,0.027638663,,,,
19394,0.9090837,1.5806564,8.9421215,,,,,,,
19397,,,,,,,-26.187838,-1.6990776,-87.858765,
19400,,,,0.4098497,0.0026410352,-0.010178195,,,,
19414,0.5425755,1.5375378,8.920562,,,,,,,
19417,,,,,,,-26.034378,-1.5470123,-87.701935,
19420,,,,0.28787702,0.27215272,-0.1257593,,,,
19434,-0.087435335,1.3866227,9.857194,,,,,,,
19437,,,,,,,-26.957832,-1.9893494,-86.7912,
19440,,,,0.08281381,0.3126327,-0.171033,,,,
19454,-0.087435335,1.2069616,10.515951,,,,,,,
19457,,,,,,,-25.111387,-1.3879128,-87.8356,
19460,,,,0.06044327,0.12940739,-0.12629193,,,,
19474,0.25751355,1.0871878,10.451273,,,,,,,
19477,,,,,,,-24.954422,-4.177086,-87.18033,
19480,,,,0.12489171,-0.11666848,-0.12895508,,,,
19494,0.2647,1.1039561,11.133984,,,,,,,
19497,,,,,,,-25.110043,-2.9978333,-87.04309,
19500,,,,0.007180097,-0.22426009,-0.2163067,,,,
19514,0.34375083,0.9266907,12.398797,,,,,,,
19517,,,,,,,-24.956526,-3.1359596,-86.57338,
19520,,,,-0.15207678,-0.057013724,-0.23175302,,,,
19534,0.30781865,0.98897314,13.083904,,,,,,,
19537,,,,,,,-24.649725,-3.119709,-85.792114,
19540,,,,-0.20640524,0.1730832,-0.1880772,,,,
19544,,,,,,,,,,38.0
19554,0.25272262,1.0584421,13.306683,,,,,,,
19557,,,,,,,-24.95423,-5.192734,-86.085205,
19560,,,,-0.16379468,0.28174007,-0.18008773,,,,
19574,0.57371676,0.6152785,13.057554,,,,,,,
19577,,,,,,,-24.801363,-3.7302094,-87.02693,
19580,,,,-0.049278874,0.27108744,-0.1662393,,,,
19594,0.6791178,0.2703296,12.786865,,,,,,,
19597,,,,,,,-23.878786,-4.1445274,-86.0706,
19600,,,,0.10039065,0.20131269,-0.15558667,,,,
19615,0.3988468,0.21762908,11.754413,,,,,,,
19617,,,,,,,-24.339773,-4.1584816,-86.54619,
19621,,,,0.23461387,0.014891567,-0.21577406,,,,
19635,-0.37489277,0.4260357,10.487205,,,,,,,
19637,,,,,,,-23.26163,-5.4618683,-86.03999,
19641,,,,0.31184545,-0.03730635,-0.26584142,,,,
19655,-0.80607885,0.7925439,8.848698,,,,,,,
19657,,,,,,,-24.494102,-4.298958,-85.92935,
19661,,,,0.34380338,0.16828953,-0.063974,,,,
19675,-0.31740126,1.4153684,7.768337,,,,,,,
19677,,,,,,,-23.264156,-5.8624077,-83.249664,
19681,,,,0.20798229,0.33873165,0.25560507,,,,
19695,0.6863043,1.6525208,7.598258,,,,,,,
19697,,,,,,,-23.719961,-6.668995,-87.4303,
19701,,,,-0.052474663,0.19864954,0.39728513,,,,
19715,1.5534675,1.6405435,7.8593655,,,,,,,
19717,,,,,,,-23.567772,-6.210533,-86.50322,
19721,,,,-0.28683263,-0.10335268,0.27371454,,,,
19735,1.7858288,1.5662836,7.7946873,,,,,,,
19737,,,,,,,-23.568697,-5.9087677,-86.04245,
19741,,,,-0.433839,-0.2844475,-0.008047667,,,,
19755,0.83721936,1.3866227,7.9671617,,,,,,,
19757,,,,,,,-23.875097,-6.2198334,-86.8203,
19761,,,,-0.5526159,-0.14436533,-0.28980985,,,,
19775,-0.65516376,1.3315266,8.532495,,,,,,,
19777,,,,,,,-22.957308,-4.2547646,-84.49875,
19781,,,,-0.5334412,0.17255057,-0.37875935,,,,
19795,-1.4169259,1.4513005,8.83193,,,,,,,
19797,,,,,,,-22.955486,-4.7132072,-85.57675,
19801,,,,-0.32038844,0.27854428,-0.14120562,,,,
19815,-0.91387546,1.4369277,8.60915,,,,,,,
19817,,,,,,,-22.80087,-5.1554184,-85.72255,
19821,,,,-0.056735717,0.051110525,0.18210186,,,,
19836,-0.19283639,1.4513005,8.834325,,,,,,,
19837,,,,,,,-22.34015,-5.572109,-84.468155,
19842,,,,0.07322644,-0.31374225,0.27051878,,,,
19845,,,,,,,,,,41.0
19856,0.27428192,1.6213795,8.443862,,,,,,,
19857,,,,,,,-23.570345,-5.4526405,-85.1192,
19862,,,,0.21011281,-0.45382437,0.20553765,,,,
19876,0.47310662,2.1004753,7.940811,,,,,,,
19877,,,,,,,-23.41619,-5.3098526,-85.5813,
19882,,,,0.37576127,-0.28071904,0.20607029,,,,
19896,1.0192758,2.4741697,7.746778,,,,,,,
19897,,,,,,,-22.9563,-4.99181,-84.49019,
19902,,,,0.43062234,-0.1757906,0.33922824,,,,
19916,1.495976,2.6011302,7.4617157,,,,,,,
19917,,,,,,,-23.570747,-5.1578255,-85.12262,
19922,,,,0.32516125,-0.24822852,0.31845564,,,,
19936,1.4025522,2.816723,7.492857,,,,,,,
19937,,,,,,,-22.340847,-5.562847,-83.84923,
19942,,,,0.13128331,-0.1944327,0.12990394,,,,
19956,1.3378744,2.5101018,8.187546,,,,,,,
19957,,,,,,,-25.108595,-6.056362,-84.5314,
19962,,,,-0.105737835,-0.014935814,0.0020723366,,,,
19976,0.93064296,1.8202043,9.423613,,,,,,,
19977,,,,,,,-23.56975,-6.763115,-84.020645,
19982,,,,-0.3294432,0.029805256,-0.075159274,,,,
19996,0.44915187,1.2740351,11.009419,,,,,,,
19997,,,,,,,-22.649736,-5.5513,-82.77368,
20002,,,,-0.35873792,-0.09163478,-0.11723717,,,,
20016,0.35093725,0.893154,10.939951,,,,,,,
20017,,,,,,,-23.415337,-7.057911,-84.16815,
20022,,,,-0.13609785,-0.21467271,-0.06876769,,,,
20036,0.47071117,0.8500354,10.939951,,,,,,,
20037,,,,,,,-23.262947,-6.7468643,-83.23938,
20042,,,,-0.04608308,-0.20987903,0.023377609,,,,
20056,0.23595428,0.9218998,11.773577,,,,,,,
20057,,,,,,,-24.032558,-6.3186226,-83.41824,
20062,,,,-0.103607304,-0.034110557,0.07237973,,,,
20077,-0.073062465,1.0967697,11.354368,,,,-25.263275,-6.1922035,-83.6051,
20083,,,,-0.030104125,0.27375057,0.16825344,,,,
20096,,,,,,,,,,44.0
20097,0.05868885,1.623775,10.822572,,,,-24.64869,-6.7516594,-82.190445,
20103,,,,-0.06472518,0.4015822,0.2593335,,,,
20117,0.5114343,1.3458996,11.53882,,,,-22.801687,-5.434021,-84.636,
20123,,,,-0.31026843,0.24978219,0.19808082,,,,
20137,0.72463185,0.54820514,12.480243,,,,-24.032366,-7.3342743,-82.323135,
20143,,,,-0.52598435,-0.09163478,0.0026049684,,,,
20157,0.23355877,-0.0051504374,12.535338,,,,-22.802711,-6.4334564,-82.45775,
20163,,,,-0.5275822,-0.15022427,-0.18914248,,,,
20177,-0.76535577,-0.25428018,12.080198,,,,-23.419127,-6.283806,-81.70099,
20183,,,,-0.47378638,0.12141792,-0.2349488,,,,
20196,,,,,,,,,,48.0
20197,-1.5031631,-0.38603148,12.214345,,,,-21.880987,-5.099716,-82.91455,
20203,,,,-0.40560952,0.3456559,-0.0756919,,,,
20217,-1.3642254,-0.40040436,11.991566,,,,-21.571693,-5.4060783,-83.986664,
20223,,,,-0.18669786,0.1949211,0.1794387,,,,
20237,-0.18564996,-0.13450626,10.460855,,,,-22.033247,-7.004471,-81.9677,
20243,,,,0.02049589,-0.23917377,0.32910824,,,,
20257,0.8899199,0.06910941,9.155319,,,,-21.881453,-5.38295,-82.13747,
20263,,,,-0.06632309,-0.3989633,0.26146403,,,,
20277,0.9330385,-0.081805766,9.224788,,,,-21.727581,-4.6574707,-83.07063,
20283,,,,-0.31186634,-0.036241084,0.059063938,,,,
20297,,,,,,,-22.64939,-5.555935,-83.08316,
20298,0.18325374,-0.28781685,9.883545,,,,,,,
20304,,,,-0.39229372,0.43034434,-0.04320136,,,,
20317,,,,,,,-23.573706,-5.11845,-82.49216,
20318,-0.3677063,-0.1967887,9.440381,,,,,,,
20324,,,,-0.21865577,0.56989384,0.0020723366,,,,
20337,,,,,,,-21.265158,-5.8204765,-82.426605,
20338,-0.681514,0.33021656,8.443862,,,,,,,
20344,,,,-0.032234654,0.41915905,0.10966395,,,,
20357,,,,,,,-21.266237,-3.7799149,-83.997894,
20358,-0.44436163,0.65121067,7.950393,,,,,,,
20364,,,,0.03967063,0.186399,0.19595028,,,,
20377,,,,,,,-21.266237,-3.7799149,-83.997894,
20378,0.14971703,0.87159467,7.9048796,,,,,,,
20384,,,,0.06310643,-0.03251266,0.19648291,,,,
20396,,,,,,,,,,52.0
20397,,,,,,,-20.189907,-3.7566223,-83.50711,
20398,0.5329936,1.0800014,7.6533537,,,,,,,
20404,,,,0.11583698,-0.13531058,0.124577634,,,,
20417,,,,,,,-20.189907,-3.7566223,-83.50711,
20418,0.544971,1.113538,7.6198173,,,,,,,
20424,,,,0.16696963,-0.08897162,0.054270253,,,,
20437,,,,,,,-21.421072,-4.926773,-81.66701,
20438,0.31979603,1.1806115,7.6509585,,,,,,,
20444,,,,0.17229596,-0.050089512,0.025508136,,,,
20457,,,,,,,-19.57307,-5.214428,-83.01059,
20458,-0.21200022,1.4249502,8.690597,,,,,,,
20464,,,,0.13341384,-0.061807405,0.018051289,,,,
20477,,,,,,,-20.342113,-5.951565,-82.24736,
20478,-0.14492682,1.4009955,9.452359,,,,,,,
20484,,,,0.28521386,-0.082580045,0.07877131,,,,
20497,,,,,,,-20.185568,-7.432583,-82.84537,
20498,0.34375083,1.5519106,8.954099,,,,,,,
20504,,,,0.5137129,-0.19017164,0.09528289,,,,
