Timestamp,acc_x,acc_y,acc_z,gyro_x,gyro_y,gyro_z,mag_x,mag_y,mag_z,light
2514,0.2215814,0.6280544,9.262317,0.1648391,-0.076987416,-0.12282982,-3.250723,26.820644,-66.88006,
2564,0.5689258,0.94226134,9.669149,-0.078751154,0.08679686,0.036870945,-3.0191364,26.089417,-66.71107,
2614,0.17766428,0.7933424,9.743809,0.038072743,-0.04103477,-0.090605594,-3.4314098,27.412962,-66.5303,
2664,0.34135535,0.88357216,9.356539,0.018365363,-0.006058617,0.02391024,-3.7900543,27.475815,-66.90106,
2714,0.24873017,0.8180957,9.577722,-0.03516413,0.06815474,-0.008313982,-3.6858876,26.7564,-67.45761,
2764,0.0083838105,0.90752685,9.561354,-0.043775007,0.13153793,0.10025412,-1.9430847,27.129515,-67.23802,
2814,0.009980798,0.96421987,10.563861,-0.027174652,0.038327362,0.14055659,-3.4824135,26.877861,-66.11266,
2864,-0.028746106,1.5567017,9.016381,0.28876474,-0.1725948,0.11712078,-3.0971699,27.405666,-67.34731,
2914,-0.049107675,1.8297862,10.006512,-0.069252566,0.17920846,0.18849345,-3.173814,26.870176,-66.930305,
2964,-0.055096373,1.5339446,10.094347,0.13980539,-0.23775344,0.011127076,-2.480774,26.89444,-67.63559,
3014,-0.12576298,1.743549,8.140434,-0.048479922,0.10037897,-0.08847506,-3.480821,26.71192,-67.348816,521.0
3064,-0.7533784,1.1398883,10.491996,-0.52278847,0.09602914,-0.030773288,-3.9423761,26.80203,-67.43873,
3114,-0.22557457,1.6285659,8.946913,-0.0447515,-0.22665693,0.17144923,-2.8660831,27.790678,-68.11984,583.0
3164,0.40842873,1.4836395,10.294369,-0.19397716,-0.11205233,0.20837836,-3.17589,28.224514,-66.73969,
3214,0.51941925,1.7866675,9.826851,0.09320013,-0.21920007,0.09261973,-3.0721538,27.945013,-67.45611,647.0
3264,0.6467788,1.9735148,10.180584,-0.07981642,0.051820707,0.028171292,-1.2500448,26.695477,-67.37053,
3314,-0.33177415,1.646532,11.463363,0.012506418,0.030870523,-0.13374877,-2.405756,28.537043,-67.96227,706.0
3364,0.27907288,1.789063,10.452071,0.39600125,-0.19993658,0.015743218,-3.1735058,27.541485,-68.04722,
3414,0.6791178,1.3003854,11.162729,0.17229594,0.09105791,-0.041869782,-3.2245426,27.633963,-68.38488,762.0
3464,0.7062666,0.24318086,11.635437,0.25840473,-0.17703338,-0.2637109,-3.3271704,27.536833,-68.20575,
3514,0.36650783,-0.14768137,10.811792,-0.03409886,0.22528109,-0.23814458,-4.0956917,27.564646,-68.87004,831.0
3564,0.81086904,-0.15446858,11.414256,0.24508895,-0.023102826,-0.07302874,-3.9406862,26.128267,-68.12732,
3614,1.1725864,0.9350749,8.114484,0.5259634,0.049778946,-0.010178193,-3.990816,25.702108,-68.63951,896.0
3664,1.1598105,1.0177189,8.387967,0.0089555355,0.14290074,-0.1330386,-3.7096815,26.63496,-68.978645,
3714,-0.029943846,1.0943742,8.034235,-0.19255681,-0.101754785,-0.2599825,-3.1181076,25.171751,-68.818016,
3764,0.117777325,1.1223215,9.137752,-0.20161153,-0.14045937,0.042197257,-4.247979,26.407993,-68.83464,982.0
3814,0.9881345,1.623775,7.969557,0.08201486,-0.2911054,0.007664971,-3.2733715,26.298006,-68.9381,
3864,0.61204433,1.9016504,8.099711,-0.09206695,0.048802454,0.0645678,-3.400261,26.109802,-69.89345,
3914,1.312722,2.2034807,8.346846,-0.14861469,-0.06526951,-0.04906031,-4.0951133,26.64032,-68.240265,
3964,0.44995034,1.8673153,10.475227,-0.28931826,0.17556882,-0.0032539815,-4.4769583,25.729568,-69.60631,
4014,0.347344,1.0009506,12.011928,0.21970016,-0.1203969,0.025774451,-3.5303688,26.736343,-68.94956,
4064,0.27268493,1.1550597,10.735536,0.3674167,0.019507706,0.19861345,-4.016963,26.40802,-69.06105,
4114,0.66714036,1.0632329,12.372447,0.051654845,0.42155588,0.22844082,-3.3239422,25.61241,-68.72507,
4164,0.35812366,0.3605593,10.834549,-0.014302711,0.2797871,-0.09451156,-2.7090921,26.85851,-69.80755,
4214,-1.6349144,0.19726752,11.502888,-0.23490103,0.36216748,0.0034039132,-3.0169468,26.446218,-69.13979,
4264,0.3309749,0.46436334,9.407642,0.17549175,-0.25914747,0.3570714,-2.0177736,26.809208,-68.861206,
4314,0.81566006,0.26194543,8.715749,-0.12437994,-0.19603062,0.058708847,-2.5041726,26.212952,-68.81481,
4364,0.1081954,0.47474375,8.702575,-0.18057261,0.09585159,0.030568138,-2.477107,25.398346,-69.088425,
4414,0.6815133,1.0416737,8.324088,0.0803282,-0.07867408,0.14108922,-2.5537949,25.707682,-69.68718,
4464,0.3525342,1.3474965,8.145226,0.22129807,0.007967352,0.002871284,-2.0168486,26.507442,-69.321976,
4514,0.8647674,1.7579217,9.058302,0.18294859,-0.24059413,0.026395855,-2.246034,25.855902,-69.939186,
4564,0.8172571,1.9311948,9.406045,0.28468126,-0.0852432,-0.10525296,-2.632308,26.644354,-69.416245,1047.0
4614,0.5581461,1.4548938,10.450075,0.19271348,-0.1257232,-0.23796703,-2.1438026,26.054773,-69.88737,
4664,0.07306172,1.1726265,11.930081,0.033545367,-0.106548466,-0.21870354,-2.9370174,25.659521,-70.88269,
4714,1.3989592,0.4320244,12.285011,0.098082595,-0.07991688,-0.1035663,-2.7071273,25.79513,-70.25948,
4764,0.7437957,-0.108156,11.993163,-0.2863,0.37734753,-0.32043618,-3.632759,27.07025,-69.52345,1113.0
4814,-0.03233932,0.58653283,11.753216,0.038072724,0.2851134,-0.06379646,-2.1956704,26.110083,-69.425,
4864,1.77465,1.6173872,7.296428,0.50465816,-0.015468443,0.118985,-1.6292553,25.315475,-70.536644,
4914,0.67552465,1.168634,9.436788,-0.48053303,0.2923927,-0.27667162,-1.7836767,25.65864,-70.44128,
4964,-0.46512243,1.3674588,8.060585,0.12595697,-0.08870531,-0.28688037,-1.4755335,25.464062,-70.61193,
5014,-0.3174013,1.7411535,7.567117,0.11796751,-0.06269512,0.021424621,-2.1418068,24.677414,-69.97454,
5064,0.9362325,1.8952624,8.189941,0.13234857,-0.22292851,0.06971656,-2.2432127,24.853487,-71.243004,
5114,0.37249652,2.281334,8.851093,0.028307823,0.0115182325,-0.012308721,-3.2695332,24.65489,-70.36344,
5164,0.25032714,1.1774174,11.339196,-0.1355652,-0.07911794,-0.02136346,-2.1674566,24.580683,-69.84509,
5214,0.073061734,1.278826,11.149555,0.1809956,-0.3236847,-0.04550944,-2.9120033,24.534546,-68.90868,
5264,0.39964533,1.8737034,10.695611,0.25778335,0.36749378,0.33736405,-2.7047434,24.050789,-70.23922,
5314,0.98933226,1.1219223,11.059725,-0.35962567,0.24356814,0.1421545,-1.420463,23.002234,-70.968956,
5364,-1.1638037,0.2248155,11.337601,-0.510538,0.11049897,-0.19233826,-1.2428303,23.415419,-69.80859,
5414,0.071863994,0.14336926,9.861986,-0.23232664,-0.23970641,0.21192926,-1.7834085,24.545488,-69.29344,
5464,0.66634196,0.14576472,9.1337595,-0.28150633,-0.154219,0.11951764,-1.8591347,24.359606,-70.14438,
5514,-0.019164197,0.5458096,8.077354,-0.20782559,0.15674914,-0.0041416995,-2.9100235,23.543327,-69.46462,
5564,-0.24393992,0.838058,8.185948,-0.15314206,0.14219055,0.095815524,-1.8589058,24.067104,-69.98622,
5614,0.19523114,1.1219223,8.364811,0.01872045,-0.14258988,0.14854605,-1.9867592,24.084707,-70.32493,
5664,0.18684696,1.1279109,9.490686,0.10411908,-0.06553583,0.12431132,-2.319934,24.27079,-70.69649,
5714,0.929046,1.170231,9.674339,0.38481602,-0.16389516,0.14304219,-2.0879955,22.90774,-70.05588,
5764,0.8635697,1.2728374,10.052425,0.1898728,-0.12252742,-0.13135192,-3.0865917,22.850624,-71.24079,
5814,0.64717805,1.0241069,10.620553,0.0059372983,0.122838266,-0.08314875,-2.9563973,22.078217,-72.07981,
5864,1.6864164,0.5745554,12.003543,-0.34542212,-0.24876115,-0.28288564,-2.4710455,22.712555,-71.22388,1184.0
5914,1.5143414,-0.5832593,12.7501335,-0.6307352,0.19101512,-0.49753627,-3.9315803,23.088346,-72.58006,
5964,0.21798818,-0.2758395,11.463362,0.27003387,0.16376214,-0.23920983,-3.3932838,23.628908,-73.11462,
6014,0.9985149,0.5002956,8.511734,0.08831767,0.27286288,-0.07675716,-4.393352,22.94011,-72.177124,
6064,0.23475653,0.69313157,8.727726,-0.090824135,-0.09829268,-0.2940709,-4.2398176,23.62186,-72.748665,
6114,-0.27188718,1.176619,7.6254067,-0.024600266,-0.036418628,-0.058470145,-4.648829,23.59942,-73.841934,
6164,0.48268855,1.3399109,8.235455,0.006913785,-0.14836006,0.03616077,-4.7001543,23.38216,-73.53117,
6214,0.48588252,1.6109991,8.221882,0.20833735,-0.13513304,0.06172709,-4.801615,23.245409,-74.35752,
6264,1.0588012,1.6656959,9.17568,0.063372746,0.15763688,0.044416558,-5.5460734,23.801125,-74.2535,
6314,-0.25352183,0.8628114,11.02459,-0.15704803,-0.09997935,-0.08936278,-4.957075,24.1813,-74.06269,
6364,-0.19882508,0.13139185,13.032402,0.25911492,-0.37419593,0.15706816,-6.2384872,24.58863,-75.13105,
6414,0.86117417,1.2253271,10.65409,0.29764196,0.15053512,0.4283553,-7.2135262,24.535517,-74.43246,1096.0
6464,1.0360441,0.072702646,12.13769,-0.58990014,0.17255056,-0.044000313,-5.70201,25.27404,-74.197044,
6514,-0.58968735,-0.4299486,11.844643,-0.2948221,0.2215527,-0.1779572,-6.6497197,24.692259,-74.36866,
6564,-0.022757411,-0.109353736,9.366121,0.056359768,-0.07547829,0.07184709,-7.470457,25.383018,-75.01612,
6614,0.24234222,-0.057850946,8.72573,-0.08176941,-0.008277915,0.02391024,-7.6772842,25.716278,-73.89019,
6664,-0.25511882,0.41046512,7.831817,-0.03791606,0.15373091,0.020181818,-7.089529,27.31907,-74.10049,
6714,-0.27667812,0.9458545,7.7044578,0.0013211472,-0.18191585,0.08995658,-7.9345956,26.592981,-74.16468,
6764,0.17726505,1.168634,8.098913,0.10110084,-0.057723895,0.2472605,-7.473213,26.649895,-74.10228,
6814,0.429988,1.3930105,9.155318,0.11210856,-0.045562137,0.2561377,-7.988051,27.393053,-73.1951,
6864,0.98573905,1.738758,8.769648,0.26603913,-0.032690205,0.14854605,-8.090704,27.899323,-73.74519,
6914,0.5106358,0.616077,11.00383,0.07908538,0.1429895,-0.030418199,-9.93691,27.560028,-73.24551,
6964,-0.0023958236,0.29548213,14.153484,-0.11283958,-0.16993165,-0.02953049,-10.013962,27.657133,-73.24856,
7014,3.0761936,0.24318086,11.861412,0.1730949,-0.1672685,0.21352714,-11.065639,27.64736,-72.86189,
7064,-0.65636146,-0.62557936,12.689848,-0.27280664,0.80354166,-0.55630326,-11.629671,28.07253,-73.44831,
7114,-0.406034,0.22481549,9.034747,0.5890803,-0.3353138,-0.13827613,-9.988679,27.71052,-72.99059,
7164,1.698394,1.0296963,7.8114557,-0.05939887,0.00814489,0.009351636,-11.243144,27.473677,-74.43774,
7214,0.16009745,0.92429525,8.641889,-0.47884637,-0.11427163,-0.45892042,-11.9886675,28.308907,-73.71792,
7264,-0.32099447,1.5051988,8.098913,0.017300101,0.017022097,-0.1516807,-12.167599,27.261719,-72.91063,
7314,0.152911,1.6365509,8.079749,0.08814013,0.21116638,-0.012308724,-12.501464,28.349487,-73.78273,
7364,0.031140864,1.6369501,9.251139,0.025467122,-0.29847345,-0.047639962,-11.553444,28.517084,-73.374176,
7414,0.3006322,1.1734251,10.503175,-0.06712203,-0.019463181,0.032432348,-12.963759,27.918787,-72.55113,
7464,-0.6371976,0.39010352,11.924492,0.26213315,-0.09234496,0.09972149,-12.708313,28.803658,-72.78717,
7514,-0.09941272,1.6054096,8.772841,0.78881717,0.06282843,0.5056757,-12.602848,27.656935,-73.98359,
7564,0.9246543,0.59491694,10.612968,-0.2793758,0.63895845,0.58619183,-11.396921,27.615276,-74.67535,
7614,-0.9753594,-0.5089994,13.607715,-0.83118224,0.31316534,-0.25412354,-9.987771,28.7115,-75.0657,
7664,-1.4684287,-0.015930071,10.701601,-0.18190418,-0.0113849295,-0.05935785,-10.78463,29.546722,-74.29557,
7714,-0.21120173,-0.2630636,9.96579,-0.3930927,0.039392628,0.13469763,-10.193178,29.339437,-75.593956,
7764,-0.61084735,0.32782108,8.904992,-0.21244173,-0.021860024,0.05782113,-9.399826,29.925835,-74.96195,
7814,-0.087435335,0.7805665,7.036917,0.11210856,-0.18724218,0.18556397,-9.988362,29.394775,-75.38315,
7864,-0.23475726,0.9506455,8.285761,-0.00862131,-0.06411548,0.20358467,-9.628548,28.809814,-75.419014,
7914,0.21679045,0.96741384,8.807975,0.17522542,-0.2745938,0.18875976,-8.960851,28.950354,-76.53898,
7964,0.08344213,1.0320917,9.548977,0.20496404,-0.13815129,0.049654108,-7.8568053,27.788586,-76.44647,
8014,0.8348239,0.7446344,10.618957,0.2252928,-0.17818743,0.09128815,-8.958533,26.796846,-75.94651,
8064,0.7038711,0.7837605,10.7539015,0.13359137,0.11307336,0.011304621,-7.545467,26.29716,-77.89172,
8114,0.27907288,0.48113173,11.874187,-0.08736203,-0.042100035,-0.072229795,-7.2127724,27.275293,-78.53962,
8164,1.0392381,-0.7110181,12.453893,-0.32855546,0.22545867,-0.25430107,-6.084335,27.04712,-78.483116,1166.0
8214,-0.009582281,-0.962144,11.059725,0.079884335,-0.2514243,-0.31111512,-6.389313,25.800528,-79.37906,
8264,1.3674186,0.1713165,8.176368,-0.06703325,0.1936783,0.1167657,-6.082637,25.866688,-78.54679,
8314,1.243253,0.4967023,8.61993,-0.46979165,0.11476001,-0.2855488,-6.08161,25.032913,-78.43394,
8364,-0.72463256,0.6448227,8.895809,-0.21102138,-0.13548814,-0.34928706,-5.238758,27.066906,-77.99802,
8414,0.31979603,1.0057416,8.2115,0.14060438,0.09452002,0.017784974,-5.52006,26.7152,-78.233086,
8464,-0.09542026,1.4768523,8.987636,0.13501172,0.0072571766,-0.03805259,-3.3898325,26.47749,-79.80238,
8514,0.74140024,1.371052,9.921871,0.34620017,0.029272621,0.11525658,-4.7984176,25.904394,-80.578804,
8564,0.16568692,0.8228867,10.9120035,0.23425876,-0.04795898,-0.09610945,-3.4644108,24.201906,-79.081436,
8614,-0.72223717,0.2882957,12.295792,0.461515,0.009565246,0.12431132,-4.3870645,25.172033,-80.66326,
8664,-0.4355782,1.6613041,10.313134,0.485661,0.16704671,0.30815807,-3.230856,23.155014,-80.30163,
8714,-0.07785343,0.62965137,11.050142,-0.23836315,0.26096743,0.033231296,-2.3827865,22.683302,-81.461586,1090.0
8764,-1.2476455,-0.38683,11.547604,-0.3328165,0.14201303,0.06403516,-2.6909332,23.505072,-82.07204,
8814,0.54736644,-0.38483378,10.585419,-0.2713863,-0.23517904,0.18662924,-1.5637468,23.77598,-81.50546,
8864,-0.13215092,-0.36207676,9.137752,-0.20960101,-0.12598953,-0.171033,-0.92529774,24.953152,-80.652016,
8914,-0.5138305,0.3625555,7.4437494,-0.07804099,0.23415832,0.003670228,-1.1035715,23.800741,-80.30778,
8964,-0.5689265,0.74702984,8.1412325,-0.06951887,-0.045828454,0.092087105,0.07545185,23.872025,-79.99554,
9014,0.02275668,0.92788845,8.08454,0.31699422,-0.2739724,0.13309973,0.4371656,22.875826,-81.238914,
9064,0.20401455,1.3682572,8.364812,0.30172545,-0.19709587,0.14135553,0.6945267,22.96332,-82.21371,
9114,1.2468462,1.2021707,10.194957,0.073403984,-0.22674571,0.041131996,0.3864943,22.722235,-81.59951,
9164,0.039525043,0.6136815,10.115108,0.15258858,0.16882214,-0.3193709,1.0033159,21.650574,-81.57177,1158.0
9214,-0.5054463,0.24397933,13.275541,-0.26392946,-0.16371761,-0.15398878,1.7731947,21.942396,-82.53617,
9264,2.4038622,0.677561,11.778369,0.20611808,-0.29563275,0.18689555,1.6966581,20.995422,-81.70169,
9314,0.5437733,-0.16085653,11.858617,-0.1742698,0.24392323,-0.43575096,2.5942612,20.885427,-81.72968,
9364,-0.6950884,0.59930867,9.519431,0.111575924,0.04764842,-0.41524464,1.1566668,21.008099,-80.322395,1232.0
9414,0.14732155,0.95663416,8.180359,-0.27085367,0.35559833,-0.18186317,2.3878624,20.947666,-80.65218,
9464,-0.4898757,0.452386,9.671944,-0.57711697,-0.017332636,-0.20086035,4.6158495,22.68097,-80.33311,
9514,-0.8312315,1.0249053,8.148021,0.001853779,-0.09003689,0.052672356,2.5415065,21.049044,-80.59795,
9564,0.55455285,1.1646415,8.792005,0.11344014,0.02474526,0.37597984,3.3858433,21.350666,-79.34232,
9614,0.7677505,1.8190066,8.192337,0.46364555,-0.2416594,0.19612783,2.6449738,20.218372,-80.3794,
9664,0.74539274,1.6293645,9.311026,0.29746443,0.05297474,0.16985133,3.620718,18.838947,-79.92645,
9714,-0.26230526,0.44519955,10.960312,0.084056616,0.09744949,-0.10871508,4.184176,18.54202,-78.98041,
9764,-0.6495743,0.5857343,11.191476,0.16670331,0.116624236,0.2593335,4.3912306,18.688156,-80.911514,
9814,-0.101808205,1.8046336,10.094347,0.23461385,0.36341026,0.4874774,4.648123,16.9728,-79.20864,
9864,0.14732158,0.5210564,11.839852,-0.510538,-0.10601584,0.092087105,6.7763195,16.762115,-78.9727,1156.0
9914,-1.4720219,-0.1201334,11.844244,-0.34471193,0.1512453,-0.092558585,7.006292,17.692644,-79.41626,
9964,-0.02036192,0.0371697,9.639205,-0.070051506,-0.27272958,0.25720295,6.6967573,18.82236,-79.15331,
10014,-0.015570976,-0.23751184,9.240358,-0.350926,-0.04245512,-0.012131178,7.109567,16.961016,-79.147285,
10064,-0.53858376,0.069907896,8.588389,-0.1723168,-0.10228741,-0.02189609,8.006081,18.023346,-79.65316,
10114,-0.06707378,0.6560017,8.180359,0.045707125,0.03566421,0.16239448,6.645912,17.899185,-78.39585,
10164,0.18325374,0.95663416,7.7563596,0.3097149,-0.16593692,0.029502869,7.3917255,16.91539,-79.19132,
10214,-0.10659915,0.92429525,8.812766,0.073403984,-0.10051197,0.03651585,8.033029,16.148972,-78.49586,1080.0
10264,0.65755844,1.1291087,9.114595,0.11210856,0.07241581,-0.025091885,7.1601467,17.13995,-78.73538,
10314,-0.113785595,0.43641612,10.876869,-0.015900612,0.037794735,-0.25004002,7.928482,17.186998,-77.99459,
10364,-0.5928813,0.6763632,11.675363,-0.061263084,-0.25675064,-0.21577403,7.697565,17.885166,-78.730644,
10414,1.7315315,0.20006223,11.756808,-0.0251329,-0.054350544,-0.19020772,8.083842,16.783117,-78.863045,
10464,-0.2323618,-0.5345512,12.117329,-0.5124022,0.77575606,-0.43015832,9.003666,18.06979,-77.539566,
10514,0.2559166,0.24797182,9.802098,0.34380338,-0.018309146,-0.015504513,10.595373,17.55984,-78.70639,
10564,1.0863491,0.67277,6.959863,-0.43357268,0.072149485,-0.28395092,9.15968,17.102386,-78.2983,
10614,-0.7206402,0.006826972,10.329103,-0.68577385,0.21959971,-0.3617151,10.233154,18.32155,-76.71229,
10664,-0.796497,0.39968544,8.206709,0.21037912,-0.3989633,-0.12709087,10.464364,18.825539,-77.74414,964.0
10714,-0.08344287,0.7677906,8.494966,-0.11337223,-0.036951263,0.045393053,9.514638,19.428436,-77.56839,
10764,0.3772875,0.95304096,9.211613,0.21064542,-0.098825306,0.12937132,10.385748,20.004803,-77.682365,902.0
10814,0.10659843,0.98897314,9.066686,0.1122861,0.0651365,0.0056232163,11.206589,19.216156,-77.00796,
10864,-1.1354572,0.18289465,11.744831,-0.018918857,0.07827474,-0.003520295,10.693843,19.13544,-76.96819,821.0
10914,-0.31580427,0.31744072,11.590722,0.33190793,-0.213785,0.27726543,11.513684,19.51796,-76.84905,764.0
10964,0.15091479,0.8500354,11.6693735,0.12755488,0.32301903,0.32751036,11.463179,18.783224,-76.63545,
11014,-0.41801134,-0.035493154,11.946053,-0.15829085,0.04809228,-0.005029425,12.12939,19.763716,-77.45564,664.0
11064,-0.86836135,-0.3956134,11.10404,0.016767468,-0.024523182,0.059330247,12.078358,19.66312,-77.55893,601.0
11114,0.053099412,-0.064238906,9.372509,0.043931693,0.024478937,0.22897345,12.180667,19.764494,-77.45438,546.0
11164,0.0011973679,-0.36207673,9.027161,-0.14337714,-0.100511976,-0.055806983,12.306873,20.492428,-76.55687,498.0
11214,-0.7605648,0.28470245,8.559643,-0.042887285,0.41702855,0.019915503,13.4076185,22.100298,-76.93502,447.0
11264,-0.1413336,0.695527,7.447343,0.30403352,-0.046006013,0.15440501,14.613842,21.258701,-76.89527,396.0
11314,0.18325372,1.1462762,7.595863,0.21570542,-0.20002535,0.0651892,13.306709,21.642618,-77.860825,357.0
11364,-0.17606805,0.90273595,8.866664,0.066479765,0.080227725,-0.071430854,12.616346,20.617868,-78.33042,322.0
11414,-0.8132653,0.76539516,9.713466,-0.051409394,0.2891969,-0.11963403,13.309242,20.499355,-78.724525,285.0
11464,-1.3821914,0.41884926,11.393894,-0.044307638,-0.06305021,-0.17458387,13.845884,21.664934,-78.54411,253.0
11514,-0.61124665,0.1904803,11.737645,-0.009864107,-0.3619454,-0.09140454,14.795001,21.697336,-78.959366,223.0
11564,1.6516821,0.0319795,12.126911,-0.15527259,0.03726211,0.21796574,13.076094,22.602156,-79.19317,199.0
11614,-0.01796647,-0.18880378,12.258263,-0.22478104,0.25723898,-0.35612252,14.229663,22.911781,-79.34862,169.0
11664,-0.92705053,0.870397,9.066687,0.27793455,0.086264215,-0.12575929,14.2283325,23.363659,-78.70902,144.0
11714,1.4352905,0.7174856,8.266597,-0.071915716,-0.037040032,0.09155446,15.356954,23.084803,-78.75512,127.0
11764,-0.73062134,0.3230301,8.780426,-0.547112,0.17982988,-0.5600317,13.689383,24.303223,-79.42976,109.0
11814,-1.4145304,0.5330338,8.728924,-0.15527259,0.027408421,-0.17582665,14.431877,25.413897,-79.83686,89.0
11864,0.49227044,1.2369052,8.272585,0.18365876,-0.26012397,0.23980366,15.150167,26.432722,-81.43002,78.0
11914,0.46352473,1.3850256,8.823944,0.18081805,-0.111608475,0.039090246,14.227661,25.543524,-80.823616,73.0
11964,-0.07306245,0.7098999,10.608176,-0.026198162,-0.03535336,-0.10427648,12.383022,24.556192,-80.93545,
12014,-0.9753594,0.14576471,11.041359,0.13075067,0.009565249,-0.059446637,13.663251,26.745615,-82.03809,66.0
12064,-0.6695366,0.46915433,10.69681,0.2603577,-0.14472042,0.25294188,13.536491,26.169722,-82.627846,
12114,0.941822,0.5186609,11.4342165,-0.024245173,0.1680232,0.45534196,13.563332,25.937033,-83.424095,61.0
12164,-0.80607885,-0.66750026,12.245486,-0.32642496,0.015601742,-0.22234316,13.381924,26.828411,-82.79408,
12214,-1.5087527,-0.5904457,11.206647,0.026088528,0.0055705123,0.019116543,13.664805,26.483719,-83.11838,
12264,0.595276,-0.383636,8.993624,0.17194085,-0.19549797,0.16115169,13.919718,27.423903,-82.942375,
12314,-0.46272698,-0.3964119,8.726528,-0.20667154,0.011163143,-0.28315192,12.228465,26.85502,-83.15841,
12364,-0.796497,0.39369676,7.956382,-0.07253712,0.3456559,-4.132837E-4,12.459019,27.60894,-83.90943,
12414,0.34694472,1.0919787,7.5798926,0.0742917,-0.016800024,0.16559027,12.997188,27.451698,-83.45573,65.0
12464,-0.08503985,1.1374929,8.454641,0.06381661,-0.065890916,0.024442868,13.8433,27.994999,-84.11161,
12514,0.19882435,1.0847924,9.242754,0.15658331,-0.23544535,0.020980762,12.383367,27.036142,-84.34318,
12564,0.33816132,0.44440103,10.121495,0.09257872,-0.20295481,-0.3013502,12.3074875,27.792976,-86.2368,70.0
12614,-0.47550285,0.19127882,11.108831,0.09826013,-0.1608769,-0.27835828,10.333912,27.223673,-86.20191,
12664,0.76535493,0.4979001,11.352771,0.093111366,-0.06979688,-0.22181053,9.847105,27.091122,-86.36724,
12714,0.57491446,-0.22912769,11.928085,-0.4604706,0.272419,-0.5425436,9.462198,27.065351,-86.06699,
12764,-0.82125026,-0.75333816,12.108945,-0.082479574,0.17450355,-0.4132029,9.84474,28.135727,-85.5282,76.0
12814,0.70187485,-0.033896156,9.337376,0.15764855,-0.10282005,-0.008846614,9.973821,28.342957,-86.58494,
12864,0.771743,0.017207384,9.634414,-0.21315189,0.18746425,-0.34431586,8.153105,27.885458,-85.79953,
12914,-1.0336493,0.2523635,9.381692,0.13154963,0.18693163,-0.33348566,9.101281,28.292173,-85.83224,
12964,-0.22557457,1.1630446,7.466507,0.34824196,0.04809228,0.03491796,8.999867,27.600006,-86.0073,82.0
13014,0.33656436,1.5243626,7.621015,0.02555589,-0.047160033,0.023111291,7.8217177,26.262758,-85.53103,
13064,0.29584122,1.4441141,8.8367195,0.18454647,-0.13726358,-0.05172347,6.5394964,26.825607,-86.05953,
13114,0.2814684,0.88237435,9.639206,0.06497065,-0.18005165,-0.181153,8.489913,25.914251,-86.49056,77.0
13164,-0.3253862,0.23040496,11.101246,0.21952261,0.07383615,-0.010710825,6.850322,24.834461,-86.41566,
13214,-0.3030284,1.1997752,10.180584,0.22768962,-0.003750544,0.103805,6.286568,24.556425,-86.37488,71.0
13264,1.4871925,0.47474375,11.543611,-0.39282632,0.2357562,0.0645678,7.6193943,24.0516,-85.30411,
13314,-0.001198113,-1.1298275,12.7677,-0.48044428,0.10836845,-0.7470742,6.18199,25.450132,-85.66559,64.0
13364,-0.45154807,-0.950566,11.596311,-0.03116939,-0.036241073,-0.177247,6.080117,25.198261,-85.97473,
13414,1.7079759,-1.109466,10.064404,0.13234857,-0.31853592,-0.30951723,5.1564994,24.99929,-85.22158,57.0
13464,0.43956995,-0.8675227,9.821261,-0.023179915,0.17361583,-0.6024647,4.618725,24.451777,-85.15124,
13514,0.91866565,-0.31057394,8.264201,0.398842,0.10206563,-0.5183088,4.5422473,24.10704,-85.12335,52.0
13564,1.8065897,0.02838628,7.6996665,0.2284886,-0.26207694,-0.7119205,3.2378578,22.06643,-85.544876,
13614,1.6816255,0.26913187,8.082145,0.025289582,-0.07973934,-0.9440592,2.0323932,22.101912,-85.26574,
13664,1.6979947,0.28150848,9.552968,0.06976434,-0.0050821267,-1.1388249,2.468461,20.899805,-83.925476,47.0
13714,1.6241341,0.20205848,8.6714325,0.21330857,-0.591776,-1.5764707,0.3934021,19.542765,-83.883995,
13764,0.50584483,-0.726988,11.674564,-0.34089476,-0.26234326,-1.7966251,-3.0695677,20.453028,-83.671135,43.0
13814,0.65755844,-0.17403167,11.40587,0.22928755,-0.20881379,-1.6015043,-3.0425758,18.964022,-83.03417,
13864,2.6633723,-0.40120283,10.305947,0.11077697,-0.31560642,-1.5817082,-3.52919,19.190731,-83.82272,39.0
13914,0.1485193,-2.1047873,12.907837,-0.518705,0.015779287,-2.3882015,-4.8876076,17.620138,-82.34226,
13964,-0.8180563,-0.30059275,9.7877245,0.3477981,0.017554725,-1.8916998,-6.3736496,16.232944,-81.615135,
14014,2.1235914,0.6068944,8.108496,0.020850977,-0.055415828,-1.254406,-5.601496,15.0472,-82.79452,
14064,-0.46272695,0.2735236,9.143341,-0.41599584,-0.28071904,-1.973459,-5.9083395,14.018391,-82.27435,
14114,-1.2360673,0.893154,8.500156,-0.21226418,-0.44707772,-1.5477085,-6.8826613,14.148697,-82.45486,
14164,0.54018,1.1510671,9.576125,-0.16193047,-0.39203912,-1.056267,-6.5229864,12.624879,-81.19015,37.0
14214,-0.026350632,1.7195941,8.442664,0.20336612,-0.07157232,-1.1400677,-8.522456,12.468601,-81.444435,
14264,0.015570243,2.069334,9.395665,-0.033033602,0.048447363,-0.88715637,-7.2137523,11.581351,-81.27264,
14314,-0.24194369,1.2728374,11.254955,-0.14852591,-0.11134216,-0.8220866,-7.3433113,12.055852,-80.6365,
14364,-0.43318272,0.7965364,11.843045,0.19440016,-0.24316853,-0.56811,-8.060635,11.578935,-80.59723,
14414,0.6946884,1.5279559,9.992538,0.43452832,0.01560174,-0.18825476,-7.7003217,10.963229,-81.04543,
14464,1.3027407,0.5002956,11.137977,-0.30867052,-0.15049058,-0.4607846,-6.677025,11.395047,-79.47733,
14514,-0.5042486,-0.13091305,12.548514,-0.5076973,0.03175824,-0.7459202,-6.9313126,10.350028,-80.09062,
14564,0.12256829,0.041960653,10.424923,0.12941909,0.12088529,-0.1475972,-7.292625,11.823302,-79.80714,
14614,0.48628175,0.20804717,8.59358,0.31326583,-0.1976285,-0.27152285,-7.444493,10.588699,-80.05456,39.0
14664,0.07625571,0.21283813,8.585994,-0.10200941,-0.0751232,-0.43015832,-7.983944,10.497696,-79.03516,
14714,-0.23835048,0.4895159,9.097828,-0.121539235,0.1262116,-0.36775163,-8.215734,11.376332,-79.205864,
14764,-0.24673465,0.91112006,8.342053,0.28015387,-0.10601584,-0.2655751,-6.3706255,11.706116,-78.6995,
14814,-0.15211324,1.6293645,7.481678,0.10163347,0.13366844,-0.12327367,-6.8823376,11.828755,-79.84858,
14864,-0.14971778,1.6082044,9.788923,0.11370645,-0.05541582,-0.14333615,-6.138973,11.552944,-79.31101,
14914,0.79569775,1.1223215,10.037654,0.3035009,-0.4690931,-0.32585126,-6.6782913,11.363669,-78.290474,
14964,0.13175094,0.72666824,11.419046,0.124359086,0.2500485,-0.25678667,-8.062208,12.106449,-79.82957,
15014,0.17047782,0.9666154,11.378323,0.0130390525,0.28901938,-0.07214103,-7.3437614,11.675888,-79.75512,42.0
15064,1.4145297,0.1421715,12.028696,-0.18909469,-0.5030928,-0.49966675,-7.448915,12.866731,-78.89453,
15114,-0.9402258,-0.3980089,11.9420595,-0.3601583,0.12372599,-0.6385061,-8.833332,12.892539,-79.08402,
15164,0.48987493,0.02838628,10.347069,0.19333489,-0.18378007,0.18476503,-7.6037397,13.963015,-79.37535,45.0
15214,1.6397047,1.0360843,7.119162,-0.038271148,-0.23242708,0.046635855,-9.192607,13.373822,-79.40806,
15264,-0.032339334,1.026103,8.320495,-0.8671349,0.55524653,-0.2674393,-9.371495,13.62861,-80.26667,
15314,-0.9242558,0.7486269,8.827139,-0.25718278,-0.16780113,-0.15949261,-9.811763,15.779114,-78.98702,
15364,0.5485642,1.0117302,8.074959,-0.057268344,-0.23251587,0.23643032,-9.990269,15.691103,-79.76427,49.0
15414,0.40523478,1.3219447,9.061896,-0.1751575,0.28333795,0.15671308,-10.684456,16.839935,-79.48531,
15464,0.12097131,0.5290413,10.769872,-0.13423362,-0.28817588,0.030834451,-10.529422,16.778076,-80.4867,52.0
15514,0.028346127,-0.13770024,11.820689,0.2560967,0.14041512,0.1078885,-10.582076,17.470999,-80.10912,
15564,-0.4767006,0.3194369,11.111227,0.24260336,0.10836845,0.20846714,-11.60686,17.565536,-80.98692,
15614,0.40443626,0.15055567,11.476537,0.090093106,0.17077513,0.33603242,-11.810618,16.50715,-80.90234,56.0
15664,-0.8767455,-0.9621441,11.117216,-0.3885653,0.29159376,-0.049859263,-11.526949,15.500661,-81.115776,
15714,-1.1701918,-0.9849012,11.315242,-0.23117262,-0.06873161,0.261464,-12.11836,17.178808,-81.6916,60.0
15764,1.5941906,-0.3956134,8.128857,0.31521878,-0.48347422,0.39036092,-13.837062,17.59844,-81.50706,
15814,-0.24793242,-0.36287522,8.895011,-0.3129316,0.10916739,-0.2336172,-13.553405,16.809204,-81.98096,
15864,-0.57970613,0.16133533,8.707365,0.08547696,0.33802152,0.097058326,-13.297991,16.946745,-81.25395,
15914,0.45474133,0.9706078,7.0624695,0.38162023,-0.21121062,0.015121818,-13.756434,15.572277,-82.332794,
15964,-0.41202268,0.53742546,9.170889,0.11139838,0.12603407,-0.059890497,-14.063106,14.710039,-82.17567,
16014,0.2431407,1.0584421,9.012389,0.51797396,-0.036241084,0.005534446,-14.166702,15.759509,-82.55152,
16064,0.14612384,0.9973573,9.834436,0.2553865,-0.21662574,-0.16783719,-14.446638,14.617759,-83.03535,
16114,-0.041122753,0.43641612,11.6554,0.033811685,-0.1792527,-0.23042142,-15.085332,12.744324,-82.79739,
16164,0.88153577,0.9686116,11.954435,-0.067920975,-0.3224419,-0.16428632,-15.904406,11.217911,-82.18103,
16214,1.1973397,-0.26066813,12.069019,-0.4199906,0.38134223,-0.19500142,-17.751705,12.075122,-82.185326,
16264,-1.3809937,-0.78727406,11.918503,-0.3202109,0.20646144,-0.43575096,-16.444407,13.11216,-83.14499,
16314,-0.31261036,0.08907173,8.650672,0.059910648,0.08386737,0.13842607,-18.211937,12.051132,-83.331436,
16364,1.2037276,0.0319795,9.058302,-0.39548954,-0.04618354,0.19186677,-18.903717,12.251317,-84.0474,
16414,-0.28466305,0.8133047,7.7755237,-0.0817694,0.011695774,-0.06637085,-17.445318,13.061748,-82.24072,
16464,0.4359767,1.1051539,7.661738,-0.064192556,-0.09749373,0.1313243,-18.367096,13.079503,-83.424576,
16514,0.50504637,1.1327019,8.925354,-0.110531524,-0.2226622,-0.031749777,-18.521002,12.981599,-83.24673,
16564,0.84440583,0.9075269,10.190166,0.17708963,0.028207356,0.07042674,-18.907143,13.382364,-82.35817,
16614,-0.076256424,-0.22633292,11.37992,0.26018018,-0.14543058,-0.17582668,-19.186209,11.60184,-82.83459,
16664,-0.44555938,-0.39321798,11.678956,0.48690376,-0.13815129,0.08551797,-19.825432,10.84503,-83.51237,
16714,0.95300084,0.94984704,9.991342,0.4987992,-0.2751264,0.32777667,-20.415316,10.259571,-82.643265,
16764,0.88153577,-0.118935674,11.34838,-0.40081584,0.25191268,0.024797961,-21.670067,9.8576975,-83.6242,
16814,-1.2556304,-0.71021956,11.886165,-0.423719,0.18719795,-0.21417616,-20.722145,10.3884115,-83.58097,
16864,-0.0023958385,-0.18960227,9.406845,0.09240118,-0.114715494,0.25081137,-21.440449,10.817041,-83.78436,
16914,0.5409785,-3.594607E-4,8.855086,-0.12837468,-0.18564428,0.087293416,-20.722696,11.167645,-84.054306,
16964,-0.22277987,0.34818265,8.234258,0.0034516752,0.11023265,-0.0421361,-21.903801,11.847693,-83.420906,55.0
17014,0.13694118,0.7462313,8.04781,0.14033803,-0.08497688,0.014589184,-21.85067,11.534351,-84.705666,
17064,-0.1569042,0.6560017,9.176879,0.09098083,-0.010852302,-0.08776489,-23.132889,11.156411,-84.06253,
17114,0.22158143,0.805719,9.921873,0.29506758,-0.06580214,0.02843761,-22.97792,10.830093,-84.67396,
17164,0.4387715,0.616077,9.717457,0.32480615,0.008322448,-0.1275347,-23.05477,10.77979,-84.675285,
17214,-0.28865552,0.45837468,9.979363,0.1965307,-0.23091798,-0.16064666,-23.181551,9.408204,-84.249855,51.0
17264,0.7581685,0.35417137,11.374331,-0.16414978,-0.027896516,-0.021541005,-23.743498,9.057865,-85.75583,
17314,2.0074105,-0.05425772,11.542414,-0.36246634,0.333938,-0.16703825,-23.232409,9.932483,-85.28895,
17364,-0.082644366,-0.60402,12.259061,-0.33121863,0.394658,-0.43947935,-24.054989,11.3473015,-85.17103,47.0
17414,-0.26110753,0.2487703,9.415228,0.19386753,0.33686745,0.08249973,-21.951216,10.685895,-85.47216,
17464,0.8963079,0.4627664,9.184065,-0.19024873,-0.06837653,-0.11830244,-23.282257,10.0091305,-86.683945,
17514,-0.6371977,0.7302615,8.666641,0.022892736,0.19465479,-0.091670856,-21.951662,11.511948,-86.10079,
17564,0.047509957,1.1854024,8.007086,0.20105805,-0.086841084,0.12795098,-23.052006,10.381155,-86.68254,44.0
17614,0.3856717,1.6573117,7.7264166,0.24420124,-0.003750544,0.11419132,-22.306658,9.861838,-87.63816,
17664,0.3980483,1.6932439,9.408441,0.14655207,-0.12057444,0.012192339,-23.281816,10.43746,-87.61749,
17714,-0.19882509,1.1015606,10.306346,0.2671044,0.04365368,-0.008313982,-23.484854,9.538313,-88.38595,
17764,-0.09701725,0.7430374,10.750709,0.2671044,-0.10690355,0.18494256,-23.817116,8.578568,-88.150955,41.0
17814,-0.5341921,1.0800014,11.699317,0.12382646,0.057502106,0.23509873,-23.331263,9.013272,-87.499054,
17864,0.5872911,0.9378696,10.610172,-0.23374699,0.22492604,0.2501012,-23.431202,8.928607,-89.77044,
17914,-0.7988925,-0.64474314,12.495813,-0.62558645,0.098248444,-0.27462983,-23.126719,10.808951,-89.21716,
17964,-0.735013,-0.2989958,11.065314,-0.1451526,-0.1893727,0.13789344,-22.742369,11.010946,-89.23574,37.0
18014,1.500767,0.1385783,8.470213,0.08618715,-0.11009935,0.3573377,-23.998741,11.378409,-89.70974,
18064,-0.54816574,0.34458944,8.655462,-0.29562104,0.1547074,-0.09060559,-24.280743,11.060147,-89.35196,34.0
18114,-0.18325448,0.57335764,8.209105,0.06949801,0.008677542,0.08818114,-23.536568,11.231827,-90.10925,
18164,0.01157778,1.0951728,7.7659416,0.22928753,-0.12732111,0.054536566,-25.048304,10.737443,-90.45067,
18214,0.20361532,1.0117302,9.168494,0.24704194,-0.13140462,0.03704849,-23.996283,10.911475,-91.3551,
18264,0.50025535,1.0800014,8.308917,0.3627118,-0.111608475,-0.022162408,-25.2757,9.024838,-91.36508,31.0
18314,-0.60964966,0.27152735,11.27412,-0.0922445,-0.011917566,-0.27454108,-24.658773,7.7105823,-91.12815,
18364,0.19523112,0.4252372,11.738442,0.1398054,-0.3097475,-0.10818244,-24.89216,9.551239,-91.05211,
18414,2.672156,0.9111201,11.487318,0.010020803,-0.16797866,0.029059008,-26.352493,8.091121,-90.2977,
18464,1.2644131,-0.17762487,12.308567,-0.46366638,0.3557759,-0.50845516,-25.890978,8.218647,-90.44246,
18514,-1.4660332,0.12660089,10.258437,-0.107335724,0.33624604,-0.42722884,-25.272375,7.0508914,-91.90961,
18564,1.5678402,0.7701861,8.776834,-0.11319468,-0.21254219,0.24788189,-24.118553,7.2606974,-92.16707,
18614,-0.30063295,0.7925439,9.461941,-0.42194355,-0.07299268,-0.22980003,-24.247818,7.56245,-91.58051,
18664,0.114583395,1.1877979,8.047011,0.24952753,-0.24476641,0.15254082,-26.119957,7.540223,-91.21412,
18714,0.78092563,1.724385,6.8568573,0.3095374,-0.128919,0.06616569,-25.169924,6.089021,-90.60621,
18764,0.29424423,1.6078051,9.170491,0.034876946,-0.21307483,-0.14333613,-25.809464,5.481165,-91.18255,
18814,0.19283564,1.5830519,10.174595,0.16430648,-0.08897162,-0.06361891,-26.399775,4.7084255,-89.69224,
18864,-0.062682055,0.6719715,11.934074,0.20931384,-0.062073715,0.034296557,-26.114029,3.264203,-91.24184,
18914,0.25392038,1.5818541,10.459657,0.50075215,0.05874492,0.32839808,-25.93381,2.2439423,-90.632286,
18964,1.2907633,1.3730483,11.218624,0.05511696,0.3613685,0.40740514,-25.575562,1.6798286,-89.27554,
19014,0.21679044,-0.116540164,11.993961,-0.35341159,-0.21644817,-0.27010247,-26.141655,2.614896,-88.6298,
19064,-0.42839178,0.10743707,10.751506,-5.4305047E-4,0.4428612,0.18263452,-25.573963,0.57310104,-89.34007,33.0
19114,1.2324734,0.56018245,7.9923143,0.089382924,-0.13637584,0.16203941,-25.729494,1.5823084,-89.07189,
19164,-0.741401,0.05393806,9.008396,-0.36779267,0.32728007,-0.2719667,-25.958664,-0.22727013,-88.25701,
19214,-0.4994576,0.45717692,9.007997,-0.021759564,-0.16833377,0.06563306,-25.268602,1.7904917,-88.753296,36.0
19264,0.7006771,1.4736584,8.13724,0.27136543,-0.032512657,0.18982503,-25.114868,1.408226,-88.17758,
19314,0.19882435,1.6992326,8.550461,0.29373598,0.04578421,0.08463026,-25.626768,0.37553024,-87.71407,
19364,0.6886997,1.6429389,9.093037,0.37229916,-0.13744113,0.008730234,-25.418644,-1.7599468,-87.76154,
19414,0.12256827,1.3770407,9.764569,0.14371137,0.23806429,-0.14102808,-26.034533,-1.6414248,-87.44291,
19464,0.2611068,1.095572,10.792628,0.066035904,-0.17046428,-0.17263089,-25.032232,-3.5874596,-87.11171,
19514,0.3014307,0.9913686,12.929794,-0.17409223,0.13260318,-0.19997264,-24.853493,-3.8161342,-86.15023,38.0
19564,0.6264173,0.44280404,12.92221,0.025555888,0.23620006,-0.16091299,-24.340075,-3.9373684,-86.54877,
19614,-0.26070827,0.47873625,10.363439,0.29675424,0.048624914,-0.18186317,-24.031836,-4.639769,-86.171844,
19664,0.1844515,1.5339446,7.683297,0.07775381,0.2686906,0.3264451,-23.492058,-6.2657013,-85.33998,
19714,1.3921719,1.5311499,7.873738,-0.42442918,-0.17738849,-0.00804766,-23.670523,-6.1130447,-86.45532,
19764,-1.0360448,1.3914136,8.682213,-0.4269148,0.22554743,-0.2599825,-22.956398,-4.483986,-85.03775,
19814,-0.27747664,1.5032026,8.629112,0.075534515,-0.23881869,0.2193861,-22.903788,-5.393389,-85.1033,41.0
19864,0.7461912,2.2873225,7.843795,0.4031918,-0.22825482,0.27264926,-23.186245,-5.150831,-85.03574,
19914,1.4121342,2.6426518,7.7140393,0.11690224,-0.15253235,0.15014397,-23.673395,-5.5923448,-84.50108,
19964,0.6898974,1.5471196,10.2165165,-0.34409055,-0.030914761,-0.09619822,-23.109743,-6.1572075,-83.39716,
20014,0.3525342,0.88836306,11.217827,-0.09526274,-0.15288742,0.00899655,-23.570282,-6.7077994,-83.60859,
20064,-0.0071868077,1.3602724,11.08847,-0.047414653,0.3376664,0.21379346,-24.955982,-6.4719315,-82.89777,44.0
20114,0.48987496,0.6296514,12.1848,-0.4546117,0.0026410471,0.0038477678,-23.212255,-6.4005837,-83.13896,
20164,-1.1342595,-0.32015583,12.147272,-0.43969795,0.2335369,-0.15532035,-22.650057,-5.691761,-82.30777,48.0
20214,-0.21998517,-0.15526707,10.5359125,-0.07750835,-0.14773865,0.25667033,-21.828798,-5.931166,-82.69727,
20264,0.5581461,-0.18481131,9.554167,-0.35208005,0.19705163,0.007931288,-22.188484,-5.106703,-83.0769,
20314,-0.49786067,0.26154616,8.611546,-0.12544522,0.49452645,0.05586814,-22.035034,-4.9062805,-82.97222,
20364,0.34135532,0.975798,7.7791166,0.07287135,0.006191919,0.17233694,-20.728073,-3.7682686,-83.7525,52.0
20414,0.21758895,1.2396998,7.987124,0.16963279,-0.06953057,0.039889194,-20.394682,-4.632608,-82.72823,
20464,0.09941201,1.4764531,9.203229,0.3107802,-0.111519694,0.06403516,-20.26384,-6.692074,-82.546364,
20514,0.8659651,1.4816433,8.86866,0.3741634,-0.34197173,-0.024559248,-20.702278,-6.5679855,-80.392006,
20564,0.4635247,0.72427285,10.592606,-0.10378485,0.16793443,-0.07888769,-20.033588,-6.3200455,-82.544945,
20614,-0.26310375,0.22880799,12.16404,-0.11692311,-0.11107584,-0.2589172,-19.315771,-7.2487817,-81.27822,
20664,1.3510495,0.43441987,10.141058,-0.15669294,-0.48542717,-0.10978034,-20.728607,-6.4385853,-79.92986,
20714,0.012376268,-0.99687856,13.735474,-0.88124967,0.39359272,-0.374232,-19.11284,-5.4798455,-81.50001,
20764,0.2551181,0.2092449,8.703772,0.34256053,-0.2008243,-0.032371182,-18.189785,-5.9728928,-80.878075,
20814,1.3817915,0.40128243,8.768848,-0.56033903,0.2838706,0.089157626,-18.498142,-6.3302574,-79.82406,
20864,-0.23715274,0.27751604,11.3196335,-0.528825,0.30837166,-0.19358106,-16.576298,-3.826004,-81.86878,
20914,-0.15371025,1.3682572,7.109581,0.5746992,0.3041106,0.055069193,-16.602592,-4.637773,-80.260796,
20964,0.38567168,1.5734699,8.357624,0.07393661,0.031935785,0.11392501,-14.881701,-5.930805,-81.33795,
21014,-0.06667452,1.4465095,8.625918,0.32223177,0.013559988,-0.07595822,-14.13932,-5.4457765,-80.86082,
21064,-0.25871205,1.0153234,10.371024,0.15773733,-0.019196866,0.016986027,-13.498766,-5.3097343,-80.61431,55.0
21114,-0.8052804,0.43082666,10.88725,0.29346967,-0.09562953,0.036160767,-14.34522,-5.5831733,-79.98734,
21164,-0.52461016,0.79613715,11.010617,0.261423,0.12958494,0.35609493,-12.885376,-5.0572777,-79.131714,
21214,0.45553982,1.1135381,10.71318,0.011174843,-0.034643184,0.4055409,-13.884965,-5.366501,-79.10141,
21264,-0.27907363,-0.038687125,12.871904,-0.48532677,0.12674424,0.031367082,-14.193075,-4.1351776,-80.25827,
21314,0.26709548,0.06511695,11.042956,0.058579065,-0.12465796,0.16452502,-12.501717,-3.4952915,-80.2236,
21364,0.50305015,-0.038687132,8.7504835,-0.021404475,-0.2214194,-0.11830244,-13.657889,-2.1300354,-79.803894,
21414,-0.8811372,-0.15367007,9.196042,-0.3448895,0.5853402,-0.22376353,-13.068969,-1.3387629,-80.05634,
21464,-0.6910959,0.5206571,7.5886765,0.20904754,0.2256362,0.06030674,-12.11875,-1.1763268,-81.63381,
21514,-0.31899825,1.2013723,7.222168,0.22662437,-0.2343801,0.08170079,-13.170995,-1.3956337,-80.470924,
21564,0.076654956,1.384227,8.38637,0.23461385,-0.08719619,0.16345976,-11.735392,-1.081728,-80.61941,
21614,0.57451516,1.5327468,8.281768,0.34220546,-0.33291698,0.05959656,-12.914243,-1.444739,-80.72191,51.0
21664,0.30182993,0.34698492,10.942347,-0.19983612,-0.26083413,-0.21914738,-13.274773,-1.670393,-79.025856,
21714,-0.36890408,-0.33692423,12.263453,-0.03756097,-0.07805267,-0.24986249,-13.070449,-0.5471776,-79.70443,
21764,0.6423871,-0.05864944,11.53403,-0.2681905,-0.15643834,-0.18363862,-14.047066,0.0961113,-78.44646,47.0
21814,-0.2455369,-1.0903022,14.216965,-0.617597,0.49692333,-0.43548465,-13.4811325,0.32101187,-80.39535,
21864,-0.28546157,-0.124125876,10.709985,0.25307843,0.043121055,0.09066675,-13.046381,1.1867447,-80.44614,
21914,1.8181678,0.43801308,8.9421215,-0.35980317,0.1395274,0.17943871,-13.021306,1.2670122,-80.033745,
21964,-0.23515649,0.31025425,9.70069,-0.35074845,0.3307422,-0.12753473,-14.1262045,4.032138,-81.357155,
22014,-0.4994576,1.0189166,7.9659643,0.049524322,0.043387365,0.21991873,-12.816594,2.4815502,-81.17765,
22064,0.6934907,1.4353307,8.009482,0.09666223,-0.0017975628,0.23625277,-13.20301,4.477949,-82.0358,
22114,0.72942287,1.6369501,8.875048,0.26657176,-0.005881073,0.049742877,-14.356174,4.0182133,-82.05915,
22164,-0.083442874,1.6030141,9.449164,0.27828965,-0.010852303,-0.09007296,-15.894641,3.634451,-81.5513,
22214,-0.30302837,0.72666824,11.970007,0.18614435,0.046050526,0.040421825,-14.611785,3.232001,-81.79846,
22264,-0.6655442,0.43322214,11.141171,0.5758533,-0.02239266,0.19612785,-14.741718,3.0843277,-80.04599,
22314,-0.3916611,1.3650633,10.865691,0.37762547,0.063094735,0.54988414,-16.252653,2.3380852,-80.797165,
22364,0.5888881,1.060039,10.39458,-0.01128446,0.026609465,0.19701557,-17.3582,3.785162,-79.88705,
22414,-1.6696489,0.30865726,10.578234,-0.31373054,0.22847691,-0.087676115,-16.815304,1.876489,-81.52805,
22464,0.28226683,0.47075132,9.424411,-0.21119891,-0.22479273,0.24477488,-16.895039,3.7701597,-81.34561,
22514,0.37129885,0.1146235,9.065489,-0.61413485,0.10916738,-0.17050037,-18.358606,5.054726,-81.087364,
22564,-0.84440655,-0.062641904,9.701488,-0.39309266,0.32728007,-0.15532035,-16.822327,6.2877045,-80.67651,
22614,-0.42280233,0.7901485,7.785105,0.17265104,0.03406631,0.021424621,-17.231089,5.562439,-81.11678,
22664,-0.03393631,1.3251387,8.25462,0.16883385,0.13180424,0.14162184,-16.665392,4.5844097,-81.34933,
22714,0.09102781,1.7459445,8.283365,0.18010788,-0.2255029,-0.011065912,-18.255476,4.4697356,-80.871666,
22764,-0.16488914,1.1526642,10.12469,-0.05380624,-0.08577584,-0.18408248,-18.972763,4.112955,-81.01434,
22814,-0.83003366,0.5889282,10.247658,0.07571205,-0.01919686,-0.20512141,-19.434416,4.107883,-80.896805,
22864,-0.6950884,0.53622776,11.9420595,-0.012793594,-0.1454306,-0.069300316,-18.509516,4.096796,-82.55028,
22914,1.1618067,0.8811766,10.801012,0.15844752,-0.37197664,0.07149201,-19.536684,3.1858616,-80.011665,43.0
22964,0.066673756,-0.26066813,12.192786,-0.51639694,0.17654529,-0.36677516,-20.741398,2.9218922,-80.038574,
23014,-0.7066665,-0.21235931,10.538708,-0.030459216,0.101355456,-0.1744063,-21.074347,3.4426632,-81.03306,
23064,0.71744543,0.6703746,8.096518,0.028219055,-0.13637584,0.121914476,-20.512402,3.9618902,-79.7354,39.0
23114,0.015570246,0.66199034,9.164901,-0.49136326,0.39021942,0.016808482,-21.382805,3.9309018,-80.943214,
23164,-0.24393992,1.1063516,8.1827545,0.06763381,-0.10788005,0.013257604,-20.971313,3.9926872,-82.14602,
23214,0.67911774,1.6321592,7.769535,0.07003065,-0.19017166,0.14197694,-20.869444,3.6415482,-81.081856,
23264,1.0176787,1.4137713,9.711868,0.019696947,-0.09243373,-0.02642346,-20.36184,5.6721687,-78.900246,
23314,-0.016768709,0.975798,9.733828,0.23922999,-0.044230554,-0.22181056,-21.38453,4.4845276,-80.07267,
23364,-0.32698318,0.43242362,11.006226,0.18800856,-0.042632665,-0.014439251,-21.895882,3.92698,-80.69799,
23414,-0.25871205,0.57335764,10.141058,0.42884687,-0.027186343,0.119606405,-22.255045,2.9112885,-79.250694,
23464,-0.17127705,0.92429525,10.615763,-0.1283747,0.22794427,0.26226294,-22.27991,2.3216486,-79.21869,
23514,0.209604,-0.0470713,12.873101,-0.4363246,0.121773,-0.02278381,-21.43482,3.8434327,-80.16968,
23564,-1.1582142,0.06032599,10.49599,-0.07750835,0.099047385,-0.17289717,-21.049381,3.6450024,-80.67367,37.0
23614,0.3281802,-0.041082606,10.378211,-0.25327682,-0.09909163,0.034562875,-21.589685,4.096044,-79.557396,
23664,-0.8124668,-0.017127812,9.18646,-0.21226418,0.09691685,-0.32789302,-21.283798,5.5717154,-79.773224,32.0
23714,-0.8396156,0.43441987,8.475003,-0.06969642,0.25564113,-0.044976804,-21.382683,3.5915794,-80.62975,
23764,-0.3621169,0.9746003,8.193934,0.13900647,-0.24636431,-0.004851876,-20.205376,4.626425,-79.967606,
23814,-0.7605648,0.9015382,8.790009,0.25716195,0.048624914,0.04539305,-20.410187,3.6303005,-79.00678,30.0
23864,-0.5457702,1.4161669,9.399657,0.38827813,-0.31880224,0.087293416,-20.817204,2.544094,-80.57777,
23914,0.19044018,1.4788485,9.666754,0.2708328,-0.007834047,0.06030674,-22.049688,2.235757,-78.618706,28.0
23964,-0.8923161,0.63324463,10.62734,0.06363906,0.04525158,-0.15665194,-22.433973,2.6118155,-79.380646,
24014,-0.4739059,0.5306383,11.9117155,0.12453663,-0.27628043,0.18316714,-21.638472,2.2288578,-79.48539,26.0
24064,2.3032522,0.7422389,10.572245,-0.04981149,-0.24636431,0.18929243,-22.509949,1.2955475,-78.59347,
24114,0.06108439,-0.52017826,11.800725,-0.43934286,0.3770812,-0.44320783,-23.126745,2.0774105,-78.28254,23.0
24164,-0.3425538,0.121809945,9.98176,0.17282857,0.14831582,0.16585661,-21.049767,2.926488,-79.427246,
24214,1.8337383,1.0360843,8.11089,-0.20516245,0.045074034,0.030301819,-20.972399,2.3910148,-79.16118,
24264,-0.5042486,1.0057416,8.488178,-0.41013688,0.35044956,-0.32789302,-21.510574,1.9694309,-78.88594,21.0
24314,-0.46751797,1.2532743,8.292148,-0.09295467,-0.15768111,0.04308498,-20.81936,2.9346225,-79.11208,
24364,0.65995395,1.6165886,8.44506,0.007446411,-0.18298113,0.015121815,-20.434235,2.8609638,-79.48856,19.0
24414,0.33337042,1.4640764,9.522626,0.13039559,-0.12590076,-0.092025936,-21.127087,2.3035336,-78.28701,
24464,-0.22517535,0.83206934,10.51116,0.1496591,-0.2042864,-0.15984772,-20.66409,2.7007875,-80.11148,
24514,-0.6735291,0.30546328,11.216229,0.36635146,-0.03251266,0.13576292,-21.433563,1.1733602,-77.97202,17.0
24564,0.28745705,1.2668487,10.011703,0.5190392,-0.07698741,0.37038723,-21.509186,0.14187431,-77.85879,
24614,0.6104474,0.9730033,10.086362,-0.30636245,0.09283335,-0.025446972,-21.432192,0.045541126,-77.80416,
24664,-0.6240225,-0.8962684,13.657621,-0.7273191,-0.119065315,-0.32203406,-20.049383,1.4884186,-77.99283,16.0
24714,-0.861175,-0.31895813,11.207446,0.005759746,0.12461371,0.095637985,-20.81906,1.049188,-77.02672,
24764,0.6120444,0.11582124,9.847612,-0.07644309,-0.01493581,0.1472145,-20.202394,1.2580223,-78.45827,15.0
24814,-0.12256902,0.11941445,9.423614,0.0508559,0.028207362,-0.15665193,-20.612295,0.8855896,-78.30938,
24864,-0.22397761,0.72307503,7.438959,0.27669176,0.31716007,0.044682875,-19.817406,0.53491974,-77.898636,
24914,0.013174772,1.1526642,7.8689466,0.10731487,-0.10415163,-0.0019224007,-20.047295,-0.37258658,-77.558525,
24964,-0.17007935,1.1877978,8.140835,0.21348614,-0.030737221,-0.0700105,-19.661308,-0.8677635,-78.18804,15.0
25014,-0.16648613,0.9897716,9.202431,0.15045804,-0.21973272,-0.0772898,-19.945116,-0.5107193,-77.0385,
25064,-0.04910767,0.8117078,9.938641,0.12577944,-0.055415828,-0.08794242,-20.430664,-0.8771229,-78.0523,
25114,-0.06667452,0.64721817,10.74432,0.009310624,-0.08311269,-0.063974,-20.813942,-2.1547153,-77.66013,
25164,1.055208,1.2488825,10.402165,-0.07608799,-0.30735064,-0.115106665,-19.967491,-2.773697,-77.16762,
25214,0.4108242,-0.5097979,12.267844,-0.77925074,0.28999588,-0.5137815,-20.712393,-1.4161097,-77.66615,13.0
25264,-1.4492649,-0.57886755,12.888672,-0.3745393,0.14023758,-0.34058738,-19.19781,-1.7556362,-78.86266,
25314,1.8880359,0.70550823,8.966874,0.32649285,-0.3049538,0.2734482,-20.096626,-1.7983183,-77.543236,
25364,1.0791627,0.5769509,9.641601,-0.35323405,0.19634145,-0.25430107,-19.42777,-2.2762318,-78.939735,
25414,-1.242056,0.5002956,9.647989,-0.1755126,0.1717516,-0.41764146,-18.556395,-3.1024258,-77.541405,12.0
25464,-0.0071867704,1.3327243,7.0461006,0.36954722,-0.1681562,0.09244219,-18.50471,-3.4206486,-77.51064,
25514,0.27987137,1.6964378,8.296142,0.07322644,0.018619988,0.08516289,-19.016611,-4.1397476,-77.437675,
25564,-0.13175169,1.5219672,9.040337,0.20531912,-0.117023565,-0.026334688,-18.96455,-4.89711,-77.195465,
25614,-0.19922434,0.94665295,10.803409,0.17522542,-0.18990535,0.025241818,-18.965372,-4.524343,-76.91606,
25664,0.086236864,0.61647624,10.567453,0.49702373,0.05448386,0.20926608,-18.50364,-4.954548,-76.56427,
25714,0.16808237,1.1271124,10.6261425,0.2641749,0.01196209,0.21432608,-18.658691,-5.7125664,-74.521614,
25764,0.39764905,0.83805805,11.610684,-0.03347746,0.22492601,0.17428993,-19.581268,-5.9012527,-74.72294,
25814,-0.27747664,-0.27184704,11.7352495,-0.2426242,-0.057013724,-0.20458879,-18.605183,-6.175635,-75.95939,
25864,-0.9198641,-0.2267322,11.513668,-0.06472519,0.16278565,0.12901624,-18.578972,-5.989893,-76.708916,
25914,1.2228914,0.28869495,8.390363,0.39120758,-0.099091634,0.34641877,-18.451384,-5.9798408,-76.16419,
25964,-0.03713028,0.012815669,9.052313,-0.24972595,0.07791966,-0.19642179,-18.119518,-5.666067,-75.23097,
26014,-0.1920379,0.557787,8.65706,-0.031435706,0.05270842,-0.06290874,-17.887587,-5.774733,-76.152534,
26064,0.73421377,1.3470972,7.519207,0.17744474,-0.057368804,0.028703926,-16.809013,-7.204439,-75.877,
26114,0.25272262,1.468069,8.383176,0.06869906,-0.094297945,-0.15558669,-18.039598,-6.862704,-76.453255,
26164,1.1330609,1.4117751,8.718144,0.26373106,-0.16300744,-0.13286105,-16.653563,-7.94726,-76.40622,
26214,1.0743717,0.85482633,9.35055,0.004783258,-0.44184014,-0.54813623,-18.29439,-8.914107,-75.35248,
26264,0.111389376,0.38690957,11.668176,-0.044840265,0.01134069,-0.45350537,-17.344622,-9.276339,-75.86634,
26314,1.4336935,1.1051538,11.322029,0.28255072,-0.5126802,-0.34493724,-17.165327,-9.536532,-75.36878,11.0
26364,2.9021218,0.2783145,11.569163,-0.47378638,0.11467126,-0.7832044,-17.190048,-10.875814,-74.52847,
26414,-0.83003366,-0.46148902,12.268244,-0.28869683,0.82262766,-1.1713154,-15.163533,-11.123818,-75.042656,
26464,1.0296563,0.37413368,9.350151,0.11601452,-0.1653155,-0.39420566,-13.725615,-11.733221,-76.13478,
26514,2.290077,0.36974198,8.374393,-0.37738004,-0.18963903,-0.7135184,-13.05883,-12.424774,-75.387955,
26564,0.2774759,0.123406924,9.732629,-0.41022566,0.08750703,-0.73935103,-11.33926,-12.084087,-77.30947,
26614,1.2468462,0.4931091,8.306122,0.04366537,-0.38857698,-0.5899478,-12.442722,-12.473835,-75.99111,
26664,1.3801945,0.39729,9.263913,-0.06348238,0.05217579,-0.78338194,-11.033475,-12.199032,-75.44336,
26714,0.92345655,0.20205846,9.938641,0.12595698,-0.18990535,-0.958529,-11.312121,-13.599205,-76.775375,
26764,1.3003453,0.024393806,10.0472355,0.20318858,-0.016001076,-0.9271925,-10.261516,-14.033447,-75.63507,
26814,1.4061456,-0.09498088,10.827364,0.319036,0.43513805,-0.9084616,-8.133232,-14.848298,-74.72149,
26864,1.1534225,0.8668038,9.331786,0.61668843,-0.026476167,-0.8435693,-6.1832023,-16.309277,-74.11439,
26914,2.753602,-0.14049496,8.901398,-0.17071891,0.039126307,-1.3265777,-5.823399,-17.448885,-73.44739,
26964,-1.3770013,-1.5023245,11.679356,-0.45585445,0.13970494,-1.8198833,-2.7973213,-16.784273,-74.72111,
27014,0.4659202,-0.7333759,10.514753,0.30358964,-0.602695,-0.9516048,-0.69412357,-16.859133,-75.2354,
27064,1.768262,-0.5880502,9.56814,-0.21084385,-0.25018147,-1.4014124,0.58736897,-17.388145,-74.08826,
27114,-0.08384212,-0.28901464,9.403252,-0.30307794,-0.086308464,-1.5135314,1.4079977,-17.35383,-74.2488,
27164,0.30302766,-0.033896167,9.420419,-0.31879053,-0.40082753,-1.5374998,3.7423544,-17.575296,-74.936195,
27214,0.24793166,0.34698492,9.62124,-0.28949583,-0.10495058,-1.5058082,4.74147,-16.439636,-75.56934,10.0
27264,-0.5218154,0.7007172,9.299847,-0.118521,-0.58964545,-1.5513482,6.665098,-15.864689,-76.817856,
27314,-0.5270057,1.0476625,8.623524,-0.26517227,-0.07885163,-1.2591997,7.6127887,-16.102785,-75.605,
27364,-0.45234656,0.7182841,11.133985,-0.34595475,-0.3939033,-1.2631946,8.893103,-13.91452,-76.785034,
27414,-0.3245877,1.5207695,9.452358,0.17637946,-0.30291203,-1.0392227,9.509073,-13.696422,-77.59764,
27464,0.19523114,1.4329352,11.122006,-0.10600415,-0.22825482,-0.8682479,10.200749,-14.112312,-76.51806,
27514,-0.028746106,1.200973,11.469351,0.010375886,-0.24219203,-0.83078617,10.792297,-14.513829,-77.65943,
27564,1.1598104,0.49710158,10.456063,0.06949801,0.034865256,-0.59314364,11.738434,-12.3432255,-78.04794,
27614,1.3989592,-1.0795226,11.568764,-0.37809023,-0.15093444,-0.90073854,11.352951,-12.67487,-76.84138,
27664,-0.4132204,-1.0519744,11.408666,-0.2008126,0.35337904,-0.9161848,11.276533,-12.562075,-77.43784,
27714,0.6144399,0.25835222,10.277601,0.34664407,0.015779287,-0.32176775,13.762436,-12.147704,-76.839134,
27764,1.2380627,1.0784044,7.0728493,0.38135388,-0.091634795,-0.45785517,13.582531,-11.710516,-77.00343,
27814,-0.7665535,-3.5946816E-4,10.143454,-0.6405001,0.33571342,-0.7927918,14.222682,-10.966061,-77.150894,
27864,-1.0112915,0.4483935,9.184065,-0.18190418,-0.07592215,-0.4807583,13.119511,-9.237045,-78.74601,
27914,0.22637236,1.1374929,9.151726,-0.07058414,0.056969475,0.07433271,15.555939,-9.788174,-78.57584,9.0
27964,0.937031,1.6221781,8.527703,0.2852139,-0.26500642,0.07344499,15.273958,-10.372051,-77.90544,
28014,0.08503912,1.4381254,8.986438,0.24118298,6.8805617E-4,-0.032371186,13.351954,-11.426919,-77.528336,
28064,-0.13055395,0.55698854,10.36264,0.18880755,-0.12172848,0.032432348,14.120699,-11.26475,-77.30474,
28114,-1.1905532,0.27152735,10.200945,0.33350578,-0.1640727,0.092974834,14.122632,-12.303563,-77.75695,
28164,0.81326467,0.227211,11.257751,-0.017587278,0.12834214,0.5661293,13.507107,-12.744703,-77.07071,
28214,0.33057564,-1.4963357,13.903158,-0.60108536,-0.24805097,-0.18772209,12.6851015,-11.144534,-77.702965,
28264,-0.92106193,-0.66710097,11.526044,-0.03596306,0.09771581,-0.033081345,12.273985,-9.98114,-78.3715,9.0
28314,1.4013546,0.21403587,9.369715,0.22928755,0.15710425,0.46457425,12.531329,-10.568816,-78.487274,
28364,-0.06986848,0.20245771,8.173972,0.12515803,-0.019995816,-0.17875615,12.351364,-11.505762,-76.88166,
28414,-0.7066665,0.094261944,8.23785,-0.023712546,0.16828953,-0.019765569,12.583035,-11.29736,-77.96166,
28464,-0.31021482,0.60250264,8.0398245,0.023425363,0.039392628,0.13549659,12.197979,-11.5864315,-77.19408,
28514,-0.39285886,0.7314592,8.320495,0.03825028,-0.009609495,0.0965257,13.093122,-10.481777,-76.513954,8.0
28564,-0.8815365,0.7889507,8.62472,-0.002939907,0.3443243,0.21991873,11.966806,-11.22257,-77.28142,
28614,0.51782227,0.6895383,10.737931,-0.004537801,-0.20046921,0.16718818,13.761884,-11.36847,-77.31246,
28664,0.3437508,0.22242004,10.029669,0.33208546,-0.103618994,-0.16304353,11.120571,-11.884853,-76.36621,
28714,0.26230448,0.09146721,12.310963,-0.025843063,0.2916825,0.23696296,11.966049,-12.104958,-75.491425,
28764,2.4577606,0.027188554,11.323227,0.22822228,-0.12918532,0.0334976,12.504862,-12.005461,-75.943474,
28814,-0.037130237,-0.81801605,11.288094,-0.25008103,0.29665375,-0.5021524,12.786944,-11.036986,-77.18578,7.0
28864,0.45873374,-0.3896247,10.335093,0.025555892,-0.13344638,0.014322868,13.1990185,-12.3820095,-77.159966,
28914,1.5430869,0.28869495,8.116479,-0.23747544,-0.07814146,-0.27436355,12.171486,-11.67197,-76.316734,
28964,-0.3952543,0.19127882,8.702574,-0.5025485,0.4069085,-0.3542583,12.349424,-9.960285,-77.054375,
29014,-0.7310205,0.6448228,8.095719,-0.005070428,-0.14045936,-0.17671438,12.991298,-10.975472,-76.562355,
29064,0.3653101,1.2165437,8.168383,-0.051942028,-0.20242217,0.1357629,12.888109,-10.389709,-76.72647,
29114,0.63759613,1.1630446,9.677533,0.2809528,-0.25728324,2.968957E-4,13.29818,-10.477893,-76.457306,
29164,0.31979603,1.1111426,9.161308,0.18374753,-0.079650566,-0.019499248,12.888258,-11.187719,-75.86602,
29214,0.021159694,-0.1959902,11.721675,0.20017032,-0.18821865,-0.042491194,11.813426,-11.496314,-77.35944,
29264,-0.20002282,0.35417134,10.677646,0.3784244,0.108634755,0.28410086,11.121967,-12.844172,-76.43245,
29314,0.99053,0.4499905,10.633329,-0.21332943,0.25954708,0.29004857,11.762181,-12.896567,-75.6421,
29364,-0.41441816,-1.3178725,13.2144575,-0.6202601,-0.18404639,-0.34333932,12.50495,-12.00662,-76.02084,7.0
29414,-0.44915256,-1.0104529,11.352772,-0.09641678,-0.16540429,4.7443807E-4,11.862346,-10.933419,-75.92028,
29464,1.3378744,-0.5632969,9.818867,-0.0025848188,0.03637438,0.23998122,11.197792,-12.104801,-76.361755,
29514,0.27747586,-0.31177172,8.249029,-0.025843073,-0.015468441,-0.28847829,11.607826,-11.685935,-76.69172,
29564,-1.0300561,-0.21116155,8.752878,-0.08407748,0.15390846,-0.19961756,11.428072,-11.877871,-76.20388,
29614,0.102605976,0.4292297,7.108782,0.26896858,-0.05222003,0.14614922,11.248652,-12.026071,-76.07765,
29664,0.39645132,0.45597917,9.948222,-0.041644473,0.04418632,0.1094864,11.043335,-11.592361,-76.448906,
29714,0.6024625,0.8819751,8.411124,0.528094,0.16536005,-0.022428727,11.507027,-13.013401,-76.627266,
29764,0.14013514,-0.11055147,11.415453,-0.02761851,-0.018664235,-0.28980985,11.351435,-12.461723,-75.73473,
29814,-0.5282034,-0.11374544,11.407069,0.13820751,-0.049290556,-0.27249932,12.171646,-13.121352,-74.64913,
29864,1.7355237,0.29308665,10.488403,-0.06330484,-0.35510996,0.027816206,11.813728,-13.40593,-75.24801,
29914,-0.07226399,-1.5214883,12.802035,-0.825856,0.35684115,-0.5100531,11.556018,-12.548004,-75.13537,
29964,-0.83003366,-0.55611044,10.711182,0.0070025423,0.010275413,-0.04355645,12.042347,-11.275419,-75.963425,
30014,2.1659114,-0.20637059,8.871056,0.011441156,-0.276458,0.25533876,11.2995405,-11.489427,-76.392136,
30064,-0.6599547,-0.049466774,9.04872,-0.33370423,0.32044467,-0.22713685,12.274277,-12.445398,-75.5572,
30114,-0.64638036,0.2599492,8.652268,-0.015190436,-0.09243372,0.086228155,12.531514,-12.163292,-76.663216,
30164,0.043118253,0.8009281,7.7671394,0.2765142,-0.14915901,0.24264435,12.966616,-11.929386,-76.2424,
30214,1.2787858,1.28202,8.643485,0.23674437,-0.20854744,0.27717665,12.635585,-13.725605,-76.075066,
30264,0.16289218,0.5050865,9.507454,0.21188824,0.0013982356,-0.04568698,11.659922,-13.553356,-75.09536,
30314,-0.3046254,-0.9609463,12.298985,0.033279054,-0.041833714,0.037758663,11.199954,-13.749711,-76.26526,
30364,0.9270498,0.066713944,10.621351,0.6864631,-0.14862637,0.43812022,10.814465,-14.660185,-74.32974,
30414,1.7243447,0.14895873,11.593118,-0.104938895,-0.08684109,0.22338083,10.227144,-15.810464,-75.079056,
30464,-1.0312538,-1.6304826,13.271949,-0.40489933,0.13810705,-0.3194597,9.429926,-14.608648,-74.44217,
30514,0.08983008,-0.12173035,9.732629,0.2540549,-0.04369793,0.3453535,10.37828,-14.373139,-74.4213,
30564,2.0732863,0.009222448,8.616337,-0.032944825,0.09744948,0.28933844,10.433005,-16.082623,-75.40612,
30614,-0.3197967,-0.31576416,8.568427,-0.2372979,0.19545372,-0.38195515,10.532575,-14.039204,-75.24674,
30664,-0.73661,-0.026709735,8.100111,-0.008443768,0.4656756,0.013790225,11.737711,-13.563772,-75.86713,
30714,-0.2255746,0.6647851,7.606243,0.25831598,-0.042100035,0.08942394,11.097888,-14.819141,-75.37842,7.0
30764,0.44795412,1.251278,8.340857,0.2525458,-0.10974425,0.166478,10.19956,-14.241192,-75.27847,
30814,0.5821009,1.1087471,9.666754,0.13554436,-0.24476641,-0.011243457,10.893556,-15.604576,-75.11646,
30864,0.47470364,0.57455534,10.530324,0.18152826,-0.05470565,-0.04568698,10.893383,-16.060562,-74.388954,
30914,0.16528767,0.36974198,10.781849,0.05405169,-0.120929524,-0.13215087,10.123527,-15.701397,-74.2575,
30964,0.92185956,0.10104912,11.494904,-0.20090139,-0.14454287,0.067586035,10.430344,-15.32357,-73.94471,
31014,1.1917502,-1.4388444,13.12822,-0.64928854,0.20131269,-0.37343305,10.635416,-14.620336,-74.77316,
31064,-0.72543114,-0.6056171,10.992652,0.20638436,0.10970002,-0.053853977,12.19751,-13.2445755,-74.698654,
31114,2.2086306,0.6991203,8.191139,-0.11399363,0.09665055,0.14108923,12.019534,-14.593919,-74.37792,
31164,0.55854535,0.61448,8.446258,-0.41253373,0.41063693,-0.41160497,11.0472355,-14.755867,-76.02526,
31214,-1.1558188,0.4044764,8.822348,-0.35607475,0.009565249,-0.32496357,12.788742,-13.810734,-75.34803,
31264,-0.010780017,0.7629997,8.821548,0.06452679,-0.114005305,0.13238956,13.119566,-12.277044,-74.99645,6.0
31314,0.8396148,1.100363,8.865466,0.16803488,-0.06740004,0.0955492,12.17188,-12.835029,-75.21991,
31364,0.39166036,0.61208457,9.592895,0.24988262,-0.22372745,-0.017635038,12.121918,-12.901543,-76.32953,
31414,-0.17606802,-0.37046093,10.850121,0.19892755,-0.062073722,0.008730234,13.249036,-13.208688,-74.98244,
31464,-0.18964243,-0.08180574,11.130791,0.41428828,-0.13761866,0.27460226,12.429308,-14.629881,-73.90302,
31514,1.4552529,1.0644307,9.682324,0.029816955,-0.06393793,0.3317714,11.763039,-14.355217,-74.59342,
31564,-0.35253492,-0.75653213,12.640739,-0.6658889,0.25830427,-0.3808899,11.351482,-13.62015,-74.32844,
31614,-1.6936036,-1.059161,12.0921755,0.01730011,-0.19336745,0.010860752,12.222463,-12.824985,-74.59971,
31664,0.5250087,-0.46348527,9.696697,-0.029216401,-0.09767129,0.16754328,12.889215,-12.575363,-74.99872,
31714,0.17726506,-0.31656265,8.949308,-0.14861469,0.4029138,-0.06077821,12.682874,-12.224486,-74.33727,
31764,-0.8979055,-0.03868713,8.414317,0.012772729,0.15870215,-0.08501296,12.734491,-11.552782,-75.47871,
31814,0.14971702,0.6356401,7.8533764,0.2756265,0.095496505,0.25720295,12.988988,-11.620141,-73.66601,
31864,0.5569484,1.1087471,7.8641562,0.39067495,-0.27086538,0.15200818,12.888578,-12.422163,-74.6136,
31914,0.8036826,1.0476624,8.404337,0.23550157,-0.09110215,0.013790238,12.171898,-13.848361,-73.97007,
31964,0.21199949,0.5601825,9.778942,-1.0431744E-5,0.08892738,-0.2453351,12.271601,-12.047924,-73.62733,
32014,-1.099525,-0.039884865,12.27543,-0.2046298,-0.108679,-0.365266,14.117908,-12.095928,-73.735596,
32064,0.68710274,0.40208092,10.591009,0.15072435,-0.060742144,0.04761235,13.192606,-11.500614,-72.45001,
32114,0.9510046,-1.0208333,12.62517,-0.6767191,0.07152808,-0.26832703,13.859881,-11.1132345,-73.49545,
32164,-0.58809036,-1.1901137,11.822285,-0.38989687,0.055371583,-0.2922067,14.038046,-9.380453,-74.46548,6.0
32214,1.5390946,-0.40519533,10.330301,-0.16734557,0.051998243,0.25223172,13.961693,-9.3167925,-75.06137,
32264,0.46512166,0.016408881,8.876645,-0.06073045,0.05111052,-0.11670455,14.191463,-9.010754,-74.54332,
32314,-0.31979674,0.26194543,9.03315,0.0109085245,0.10827967,-0.03894031,14.831319,-8.841263,-73.70396,
32364,0.2439392,0.9921672,7.020948,0.344336,-0.010941073,0.11472395,15.190727,-8.190622,-74.91487,
32414,0.6228241,0.77817106,8.784019,0.041978706,-0.09305513,0.008463912,14.7806425,-8.657077,-74.48117,
32464,0.31899753,0.7637982,9.373307,0.17575806,0.012761038,-0.057848737,14.113163,-8.125149,-74.40076,
32514,0.21679044,0.04156138,11.336403,0.091335915,-0.04636109,-0.07480418,14.522395,-7.7196565,-73.98257,
32564,-0.5002561,-0.03229918,10.435303,0.36670652,0.29106113,0.037758663,14.882229,-7.967224,-74.46083,
32614,0.0479092,0.24397935,11.762798,-0.010219206,0.09176808,0.21672292,14.8315735,-8.651666,-74.17043,
32664,0.073860206,-0.6303703,11.519656,-0.2607337,-0.0919011,-0.06770243,14.418837,-8.093845,-72.61373,
32714,-1.8900329,-1.5143019,13.100672,-0.49349377,0.17574634,-0.120610505,14.623836,-7.31729,-73.46882,
32764,0.17127633,-0.47865668,9.212012,0.22928753,-0.20002535,0.4018125,14.110033,-6.7085495,-73.333885,
32814,-0.2790736,-0.55251724,8.932539,-0.2673028,-0.15608323,-0.0671698,14.366196,-6.243271,-73.69402,
32864,-0.9274499,-0.43314257,8.755273,-0.11186309,0.22634637,0.06332498,15.261642,-5.359726,-73.01134,
32914,0.32099378,0.32063466,7.8006763,0.17194086,-0.030737214,0.26785558,13.902524,-4.918958,-73.41137,
32964,0.5002554,0.55778706,8.629112,0.17416015,-0.14303374,0.10859868,14.33993,-5.3911076,-74.194626,
33014,0.09102781,0.5182616,9.036743,0.3569416,-0.06074214,0.011304621,14.468631,-5.902388,-74.00495,
33064,0.6080519,0.674367,9.285474,0.22209701,-0.09776005,-0.026689777,12.802254,-6.726076,-73.21145,
33114,-0.34135607,-0.26745534,9.908697,0.08068328,-0.036063537,-0.26761687,14.10879,-6.088942,-72.97997,
33164,-0.5198192,-0.46148908,12.538933,-0.20693785,-0.20508535,-0.119634025,13.647415,-4.96402,-74.52633,
33214,0.8076752,-0.4642838,11.508477,0.0011436095,-0.19301236,-0.090250514,12.981369,-5.2954507,-74.66803,
33264,-0.22876856,-1.3909347,13.047972,-0.4705906,0.1930569,-0.2804888,12.340256,-5.0621967,-74.86723,
33314,0.30702013,-0.49143255,9.840426,0.27314088,0.030692978,0.13398746,13.236064,-4.5452523,-74.05132,
33364,1.348654,0.01640889,8.409128,-0.362999,0.2801422,-0.05838137,13.031805,-5.404001,-73.76273,
33414,-0.65436524,0.18009992,9.4044485,-0.32340667,0.35719624,-0.16073543,14.312309,-4.086679,-74.02986,
33464,-0.428791,0.8009281,8.054597,0.11530435,-0.062340032,0.14881238,12.876013,-3.788309,-74.01746,
33514,0.54497105,1.0304948,8.260208,0.04908046,-0.050799686,0.13434254,13.390384,-4.3564034,-74.720314,
33564,0.4419654,0.85961735,9.270302,0.12862013,-0.08204741,-0.016037142,13.262648,-4.967537,-74.3811,
33614,0.26709554,0.6895383,10.013699,0.21100052,-0.09394285,-0.0421361,12.057986,-4.580906,-75.26674,
33664,-0.46232772,-0.28182817,11.18908,0.27988756,-0.04929056,-0.06264242,12.337627,-4.014118,-73.7961,
33714,-0.44196615,-0.22713141,11.145962,0.43399563,-0.09536319,0.30354193,12.673863,-5.2540717,-74.882515,
33764,1.0863491,0.64043105,10.575838,0.18720964,0.05803474,0.35600615,12.417728,-6.15386,-74.001465,
33814,0.2766774,-0.79166585,11.702511,-0.42300883,-0.061452318,-0.2260716,12.109169,-5.5919175,-73.91247,
33864,-1.0911409,-1.3190703,11.778368,-0.20747049,0.046050522,-0.1377435,12.647007,-5.6965485,-73.227234,
33914,0.0986135,-0.9122383,9.999326,-0.030104125,0.051998246,0.12706324,11.698613,-5.1114106,-74.23778,
33964,-0.056294113,-0.4195682,8.583998,-0.08097046,0.120352656,-0.04080452,11.954449,-5.0518227,-73.79361,
34014,-0.23435801,-0.22872841,8.43987,-0.068986244,0.0724158,-0.017901354,11.596807,-5.412417,-74.54635,
34064,0.017965734,0.33860075,7.716834,0.15631698,-0.040147044,0.07522043,10.955917,-5.1580715,-74.97794,
34114,0.0986135,1.0041445,7.903282,0.103852764,-0.08977057,0.11259342,11.904393,-5.261885,-74.643616,
34164,0.23954748,1.0249053,9.179274,-0.026375704,-0.25355485,-0.009645562,11.648697,-5.5886364,-74.87834,
34214,0.095419526,0.7102992,10.695613,-0.015723068,-0.092966355,-0.08155085,10.931529,-6.694677,-74.186935,
34264,-0.24793239,0.2152336,10.51116,0.14921524,-0.13229235,-0.12842245,9.64936,-6.132601,-74.767006,
34314,-0.32618472,0.045154627,11.441403,0.11610329,0.14645162,0.020714447,10.420186,-6.72176,-75.48904,
34364,1.1294677,0.14097375,10.412946,0.09435415,-0.10246497,0.12457764,10.035139,-7.372793,-74.27876,6.0
34414,-0.22078364,-1.3034997,13.045575,-0.49189585,0.097183175,-0.31324562,10.265601,-6.424643,-75.1868,
34464,-0.14372909,-0.34051746,10.526731,0.29728684,0.11041019,0.1652352,10.803183,-6.8393955,-73.87892,
34514,1.1622059,0.33341053,8.727326,0.16803488,0.17281689,0.26226294,9.908471,-7.8051376,-75.128105,
34564,-0.44196615,0.04635237,9.779341,-0.19841576,0.14272319,0.02035936,9.728223,-7.242796,-75.1391,
34614,-0.9745609,0.31344822,8.850295,0.102254875,-0.16939902,0.23243558,9.548066,-7.1640906,-74.62862,
34664,-0.42040682,0.6787587,8.677422,0.08814013,0.01240595,0.5586725,9.190296,-8.053606,-74.60142,
34714,-0.48029378,0.90592986,8.6339035,0.2303528,-0.1962969,0.5373672,8.728281,-8.58451,-73.49761,
34764,-0.5976722,1.1949843,8.913376,0.14513174,-0.09003689,0.6902326,7.882146,-8.862196,-73.154335,7.0
34814,-0.6168361,1.2468864,10.064004,0.1480612,-0.0029515978,0.8287169,6.832207,-9.353438,-73.742226,
34864,-0.7988925,1.0596397,10.205737,0.24828474,-0.18271482,0.8727477,7.4980993,-9.454193,-72.92488,
34914,-1.5925943,0.39968547,11.815898,0.20771593,0.11449371,1.0004905,5.09049,-10.416392,-74.08277,
34964,-1.1761804,0.44280404,11.63464,0.39049742,-0.13069445,1.2376003,3.1935139,-11.149172,-73.554,
35014,-1.6812271,-0.19439322,10.795424,0.27269703,0.38853276,1.3392444,2.2177784,-10.734714,-72.80925,
35064,-2.8194785,-0.608811,9.75898,0.2829058,0.32222012,1.4817233,1.5004473,-11.163269,-72.82213,
35114,-2.035758,-0.78847194,8.558045,0.06976433,0.10943371,1.7142171,0.4762446,-11.848351,-73.25237,
35164,-1.310327,-1.7239063,9.730234,-0.27209648,0.13508879,1.686254,-1.5012197,-10.532713,-72.05289,
35214,-1.5103496,-1.6660156,10.010505,-0.28656632,0.10064528,1.6886507,-2.757552,-10.069291,-72.68276,7.0
35264,-0.883932,-1.0651495,9.810482,-0.05300729,0.44170713,1.9245178,-4.655225,-9.562603,-73.07116,
35314,-1.013687,-0.34850237,8.744096,0.116369605,0.19145899,1.8737403,-5.3218055,-9.332062,-73.42573,8.0
35364,-0.4707119,-0.66630244,10.270414,-0.07324729,0.06442632,1.7143059,-6.8116293,-7.2436924,-73.61594,
35414,-0.7402032,-0.61479974,9.562551,0.08787381,0.21888953,1.5259318,-8.1979475,-5.8900466,-73.743484,9.0
35464,-0.09382328,0.07549736,9.816471,-0.03436518,0.22474848,1.4948616,-7.27507,-6.2118855,-73.175125,
35514,0.86955833,0.7206796,9.7745495,0.07642223,0.17867583,1.2617464,-9.327155,-4.493792,-74.56156,9.0
35564,0.26470003,0.30546328,10.334693,-0.05478273,0.12390352,0.9302719,-9.661442,-3.4727783,-74.96861,
35614,0.6431856,-0.13450627,11.465757,0.14992541,-0.2378422,0.9216611,-9.687697,-3.1272824,-74.8443,
35664,1.6908083,0.3046648,10.304351,0.16270858,0.20308812,0.8265863,-9.585371,-2.6643372,-75.20823,
35714,1.1162927,0.045154624,10.983069,-0.17631152,0.09744948,0.29874822,-10.1516485,-2.1368904,-73.88713,
35764,-0.7613633,0.08428078,10.41055,-0.030991845,0.07934,0.39249143,-10.433506,-1.9987793,-74.231064,
35814,1.4792078,0.4931091,9.943432,0.13714226,-0.15581691,0.6726557,-11.075637,-0.6907056,-74.855446,9.0
35864,1.1821682,0.43162516,9.122581,-0.14248942,0.015956834,0.0984787,-11.435075,-0.25547028,-74.9726,
35914,-0.82644045,0.447595,9.367319,-0.30121368,0.47774857,0.13469763,-11.641646,0.09849676,-74.10484,
35964,0.07944965,1.06483,8.91657,0.09754995,-0.15306497,0.5220985,-11.205292,-0.16667938,-74.19409,
36014,1.0444282,1.7746902,7.500044,0.1448654,-0.15315375,0.29342192,-12.00035,0.6204262,-74.9968,
36064,0.36850408,1.389018,9.6751375,-0.21474981,0.032645963,0.11694324,-10.898678,1.2993374,-75.05465,9.0
36114,0.31979603,1.5662835,9.227183,0.28867596,-0.118000045,0.17863975,-11.590782,1.06965,-74.94024,13.0
36164,0.40683174,0.841252,11.122006,-0.09916872,0.18497865,0.10469272,-10.436573,1.370781,-75.66304,15.0
36214,-0.8360224,-0.11773792,12.421555,0.38508233,-0.07432425,0.281704,-11.693558,1.3122317,-75.048775,24.0
36264,0.771743,1.7164001,9.438785,0.5833101,0.13828461,0.64265084,-11.359494,0.84894943,-75.138275,28.0
36314,1.4780098,0.782962,10.642911,-0.50281477,0.35657483,0.04814498,-11.231692,1.5556526,-75.659164,33.0
36364,-1.3346812,-0.5241708,12.286209,-0.50547796,0.0061031412,-0.40033093,-10.437452,1.8890295,-75.5143,69.0
36414,0.22277915,0.15175343,9.81168,0.045529585,0.048269827,0.28561,-10.823086,2.5001,-75.35041,109.0
36464,0.5561499,-0.097775586,9.892329,-0.19708417,-0.14116953,-0.017901368,-10.207949,2.994626,-75.75353,149.0
36514,-0.626418,-0.017127812,8.475003,-0.004715347,0.18409093,-0.10285611,-10.618401,2.9431248,-75.50521,197.0
36564,0.099412,0.47474375,8.449451,0.008777991,0.27321798,0.21725556,-10.59133,2.1043339,-75.75276,248.0
36614,-0.31620353,0.8727924,7.8461905,0.24207072,-0.099624254,0.028171292,-10.772801,3.4789727,-75.67002,298.0
36664,0.13454567,1.0209129,8.859877,0.124359086,-0.068997934,0.18316713,-10.132906,3.744419,-74.98653,344.0
36714,0.5365868,1.1470747,9.319409,0.28983003,-0.22816606,0.06953902,-10.106034,3.342453,-75.60027,392.0
36764,0.39724982,0.66398656,10.615762,0.070030645,-0.1355769,-0.085545585,-11.364168,3.0820913,-73.694,434.0
36814,0.53179586,0.22002456,11.204651,0.0787303,0.11307336,-0.034679253,-11.335213,1.7599055,-75.04505,483.0
36864,1.0607973,0.8468415,11.320831,0.1749591,-0.18617691,0.0063333907,-11.364031,3.731533,-74.630104,528.0
36914,1.1869593,-0.006348148,11.452583,-0.33388177,0.09496388,-0.25501126,-11.286326,3.0950878,-74.54342,
36964,-0.55535215,-0.2742425,11.62346,-0.15260941,0.124081075,-0.27835828,-11.595522,3.954935,-74.25153,600.0
37014,1.8996141,0.7590072,8.0174675,0.23922999,-0.17348252,0.23998119,-10.672539,3.9935124,-74.22903,
37064,0.3693026,0.82448363,8.7616625,-0.4471548,0.26070112,-0.16410875,-10.132261,3.0845528,-74.746735,
37114,-0.1628929,1.072815,8.687003,-0.2582481,0.16633654,0.018939003,-10.312022,3.9781113,-75.612755,
37164,0.653566,1.6102005,7.8002763,0.14486541,-0.21680325,0.13629553,-10.82696,4.4813833,-74.315895,
37214,0.9390272,1.6896507,8.055794,0.0126839625,-0.011740021,0.032077257,-11.188072,5.6625423,-73.848465,
37264,0.08983008,1.3347206,9.156117,-0.050610445,0.009032616,-0.09220349,-10.520976,5.159814,-73.6197,541.0
37314,0.2802706,0.6248604,10.933962,-0.084787644,-0.006591248,0.039179016,-10.878212,5.1074085,-75.12403,497.0
37364,-0.18964241,0.090668716,12.049057,0.064171694,-0.20322113,0.10966395,-11.213495,5.5869055,-73.95139,446.0
37414,0.97136617,1.3039787,10.143454,0.36759424,0.07152808,0.4833939,-12.112094,6.6749935,-74.24429,393.0
37464,0.21679042,0.14416774,11.221818,-0.5238538,0.34299272,-0.025624529,-11.213999,5.955426,-73.95568,345.0
37514,-0.74140096,-0.71181655,13.780989,-0.53166574,-0.09500811,-0.037519936,-10.626527,7.6826043,-74.06425,292.0
37564,0.49466598,0.2168306,9.414829,0.3832181,-0.15848006,0.29235667,-11.984323,7.4062634,-74.765465,241.0
37614,0.21918592,-0.079410255,9.611658,-0.20409715,0.07010772,0.030124271,-11.498283,7.7661033,-74.19007,200.0
37664,-0.4096272,-0.21116158,8.254619,-0.00799991,0.06975264,-0.1494614,-12.832774,8.36548,-73.86909,164.0
37714,-0.53858376,0.119414456,8.088532,-0.10840099,0.21604882,0.16434748,-11.702229,7.6991844,-75.17454,135.0
37764,0.17367184,0.58293957,8.439072,0.339276,-0.14356637,0.21485871,-12.13853,7.987774,-75.16293,111.0
37814,0.5793062,1.061636,8.043018,0.22254087,-0.13442287,0.04628077,-12.525472,8.640398,-73.86463,93.0
37864,0.5761122,0.79374164,10.575838,0.05698117,0.055105265,-0.03494557,-12.215718,7.1218414,-73.83933,79.0
37914,0.9474115,0.36774576,10.564658,0.3054539,-0.094120406,-0.2402751,-13.395152,6.621844,-73.24383,68.0
37964,-0.12696071,0.009222448,11.1256,-0.015456747,0.21995479,-0.3364151,-12.83059,6.4549513,-73.46,59.0
38014,0.4339805,-0.03309767,12.109741,-0.1513666,0.2815625,-0.07320628,-12.164394,6.8808,-73.577324,51.0
38064,0.70427036,-0.64594096,12.383226,-0.26313052,-0.010142129,-0.4434741,-11.600548,7.1334953,-73.6694,44.0
38114,-0.25751433,-0.2526832,11.135581,0.14087068,0.087329485,-0.05545189,-12.060027,6.182863,-74.34047,38.0
38164,2.2960658,0.8847698,8.067772,0.16510542,0.013293668,0.12830606,-12.367077,5.4945335,-74.05641,33.0
38214,0.24154373,0.7150901,8.032639,-0.35873795,0.1569267,-0.57973903,-11.907393,6.731875,-73.93032,30.0
38264,-1.6552761,0.5541938,8.973263,-0.19202417,0.20237795,-0.12709086,-12.138311,6.827033,-73.911385,26.0
38314,0.63280517,1.4385246,7.8354106,0.23443632,-0.31658292,0.15795588,-12.061862,7.3168607,-74.09571,23.0
38364,0.6084512,1.5758654,8.484585,-0.061795715,-0.019196864,-0.04666347,-12.291285,5.9448757,-73.59544,22.0
38414,-0.039525766,0.9610259,10.149443,-0.0047153435,-0.09039197,-0.09539927,-12.524349,6.9852047,-72.81367,20.0
38464,-0.21918665,-0.10935374,11.816696,0.1832149,-0.22639062,-0.016569775,-13.213619,5.994149,-74.31539,18.0
38514,-0.4818908,0.2751206,11.083679,0.38588127,0.0102754235,0.28312436,-14.008324,5.522241,-73.865395,
38564,0.42040613,1.1985775,11.171114,0.25325596,0.11156424,0.45614094,-14.75329,5.554055,-72.64619,15.0
38614,-0.26310375,0.30865726,10.423326,-0.12757576,-0.067133725,-0.056783482,-13.855727,5.348106,-72.518295,
38664,-1.9271629,-0.46029133,12.225124,-0.5195927,0.14946985,-0.041781023,-13.598375,5.483962,-73.545235,14.0
38714,-0.23435803,0.29667988,9.389277,0.18934017,-0.05248634,0.45880407,-14.011281,6.4782233,-72.380486,
38764,0.22517464,0.38770807,8.6319065,-0.17036383,-0.2097015,0.103272386,-15.370351,6.363574,-72.129234,12.0
38814,-0.68071556,0.47953472,8.770446,-0.2479505,0.39945167,0.07051551,-14.471868,6.796641,-73.63375,
38864,0.3066209,0.87518793,8.498959,0.11370645,-0.08737373,0.29430965,-13.370455,7.6237392,-73.64173,
38914,0.4012423,1.0720164,8.1715765,0.2977307,-0.40855068,0.10673447,-15.086711,5.671066,-72.70742,
38964,0.58928734,0.99855506,9.572132,0.1591577,0.016667007,0.15120922,-15.755696,6.2230663,-71.28599,
39014,0.6375962,0.7534178,9.519432,0.33208546,-0.34916225,-0.11484033,-16.059797,4.771826,-72.721214,
39064,0.44915187,-0.2482915,11.242979,-0.06969642,-0.005703514,-0.23761196,-15.753027,4.9573517,-72.12247,
39114,0.5146283,0.19447279,11.856621,0.10651593,0.12061897,-0.09859507,-15.751445,4.236767,-72.655754,
39164,1.761874,0.782962,9.844019,0.017655184,-0.06660109,-0.18097544,-14.905931,4.739812,-72.71793,
39214,-0.045913678,-0.4746642,12.283813,-0.723857,0.37282008,-0.61125314,-14.777957,3.9245842,-71.49299,
39264,-0.19762734,0.121809945,9.672743,0.034521867,0.025189107,-0.24826457,-16.212255,3.9069023,-72.89555,
39314,1.2843753,0.37573066,9.231975,-0.2375642,-0.16114323,-0.10152455,-15.59526,3.4359348,-73.77754,14.0
39364,-0.52341247,0.40208092,9.950618,-0.25061366,0.4164959,-0.30649897,-15.2143955,5.2522345,-72.65416,15.0
39414,-0.42280233,1.343504,6.880413,0.51344657,0.023679998,0.023377605,-14.979939,2.9631736,-73.137695,
39464,1.1330609,1.7687016,8.059387,0.07855275,-0.13229235,0.20234187,-14.90285,2.6726122,-72.92606,
39514,0.5361876,1.5806564,8.973263,0.14779489,-0.27272958,-0.16011404,-15.647719,3.2579124,-72.48708,17.0
39564,0.06827077,0.7793688,10.54829,-0.099878885,-0.159279,-0.17334105,-16.209322,1.6969242,-72.7925,20.0
39614,-0.8100713,-0.059447955,12.176816,0.06497065,-0.016800025,-0.03308136,-15.133931,2.8664265,-72.88247,23.0
39664,-0.2970397,1.0093348,11.090865,0.47962442,0.0061919116,0.44309148,-15.748884,1.8629208,-72.00915,24.0
39714,0.8132646,1.7036242,10.653292,0.2420707,0.030870523,0.5775809,-15.337552,1.3961722,-72.40621,
39764,0.17726505,0.29188892,11.223814,-0.27671263,-0.018486692,-0.00538451,-16.442814,3.3218708,-72.35283,26.0
39814,-0.96577746,-0.22393747,12.003543,-0.30733895,0.13180424,-0.013373993,-15.799357,1.730807,-72.57634,
39864,0.81326455,0.5002955,9.24515,0.29089528,-0.07689864,0.31543735,-16.05707,2.7334385,-72.64595,29.0
39914,0.3948543,0.6112861,7.9671617,-0.02664201,0.08120422,-0.09646454,-15.79894,1.0498453,-72.104164,
39964,-0.22876856,0.31344822,8.897805,-0.22451474,0.30961445,-0.13321614,-16.90242,1.9870281,-72.426186,
40014,-0.4982599,0.9362726,8.12167,0.19253597,-0.016001076,-0.023227673,-15.541405,1.135025,-73.233665,
40064,0.17606731,1.1550597,8.427893,0.15294366,-0.09820392,0.1284836,-16.827166,2.5168667,-71.579254,
40114,0.42759258,1.541131,8.781624,0.3328844,-0.003217915,0.093685,-15.799553,1.5404383,-72.16144,31.0
40164,0.8931139,1.3411084,9.008396,0.1398054,-0.39754295,-0.17014526,-16.21009,1.6348019,-72.01798,34.0
40214,-0.02036196,0.1601376,10.623748,-0.1169231,0.006103143,-0.35851935,-15.643089,-0.42190805,-72.08324,36.0
40264,-0.1042037,0.44519958,11.595513,0.055116963,-0.042100027,-0.07072067,-15.284653,0.31402016,-72.52134,
40314,1.2504394,0.6919338,10.022482,-0.37365162,-0.0937653,-0.19952877,-16.156893,0.355718,-72.15661,
40364,-0.10260671,-0.5321557,12.730969,-0.6145787,0.18142778,-0.33455095,-15.822277,-0.71790695,-71.98109,
40414,0.92465436,0.2523635,9.348156,0.1629749,-0.025854766,0.10433763,-15.387154,0.16698456,-72.39321,
40464,1.1973397,0.29907534,9.19205,-0.4363246,0.15710424,-0.16908,-15.360523,-0.64183044,-72.280014,
40514,-0.456339,0.50987744,9.2259865,-0.35740638,0.38879907,-0.20272458,-15.028542,1.0453058,-73.16829,32.0
40564,-0.13694187,1.0552481,8.653866,-0.04199956,-0.15040182,0.087470956,-13.74626,0.6263943,-72.8736,
40614,0.9282476,1.5243626,8.257015,0.27908862,-0.1992264,0.15387237,-14.566478,0.5624898,-73.04803,
40664,0.9026957,1.7603173,8.194732,0.16625945,-0.04387547,-0.030063117,-14.668485,0.09529686,-72.967766,30.0
40714,0.3066209,1.3590746,10.495589,0.026354842,-0.2010906,-0.16916877,-14.411622,0.06882858,-73.347984,
40764,-0.069070004,0.2910904,11.490112,0.3471767,-0.08453303,-0.13712211,-15.667897,0.07317352,-73.45667,
40814,-0.6659434,0.13857828,11.311249,0.1296854,0.052442104,0.04441656,-15.025508,-0.9247818,-73.454926,28.0
40864,0.06507679,0.6767624,12.100162,0.134124,0.20486356,0.37189636,-14.818755,-1.3294334,-74.42528,
40914,0.5928806,0.5002956,10.828561,-0.0021409541,-0.2144064,-0.13028665,-14.307185,-1.3054327,-73.329475,26.0
40964,-1.5502743,-0.11055148,11.7088995,-0.3281116,0.22954217,-0.124960326,-13.743756,-1.143673,-72.93042,
41014,0.24074525,0.3457872,9.564946,0.23976262,-0.054528102,0.4352795,-13.639745,-1.6439018,-73.618484,23.0
41064,0.19762664,0.35257435,8.257813,0.038072743,-0.07432425,0.16505764,-13.820921,-1.2139149,-72.622,
41114,-0.2814691,0.2092449,8.589987,-0.19042629,0.3298545,0.19772573,-14.052596,-0.9398295,-72.14086,
41164,0.0011973679,0.9937641,7.399433,0.19440016,0.0689537,0.31659138,-13.896305,-1.5249519,-73.626236,22.0
41214,0.4503496,1.3099673,7.3167896,0.054051686,-0.12643339,0.27992857,-14.104014,-0.504556,-72.55987,
41264,0.33816138,1.322743,8.957293,-0.17125154,0.18666533,0.22444609,-13.512274,-0.8604069,-73.93392,
41314,0.5234117,1.003346,9.83803,0.038605373,-0.17880885,-0.04142593,-14.719081,0.15780003,-73.6662,
41364,0.20641004,0.19367428,10.44728,-0.057268344,-0.09163478,-0.22083408,-14.359929,0.015836716,-73.65562,
41414,-0.44316387,-0.2818282,12.997667,-0.20409715,-0.03304529,-0.14830737,-13.48748,-0.36634064,-73.78426,20.0
41464,1.8736631,0.21044262,11.454979,0.061508544,-0.2298527,0.19568397,-14.128036,-0.5023842,-74.03076,
41514,0.4455586,-0.608811,12.232311,-0.33938563,0.17361583,-0.35052982,-14.515651,0.8104947,-72.946465,
41564,0.4770991,0.0020360153,9.853202,0.12196225,0.12674424,-0.083947696,-13.206538,-0.25104713,-72.92739,
41614,1.4420776,0.3302166,8.386371,-0.2381856,0.0619407,-0.13215087,-13.077687,-0.49903235,-73.20506,
41664,-1.3578373,0.41485682,9.046723,-0.56966007,0.47109067,-0.3356162,-12.668516,0.051942825,-72.91753,
41714,0.3701011,1.1866002,7.879727,-0.036495704,-0.0900369,0.26732296,-12.257171,0.4292539,-74.38193,
41764,1.1095054,1.5079936,8.282566,0.029816946,-0.3401075,0.09128815,-12.129406,0.12339401,-73.60138,
41814,0.41202193,1.2512782,9.058302,0.06559204,0.0031736672,-0.098595075,-12.51451,0.53444415,-73.66731,
41864,-0.11458409,0.69672483,10.624546,0.08308013,-0.027186342,-0.12522666,-12.513086,-0.11166191,-74.14988,
41914,-0.34135604,0.27392283,10.793826,0.3027907,0.00512665,0.0010070726,-11.847072,-0.093439735,-73.59185,
41964,0.0762557,0.34618643,11.314445,0.30039388,0.002374719,0.20553765,-11.667051,-0.676878,-73.34847,
42014,0.22876783,1.16025,10.589013,0.30492124,0.03459894,0.2637721,-11.384102,-0.78129196,-74.03666,
42064,0.713453,-0.0067474046,11.8406515,-0.2274442,-0.06553582,0.017784968,-11.664799,-1.5752277,-74.2666,
42114,-0.65276825,-0.8100312,13.172537,-0.27529228,-0.27468258,-0.233706,-11.691417,-0.83895874,-74.301575,22.0
42164,0.64398414,0.15374966,9.682324,0.3344823,0.14725055,0.28596506,-11.974939,-0.46159172,-73.436,23.0
42214,0.42399934,0.6583971,8.029444,0.09417662,0.28617868,-0.03379153,-11.948491,-1.2197266,-73.220215,26.0
42264,-0.5892881,0.33620527,7.9983034,-0.20906839,0.046050522,-0.33721408,-10.742708,-1.2594547,-73.78303,32.0
42314,-0.7022748,0.41805077,8.495765,-0.14124662,0.17858708,0.027461112,-9.947223,-1.2562752,-74.35654,47.0
42364,-0.100610465,0.7637982,8.435478,0.16483909,-0.18937272,0.075575516,-11.2804985,-1.420826,-74.18145,64.0
42414,-0.03792878,1.450502,7.9831314,0.22005527,-0.032157566,0.19772573,-10.050901,-0.51923627,-74.26447,84.0
42464,0.6922929,1.453696,8.980449,0.060709592,-0.16886638,-0.022428736,-10.436422,-0.80213356,-73.08427,116.0
42514,-0.37648976,0.5745554,10.4872055,0.015347119,-0.03748389,-0.23761195,-10.152543,-1.690801,-73.63438,175.0
42564,-0.33776283,0.1601376,12.6623,-0.03516413,-0.10415163,-0.026689779,-9.588778,-1.1717148,-73.98748,248.0
42614,1.037641,0.62725586,11.684944,0.3496623,-0.085420735,0.13398746,-10.666675,-0.7158559,-73.658455,315.0
42664,1.1917503,0.11103028,10.739927,-0.22025368,0.38107586,-0.2890109,-10.51297,-1.3871479,-72.69248,393.0
42714,-1.3610314,-0.21595253,10.896034,-0.17924102,0.18941724,-0.14812984,-8.100914,-1.7625796,-73.892044,503.0
42764,1.6612641,0.7482276,8.772042,-0.070051506,-0.15448532,0.43643355,-8.435629,-1.0735531,-73.49564,593.0
42814,0.7054681,0.7190826,9.03315,-0.4769822,0.16420601,-0.13925262,-8.256181,-0.009129842,-74.793205,699.0
42864,-0.96058726,0.89674723,8.952901,-0.28443578,0.09372106,-0.03228242,-8.821726,0.46029854,-74.06469,808.0
42914,0.51941925,1.3163552,8.869458,0.018720454,-0.18164952,0.25081137,-9.694167,1.107708,-74.27444,897.0
42964,0.512632,1.4968147,8.83193,0.27322966,0.018886302,0.13549659,-8.744904,0.9692936,-74.610344,968.0
43014,0.4890765,1.1079487,10.15104,0.2845037,-0.24219203,0.024975503,-8.359202,-0.004511515,-74.383125,1034.0
43064,-0.3760905,0.4955046,11.510075,0.44793287,-0.23544537,-0.024026621,-9.282507,0.7330589,-75.08527,
43114,0.29344577,0.65520316,10.621352,0.6969382,-0.049024243,0.28809562,-9.177171,-2.172784,-73.96566,1105.0
43164,0.3808807,1.5926337,10.703996,0.3163728,0.056436848,0.35573983,-8.665426,-1.0897942,-74.35237,
43214,0.35013878,1.0839938,10.50557,0.070030645,0.07374738,0.13842608,-7.4865246,-0.67919034,-74.3536,
43264,-0.8911184,0.3793239,11.392695,-0.13485503,-0.056836177,-0.04426663,-7.897976,-0.18671799,-73.879456,
43314,0.34055686,0.74543285,9.253533,0.18001911,-0.16034427,0.3384293,-7.8441443,-0.9918073,-75.18429,
43364,0.53179586,0.6919338,9.027161,-0.20977859,-0.12110707,0.0702492,-8.895677,-1.4618168,-74.35379,976.0
43414,-0.01796645,0.7629997,8.381579,-0.17577891,0.22394954,-0.020298198,-8.358607,-0.39837518,-74.43014,890.0
43464,0.29584122,1.505199,7.6749134,0.006825009,0.070285276,0.12528782,-7.589192,0.81622887,-76.12747,799.0
43514,0.6759238,1.733967,7.952789,0.03860537,-0.07831899,0.0026049707,-8.307908,0.52672833,-75.05864,698.0
43564,0.5916828,1.8848821,8.760065,0.14388892,-0.20171201,-0.1286,-8.280878,-0.86632156,-74.577545,593.0
43614,0.75018364,1.8281893,9.44118,0.09666224,0.13340214,-0.20006143,-7.1789193,-0.6253853,-74.346565,501.0
43664,0.13534418,1.1386906,10.462053,-0.037383426,-0.09181231,-0.4464036,-6.128349,0.33984756,-74.92488,414.0
43714,0.11777731,0.9490485,11.954037,-0.043952554,0.034066312,-0.2501288,-5.432926,-1.0666338,-76.00044,338.0
43764,1.6049702,0.88956076,10.887249,-0.21492733,0.19634144,-0.17937756,-6.2785044,-1.2311287,-76.30331,278.0
43814,-0.67911845,-0.15846105,13.000861,-0.6535496,0.28759903,-0.54467416,-5.0758,0.02444458,-75.694664,240.0
43864,0.1880447,0.585335,9.962595,0.12045312,0.006369458,0.054270267,-5.2040005,0.19139099,-75.90614,219.0
43914,1.2540327,0.7606042,9.349353,-0.13130414,-0.11480426,0.10913131,-4.357246,-0.35929236,-75.77552,
43964,-0.14612454,0.9087246,9.124178,-0.19521998,0.19953723,-0.047107335,-4.972417,0.40094948,-76.90878,238.0
44014,0.1872462,1.400197,8.078152,0.091335915,0.0034399815,0.124843955,-3.8461921,1.1670818,-76.09002,282.0
44064,0.6395924,1.7447467,8.138439,0.1595128,-0.11684602,0.18742819,-3.8961744,0.42539597,-76.340614,338.0
44114,0.98014957,2.0334017,8.601964,0.3073181,-0.17872007,0.08835868,-3.7923012,-0.4106814,-76.48311,407.0
44164,0.17486957,1.6357524,9.974572,0.0730489,0.004416473,-0.09522173,-4.3584795,0.50136566,-75.73393,504.0
44214,0.1768658,0.84045345,11.328018,0.21171069,-0.068997934,0.0060670767,-2.3588955,0.36668524,-75.218346,618.0
44264,0.045513712,1.3003854,10.608177,0.4512174,-1.9966811E-4,0.1547601,-3.280817,0.36219215,-76.24719,
44314,0.82683897,1.7714962,10.698806,0.012240108,0.1464516,0.28197032,-3.2813365,0.055544537,-75.39245,721.0
44364,0.31620282,0.55539155,11.202255,-0.33725512,0.2151611,-0.17458387,-2.205635,1.4138718,-76.00047,832.0
44414,-1.4424777,0.07629585,11.407069,-0.37045583,0.18187162,-0.19580035,-2.103077,0.95712405,-75.42518,966.0
44464,0.74978435,0.5362277,9.208019,0.027065016,-0.111519694,0.24655032,-1.2054987,1.2816372,-75.974075,1088.0
44514,-0.096218735,0.6104875,8.233859,-0.24075997,0.07987264,-0.06770243,-2.3601692,1.5896912,-75.59366,1179.0
44564,0.2407452,0.77817106,8.531298,-0.1355652,0.073125966,0.119428866,-1.5887566,1.1133366,-76.987625,1253.0
44614,0.4383722,1.3303288,7.6557493,0.15498541,-0.34756434,-0.00911293,-2.1551678,1.8837605,-75.84991,
44664,0.49227047,1.6509237,8.562837,0.078020126,-0.042987753,0.11925132,-1.6688108,2.0946484,-75.37595,
44714,0.86237186,2.0669384,8.81037,0.33048755,-0.26420748,-0.07649085,-3.0269902,2.0163963,-75.976295,
44764,0.8412118,1.8066298,9.436389,0.03327906,-0.22710079,-0.3089846,-3.3631172,2.6759748,-74.2641,
44814,-0.2203844,0.64043105,12.564085,-0.2460863,-0.15315375,-0.419772,-3.4379253,2.0677998,-75.41965,1141.0
44864,0.27108794,1.0233084,11.868598,0.28432617,-0.15146708,-0.108359985,-2.132351,3.200161,-74.93599,1025.0
44914,1.7175577,0.25595674,11.953238,-0.44369268,-0.01014211,-0.3643783,-3.130956,2.4195125,-75.209724,912.0
44964,-1.3458601,-0.12412586,11.923694,0.031148523,0.31565097,-0.32496357,-3.363616,3.4786177,-74.81508,789.0
45014,1.1150949,0.92070204,8.219885,0.15338752,-0.16540426,0.17491135,-4.413695,3.4234283,-75.82073,677.0
45064,0.35413122,0.83566254,9.584908,-0.3828839,0.078807384,-0.22926737,-2.9798603,4.219185,-74.96887,575.0
45114,-0.94741213,1.0943742,8.439071,0.06070959,-2.2126362E-5,0.007931285,-2.5183785,4.829584,-75.6867,473.0
45164,-0.021160444,1.5415303,7.780314,0.051388532,-0.14099199,0.30212155,-3.8271484,5.4523735,-75.46853,384.0
45214,0.9378295,1.8237975,8.059388,0.17442648,-0.15528429,0.31605875,-4.674049,5.4019775,-74.71519,311.0
45264,0.58170164,1.9008521,8.46622,0.041978706,-0.09287759,0.1199615,-5.4404974,3.9549265,-75.41393,250.0
45314,0.46711794,1.0368826,11.288492,0.03381168,-0.021327393,0.18689555,-5.134361,5.186074,-75.549545,201.0
45364,0.36131763,0.8348641,11.288094,0.4760736,-0.11737865,0.19044644,-5.7499237,5.4208727,-75.670746,163.0
45414,0.7246319,1.6225772,10.772266,0.37789178,0.23486848,0.4119325,-7.0334783,6.1461854,-75.1952,137.0
45464,0.78531736,1.1997753,10.844131,-0.08389993,0.42342013,0.22737558,-7.5199456,6.0573664,-75.722145,118.0
45514,-1.4935812,-0.1872068,11.662187,-0.33920813,0.10721441,-0.21790457,-7.905992,7.783516,-76.57714,101.0
45564,0.59687304,0.11861596,11.264137,-0.050610445,-0.17046429,0.4071388,-6.9835844,8.263934,-76.58556,85.0
45614,1.3857839,0.3553691,9.600878,0.12702224,-0.11347268,0.16807592,-8.316578,8.746893,-77.47552,75.0
45664,0.19523112,0.62006944,8.897406,-0.021848332,0.004771564,-0.014705565,-8.292519,10.215584,-77.87883,67.0
45714,0.46711797,1.1398883,8.074959,0.13909525,0.03530912,0.14535028,-8.316768,10.051955,-78.9351,59.0
45764,0.55854535,1.4968146,7.4792824,0.30225807,-0.20908007,0.07823868,-8.214983,11.076883,-79.51191,53.0
45814,0.80967134,1.9220121,7.764744,0.14690717,0.016667008,0.07237973,-9.085777,10.665157,-79.889915,49.0
45864,0.5960745,1.6149915,9.482701,-0.0069346465,-0.16913271,-0.12469403,-9.368455,11.779046,-80.709465,46.0
45914,0.8635696,1.1147358,10.597397,0.13234855,-0.21911132,-0.15026036,-10.982255,10.818241,-80.91904,42.0
45964,1.0943341,1.3570784,10.762685,0.115570664,0.04871368,-0.04453294,-10.754454,12.2118435,-79.97513,38.0
46014,1.7283373,1.4453118,11.017804,-0.089403786,0.047204558,-0.17724703,-12.216099,13.108972,-80.97625,
46064,0.46911415,0.54421264,12.223129,-0.38430426,0.16509372,-0.3627804,-11.292684,12.99705,-81.15835,34.0
46114,0.9306431,1.2620578,10.16142,0.07535697,0.16615899,0.046458308,-10.985989,14.341389,-81.9401,31.0
46164,1.5207292,1.176619,9.130566,0.013039049,0.0372621,0.06785235,-11.213412,13.401069,-83.792046,
46214,0.12456453,0.96980935,9.0738735,-0.20924592,0.058389824,-0.09575438,-10.7270155,14.166214,-84.046745,28.0
46264,0.7206394,1.1111425,9.39327,-0.14675048,-0.060475826,0.13656184,-10.445225,15.452147,-85.421715,
46314,0.9977164,1.656114,8.376789,0.15116823,-0.07636601,0.09883377,-10.57293,14.985336,-85.29052,24.0
46364,1.0168803,1.8162117,9.037941,-0.018119913,0.059100002,0.11072921,-11.753506,16.237263,-85.85026,
46414,0.5557506,1.8741026,9.439182,0.004339393,0.09922493,0.04432779,-9.803899,15.481423,-85.741425,23.0
46464,0.3708996,1.7116092,9.557759,-0.0077335928,0.15816951,0.13629554,-10.288963,14.553813,-86.49077,
46514,0.8336262,1.2967921,10.884855,-0.014302716,0.12248319,0.22187172,-10.468602,16.024656,-88.188896,
46564,0.486681,1.291602,11.185088,0.08441171,-0.13797374,0.0484113,-9.211443,16.08089,-88.957886,21.0
46614,0.34854174,1.2261256,11.617871,0.32995495,0.058301054,0.10220711,-10.108729,15.438922,-88.27633,
