Date created: 2021-10-22-21-50-17-175000000
Timestamp,acc_x,acc_y,acc_z,gyro_x,gyro_y,gyro_z,mag_x,mag_y,mag_z,light
31615320,0.9014182,-1.1731857,10.106803,-0.01680786,0.041061748,0.03660484,3.5607643,-1.7112646,-44.967743,
31615340,0.74319685,-1.1268332,9.90181,-0.008685226,0.018025422,0.009351849,2.637702,-1.9417529,-44.678505,
31615360,0.41172254,-1.0142457,9.817969,-5.6259194E-4,0.040262803,-0.0042302613,2.6373453,-1.4304538,-44.993965,
31615380,0.4296886,-1.0346072,9.695499,-0.017207334,0.044257537,0.01561027,2.7923489,-2.0949345,-45.21456,
31615400,0.5090388,-1.0549688,9.905404,-0.034651022,0.07461754,0.016276062,3.7903557,-0.60682726,-45.284355,
31615420,0.5477087,-1.0540277,10.105299,-0.03864576,0.07714754,0.016808692,2.4844522,-1.3729815,-45.927025,
31615440,0.5686263,-0.99538124,10.260234,-0.022799969,0.06236702,0.029325541,2.9444675,-1.2737436,-44.67862,
31615460,0.6300105,-1.0462854,10.168306,0.012220571,0.022286478,0.035717122,4.56159,-2.2868843,-45.013565,
31615480,0.4793948,-1.013647,9.694001,0.010223201,0.010834895,0.047168706,3.7150812,-1.4982395,-45.66281,
31615500,0.28925365,-1.0361043,9.632618,-0.025063653,0.07435123,0.08605082,3.7165174,-2.6751962,-45.494385,
31615520,0.38417447,-1.1427032,9.776347,-0.038512602,0.12495126,0.12213663,4.2529316,-1.192934,-45.498207,23.0
31615540,0.40872818,-1.1825281,10.053324,-0.015076807,0.0956565,0.11627767,2.9454613,-1.938242,-44.74827,
31615560,0.2706887,-1.063952,9.6817255,-0.03291997,-0.060138285,0.11894083,4.3304806,-1.7790875,-45.334724,
31615580,1.095931,-1.0031666,9.641901,-0.08112314,-0.07984567,0.113614514,3.101367,-2.3252764,-46.13279,
31615600,1.3989592,-0.9585508,9.712866,-0.07499788,-0.04455881,0.029991329,3.024087,-2.2492652,-45.90345,
31615620,1.2312756,-0.8777034,9.934448,-0.0492984,0.017892266,-0.018744478,3.4076605,-2.3746233,-44.809105,
31615640,1.0555074,-0.90135884,10.122793,-0.0030925928,0.024283849,-0.030462373,2.561347,-2.1675096,-44.909943,
31615660,1.1642021,-0.98280513,10.042543,0.030463208,-0.01206827,-0.05642817,4.1754866,-1.621273,-44.489204,
31615680,1.1303661,-0.9130368,9.758082,0.043779,-0.06772829,-0.1079603,4.561267,-1.4865575,-45.719284,
31615700,0.9863379,-0.8130256,9.252037,-0.014943648,-0.04575723,-0.13898611,3.8679323,-1.3380728,-44.96443,
31615720,0.72882396,-0.76751137,9.694003,-0.06341314,0.057307012,-0.12686872,2.947174,-1.8163118,-46.452057,
31615740,0.6569596,-0.9175283,10.017391,-0.039844185,0.0013806811,-0.1323282,2.94808,-2.479653,-46.44435,
31615760,0.53988063,-1.0007712,9.885042,-0.003358909,-0.073320925,-0.14364663,3.177063,-1.3671083,-46.2194,
31615780,0.55066025,-1.0861101,9.496376,0.0043198657,-0.08428427,-0.13667803,3.6402006,-2.1778045,-46.662773,
31615800,0.54467154,-1.0501779,9.2990465,-0.045836292,-0.059206184,-0.15057084,3.5611486,-0.9927497,-46.214172,
31615820,0.15031591,-0.9127373,9.543685,-0.09417262,0.026414374,-0.12859978,3.637041,-0.6161108,-45.75235,
31615840,0.23445708,-0.98759604,9.909296,-0.08525104,0.1852718,-0.043911327,1.7931376,-2.2644677,-45.701736,
31615860,0.5461687,-1.1010817,9.7877245,-0.075929984,0.13041073,-0.05003659,3.332385,-1.8911295,-46.90589,22.0
31615880,0.26709545,-0.9046526,9.607466,-0.05768735,0.008438053,-0.10689504,3.4055872,-1.0444674,-44.592415,
31615900,0.15061536,-0.76661307,8.72593,-0.041708395,0.12561704,-0.06787976,4.2529573,-1.338027,-45.34176,
31615920,0.01317477,-0.6348618,9.069081,-0.124000005,0.28087917,-0.020875003,4.9463053,-1.5590582,-46.018402,
31615940,0.068270765,-0.5749749,9.57393,-0.09816737,0.18127707,0.026396066,3.0229464,-1.7275429,-45.522614,
31615960,0.19912377,-0.62677705,8.67832,0.008758465,0.19965285,0.078327656,3.6361618,-0.09786272,-45.603607,
31615980,0.580561,-0.87334013,7.9764013,-0.020136809,0.36370343,0.08431977,4.867428,-0.37632084,-45.724518,
31616000,0.21229893,-0.8492572,8.612443,-0.078060515,0.31483448,0.023200274,5.5607557,-0.95892525,-45.93267,
31616020,-0.08503986,-0.72768664,8.81606,0.035922684,0.18820128,0.048100807,6.1776266,-2.1277013,-45.826416,20.0
31616040,0.028146502,-0.7977543,8.575613,0.17693694,0.17089075,0.10016556,4.7134085,-1.2445784,-44.480186,
31616060,0.23056443,-1.0480819,8.256116,0.25576642,0.16383338,0.08511871,5.791171,-1.4574571,-44.992584,
31616080,0.09821426,-1.1313246,8.290551,0.262158,0.11949178,0.051696073,6.482587,-2.014583,-43.498672,
31616100,0.25661528,-1.1627655,8.518719,0.23858906,0.021487528,0.025064487,5.86874,-1.6820364,-45.297585,
31616120,0.3048243,-1.2043868,8.821749,0.2752075,0.039197534,0.0064223735,4.7916813,-1.9850893,-44.77919,
31616140,0.19373396,-1.1777371,9.420019,0.37867123,0.23986655,-0.0059613143,4.63694,-1.3240829,-44.790695,
31616160,0.03742899,-1.161867,10.046437,0.48493126,0.21696338,-0.002232892,5.8711023,-3.1607594,-45.589935,22.0
31616180,0.3332706,-1.0879066,10.051528,0.49545076,-0.065730914,-0.013684476,6.1010046,-2.7841024,-45.279045,
31616200,0.5620388,-1.1100647,9.567042,0.35177332,-0.120059356,-0.05389817,6.6394596,-2.9210238,-45.109306,
31616220,0.20241754,-1.0825168,10.848023,0.09065059,0.104045466,-0.04417764,6.794142,-3.725965,-44.863983,23.0
31616240,-0.025751757,-1.36159,13.150678,-0.031987865,0.1057765,0.012148166,6.7154703,-2.256516,-45.115105,
31616260,-0.023056848,-1.3684772,14.8062525,0.09504481,0.008704368,0.027594484,5.7934847,-3.5867815,-44.4262,
31616280,-0.2838646,-0.9618447,14.541253,0.22833592,-0.20434833,0.045570806,5.1779423,-4.389498,-43.271484,
31616300,0.22188084,-0.5767715,13.76362,0.14218272,-0.43511105,0.15755662,5.6399174,-4.0992575,-44.03717,
31616320,1.0594001,-0.5061049,13.383338,-0.103094205,-0.44403264,0.22173876,4.565281,-4.362192,-45.763268,
31616340,1.640004,-0.6273759,13.965141,-0.3682117,-0.3345768,0.18605241,5.562148,-3.7272696,-43.733887,
31616360,1.9600999,-1.0256243,14.388542,-0.60003966,-0.36919785,0.092975035,5.179641,-4.195022,-45.053482,
31616380,2.0050151,-2.0979004,14.460106,-0.84771335,-0.3019531,0.0066886903,5.4084225,-2.9350681,-44.83023,
31616400,1.5932922,-3.202216,15.242529,-0.9120287,-0.09382725,-0.1284666,4.0241394,-1.9462214,-46.346382,
31616420,0.47160944,-3.1962273,14.878417,-0.7194823,-0.20208463,-0.33259773,4.3295746,-1.115746,-45.34243,20.0
31616440,-0.5803051,-1.6966577,12.2969885,-0.59924066,-0.56254315,-0.36934933,4.174716,-0.30848885,-45.433014,
31616460,0.15810125,-1.3744658,8.258811,-0.87248087,-0.59822947,-0.21954666,3.0960054,0.7853694,-45.16298,16.0
31616480,0.6449822,-2.1655726,7.9968057,-1.3888673,-0.0721225,-0.20223613,4.7882023,0.81104994,-45.121185,
31616500,0.35453045,-2.7994764,10.905516,-1.4770178,0.15597707,-0.26442087,4.0174236,1.9061027,-45.07566,
31616520,-0.21170078,-2.8024704,13.148281,-0.85184133,-0.04229512,-0.34524775,4.246686,3.3767467,-45.551277,13.0
31616540,-0.9508342,-2.1918802,11.576464,0.11781481,-0.39809313,-0.30210456,3.171133,1.5340052,-44.473343,
31616560,-0.8114686,-1.2475054,7.473694,0.6262119,-0.6502943,-0.122474514,3.015728,3.8682113,-45.974503,9.0
31616580,-0.0110794455,-0.42765296,4.1562552,0.516756,-0.5552195,-0.0066271047,3.0165567,2.6993618,-45.264503,
31616600,0.30512372,-0.23511636,3.7002158,0.34085435,-0.16053937,0.057954498,3.4796066,1.8898249,-45.630524,
31616620,0.12426507,-0.3450089,4.000549,0.30583382,0.43800557,0.16701084,2.4027548,1.8734827,-45.65712,10.0
31616640,0.0059883334,-0.4749636,4.5997176,0.3352617,0.86184734,0.27473563,4.1708164,2.420895,-45.309944,
31616660,0.558745,-0.78188425,4.6578083,0.31209224,0.6466641,0.20389558,3.6338139,1.3083138,-45.233047,
31616680,0.71714604,-0.7624211,4.6742773,0.4581665,0.20910707,0.07446609,4.86631,0.9410958,-46.358864,
31616700,0.6722308,-0.5564099,3.4010804,0.5838676,0.04159438,0.00988448,4.3269405,0.8731179,-45.4429,
31616720,0.27338362,-0.45070943,2.9770808,0.63899493,0.3158997,-0.010888157,4.7122593,-0.21618938,-44.724266,12.0
31616740,-0.24583635,-0.7181047,4.4269443,0.7608345,0.57475877,-0.0017002607,4.944556,-1.0292287,-45.095985,
31616760,-0.15061608,-1.1094661,4.8410616,1.0183619,0.2615713,0.011216059,5.021373,-0.95435715,-45.094948,14.0
31616780,-0.19972338,-1.026223,3.780165,1.0166309,-0.11326829,0.0037592151,5.0224276,-1.4749212,-45.398422,
31616800,0.0023951093,-1.0735338,4.5062943,0.990532,0.027745955,0.04863344,5.177965,-2.2188978,-46.004997,
31616820,-0.21978553,-0.923517,5.853152,1.0983899,0.59047145,0.13811557,5.640586,-3.96343,-44.812546,18.0
31616840,-0.6788191,0.15145399,6.6888742,1.0423305,0.482214,0.17593242,6.6400337,-3.2181582,-45.260612,
31616860,0.40453607,-1.5927538,7.3952413,0.35803172,-0.5501595,0.17167138,5.6399775,-3.9553227,-44.27098,23.0
31616880,1.275592,-3.4836848,11.82508,-0.28059375,-0.23590675,-0.1776019,6.3372297,-6.4716177,-45.61738,
31616900,-0.78961,-2.4057193,20.8746,0.13854305,0.47533417,-0.30818546,4.488085,-4.721459,-45.06459,
31616920,-1.8819482,-1.3636863,20.27573,0.8389982,-0.13856833,0.17180455,5.027461,-5.1601477,-45.355614,25.0
31616940,1.5759251,-1.6777934,15.624309,0.5745466,0.06303282,0.7450495,4.7977743,-5.7567596,-45.58657,
31616960,3.5309346,-1.716121,18.151241,-0.46461803,0.5127072,0.5462447,6.0285873,-6.3910017,-44.852173,28.0
31616980,2.4481788,-0.56030256,20.621576,-1.1873993,-0.09981935,-0.058825023,5.6440287,-6.10781,-45.25193,
31617000,0.68480706,-0.26685643,21.099174,-1.3912642,-0.4219284,-0.29012036,4.7949,-3.4028478,-45.923424,
31617020,-0.706367,-2.1224542,19.758907,-1.3048446,-0.039898276,-0.17081083,4.7934666,-3.1666784,-44.920227,25.0
31617040,-1.4890897,-2.7620468,17.727541,-1.3621025,0.13094336,0.14836873,5.255126,-2.582778,-45.76671,
31617060,2.3631392,-2.9848263,16.654964,-1.5101743,-0.14069885,0.46741515,5.790513,-0.72504425,-45.310623,20.0
31617080,5.924617,-4.032549,13.968434,-1.2915288,-0.17398831,0.19497402,4.2514935,-0.015978813,-45.66664,
31617100,3.868526,-3.6763923,11.000864,-1.1027107,0.4429324,-0.44338512,5.2500896,1.102448,-45.80951,
31617120,-0.5892881,-2.077539,11.642426,-1.0730166,0.84466994,-0.73073995,5.6321983,2.299139,-45.04004,14.0
31617140,-2.6838346,-0.49173197,11.794238,-0.8308023,0.2007181,-0.5758773,6.0938807,2.3038263,-45.18338,
31617160,-2.4397955,0.34608662,10.129979,-0.2556932,-0.51686996,-0.16654979,5.2476873,2.7988112,-45.75183,11.0
31617180,-0.7213388,0.6024028,7.605743,0.37960333,-0.46014476,0.24890298,5.016759,2.7976253,-45.6028,
31617200,0.6270161,0.5452108,5.098276,0.8029125,-0.07105724,0.4502378,5.170906,2.0721793,-44.97151,
31617220,1.2516371,0.5479057,2.892341,0.84365875,0.017759107,0.42027727,4.4051275,0.1337657,-45.664543,
31617240,1.47262,0.60449886,1.7464036,0.5415234,-0.13270935,0.21481456,4.48302,0.4837675,-46.982155,
31617260,1.0746713,0.68025595,2.30455,0.3071654,-0.20687832,0.06927292,5.2520037,-0.29793835,-45.793243,12.0
31617280,0.36740616,0.4440018,2.902821,0.24245064,-0.19968778,0.09310819,4.8670244,-0.08150244,-45.72795,
31617300,0.49616313,-0.13181135,3.3837132,0.33646017,0.06103544,0.17513347,5.32932,0.34919882,-46.95955,
31617320,0.5389822,-0.89417243,5.0809097,0.62314916,0.43654084,0.08565135,5.6349516,0.59814405,-45.407196,
31617340,0.060186036,-0.5082009,5.359983,1.0274167,0.2748871,-0.048305538,5.4835777,-0.9566183,-45.702477,
31617360,-0.25212446,-0.13211079,3.7502215,1.3503246,-0.25082046,-0.08705449,5.791854,-1.394177,-45.689743,15.0
31617380,0.19253623,-0.10635939,1.3349801,1.3292859,-0.7653427,-0.041913956,5.099803,-2.0587568,-45.080208,
31617400,0.7605641,0.0149117075,0.6693366,0.9006503,-1.0220714,-0.09690819,4.5649843,-3.7069583,-46.31254,
31617420,1.5301114,-0.8678221,1.4131325,0.60610497,-0.4596121,-0.26029298,4.1801596,-3.854414,-45.933487,21.0
31617440,0.65336645,-0.81931376,7.8686476,0.8519145,0.50005716,-0.4242104,3.4118547,-4.8184543,-45.554527,
31617460,-0.6934914,0.6206684,7.1242523,1.504122,0.074617565,-0.37680614,3.874854,-6.278592,-45.061806,26.0
31617480,-0.6994801,1.0755099,4.4404182,1.2017204,-0.9634818,-0.17627034,3.7235765,-6.9662724,-46.52787,
31617500,1.6483884,-0.99448305,3.0983517,-0.6434491,-0.8758639,-0.22766927,3.566661,-6.276314,-44.6052,
31617520,2.0837665,-3.304024,18.781551,-1.5064456,0.7069846,-0.60570467,3.873536,-4.8137674,-45.69787,31.0
31617540,-1.5199316,-2.2047987,26.43151,0.04111585,0.392865,-0.6601662,4.4871283,-4.7087193,-44.213554,
31617560,-2.0915525,-0.41747218,20.358374,1.3302178,-0.51074475,0.075664505,3.4112902,-4.593867,-45.32499,
31617580,3.238986,-1.3735676,14.101084,0.61529285,0.057173856,0.61921525,3.6454601,-6.589652,-45.915115,
31617600,6.08212,-1.7286971,17.617046,-0.73386335,0.4669009,0.12932716,3.6447506,-6.507841,-45.374397,
31617620,3.799229,-0.9735225,22.158875,-1.3194919,0.04851859,-0.6226157,3.4893808,-4.825394,-46.094193,
31617640,-0.12486467,0.44460067,24.663048,-0.9939208,-0.10807514,-0.751912,2.6393604,-2.9045444,-44.976852,
31617660,-0.94159454,0.49174032,22.684298,-0.37660062,-0.11952672,-0.20503242,3.7946177,-3.4133897,-45.638664,
31617680,0.8234453,-1.2663698,17.124178,-0.30948898,-0.10248251,-0.031128164,2.7954006,-4.017043,-45.57914,
31617700,1.3806936,-0.66929686,13.433044,-0.78526235,-0.37172788,-0.17946613,2.6406221,-2.704278,-46.372017,
31617720,1.9538118,-0.8699181,11.425934,-1.1679583,-0.32898414,-0.163354,3.100689,-1.9544377,-45.982338,27.0
31617740,1.8780546,-1.8673356,11.122906,-1.2060415,0.528553,-0.18412665,2.4850292,-1.6701164,-46.07834,
31617760,0.057790548,-1.6750983,12.310464,-0.81642133,0.8473331,-0.25536615,3.1745176,0.62059736,-46.39724,23.0
31617780,-1.0102934,-0.85135317,10.702799,-0.3218727,0.06742701,-0.1642861,3.7136288,-0.24873686,-45.909462,
31617800,-0.7315196,-0.29350615,7.480281,0.030463208,-0.4925021,0.06101713,4.3268814,0.7291832,-45.2091,
31617820,-0.2883561,0.41345945,5.5908475,0.2007722,-0.27638677,0.3606225,2.712304,-0.24538183,-44.696297,20.0
31617840,0.4245982,0.3757307,5.084802,0.35696647,0.20777547,0.59071946,5.4055786,-0.29212952,-45.55735,
31617860,1.029157,0.33680412,4.9979663,0.5854655,0.36170605,0.6136226,4.944851,-0.7436762,-45.718346,
31617880,1.6690493,0.25925052,2.9968433,0.67095286,0.28540653,0.4287994,4.4066553,-1.9851356,-44.401855,
31617900,1.543586,0.5023916,1.0933361,0.25070643,0.029477006,0.071669765,4.7149057,-2.2776008,-44.54557,
31617920,0.7135528,0.6682784,1.5221269,-0.17566529,-0.22951517,-0.102234505,4.2524176,-1.6926517,-44.40909,
31617940,0.567728,0.16133532,2.6354258,-0.2046937,-0.11593146,-0.08905187,3.7138538,-0.97535944,-45.204605,
31617960,1.0971287,-1.1013813,2.2171152,-0.25249743,0.2595739,-0.22607139,4.6382246,-1.7030296,-45.48272,
31617980,0.0934233,-0.8004492,3.7002158,-0.27193847,0.67436093,-0.36788458,4.8666267,-0.72747135,-44.559746,
31618000,-1.2106154,-0.6118054,6.9847164,0.33379698,0.5443988,-0.20343454,5.4827394,-0.6560092,-45.31907,
31618020,-1.51005,-0.5531161,5.466282,1.068163,0.2482555,0.087559946,5.4085455,-2.213079,-45.84456,
31618040,-0.11228842,-0.5336529,1.3595338,1.2270205,0.0048427954,0.22040719,5.485588,-2.8648286,-45.138657,
31618060,0.69408953,-0.20846665,0.70976025,0.7473855,-0.5197995,0.08099081,4.94728,-2.5851316,-45.619583,
31618080,0.5904851,-0.37704846,3.2890916,0.5561707,-0.55761635,-0.056028694,4.794318,-3.5398335,-45.225418,24.0
31618100,-0.42040682,0.46526167,8.061184,1.0134351,-0.042960912,-0.029130792,4.87414,-4.662765,-46.448547,
31618120,-0.18924317,1.4551932,4.402091,1.5110463,0.29672498,0.14450715,4.720398,-5.172924,-45.904778,30.0
31618140,0.61593705,0.96202403,2.851917,0.9592399,0.32655236,0.16115189,5.720434,-6.6063614,-44.160896,
31618160,0.21259834,-0.4351388,7.4227896,-0.24477425,0.013764368,-0.097840294,4.6427975,-5.2373724,-45.209534,
31618180,0.041920513,-0.79326284,14.481067,-0.8333323,-0.24709204,-0.2143535,4.6414394,-4.929815,-44.361923,35.0
31618200,-0.78062695,-0.45609924,19.409164,-0.47700167,-0.17092569,-0.101169236,3.56499,-5.240975,-44.385094,
31618220,-0.50155365,-0.6543251,18.127884,-0.11281473,0.04545596,0.2542293,3.948472,-4.424389,-44.38501,
31618240,1.2653257,-1.7124422,17.216787,-0.8334655,0.22748286,0.4185462,3.6420174,-5.82018,-43.75741,
31618260,2.30984,-2.7255158,20.673975,-1.7919364,0.5486598,0.20655875,4.026126,-4.6501255,-44.767372,
31618280,1.0552078,-3.3447468,26.61626,-1.9249612,0.5977951,-0.123939246,5.3291655,-2.0367246,-43.83664,31.0
31618300,-1.4959768,-2.056878,29.135109,-1.1269456,0.29086605,-0.1070282,5.327654,-0.9311576,-43.84948,
31618320,-0.49346906,-1.9245276,24.849297,-0.27193847,0.07674808,0.38365883,5.4810734,-0.5614586,-43.92733,25.0
31618340,1.4684279,-2.6240072,19.147758,0.065350585,0.37715238,0.5021694,5.7902527,-0.7215705,-45.078514,
31618360,1.5983826,-2.1793468,13.654326,-0.31255165,0.036134902,0.12959348,5.6355867,-0.92996216,-44.073982,
31618380,0.73780704,-0.5025117,10.491696,-1.0900608,-0.59463423,-0.06974397,4.175764,-1.2631736,-45.18978,23.0
31618400,1.7058797,-0.8241046,9.588901,-1.6772873,-0.24456203,0.134254,5.1690245,2.3866866,-43.6597,
31618420,2.6137662,-2.4206913,11.685243,-1.6676999,0.5967299,0.15356189,4.2473516,1.7035475,-44.06163,18.0
31618440,2.2873824,-3.053397,11.962521,-1.1511803,0.5997925,-0.22687033,5.168256,3.6994703,-44.6035,
31618460,0.81027025,-2.480578,9.905104,-0.55143696,-0.07172302,-0.6585683,5.7815456,4.0256314,-43.121765,
31618480,-1.3351803,-1.1130593,7.262292,-0.07339999,-0.50714946,-0.72914207,4.78319,3.917064,-44.46084,12.0
31618500,-2.769473,-0.19798644,4.63565,0.17653745,-0.351621,-0.3194151,4.860199,4.3511934,-45.083,
31618520,-2.945241,0.58773047,3.7208767,0.14378062,0.053045962,0.24717192,4.782407,3.927487,-43.76454,11.0
31618540,-1.1692933,0.27841437,3.872391,0.046974793,0.26609865,0.68393,5.786046,3.1697137,-46.12966,
31618560,0.74409515,-0.35818404,3.8789787,0.10010481,0.27728394,0.7180184,5.9383383,3.9885893,-45.748436,
31618580,1.4798065,-0.79595774,2.9606116,0.16508588,0.16263497,0.47314098,5.7847576,3.54866,-45.43763,
31618600,1.0923378,-0.9022571,2.8734765,0.11115692,0.12122282,0.18631874,6.9373674,3.292198,-44.013115,
31618620,-0.047311075,-0.6719917,4.780576,0.19198379,0.09459124,0.06621029,6.014349,3.27819,-44.03591,10.0
31618640,-0.10809633,-0.608811,5.279135,0.6083687,-0.110471986,0.13025925,6.323825,2.4628446,-44.637825,
31618660,0.34165478,-0.6543251,3.7056055,1.0038477,-0.37372524,0.17473401,6.248459,2.5133767,-46.110542,
31618680,0.52760375,-0.4282518,1.7808387,1.0945283,-0.43058366,0.13052556,4.940771,1.5539045,-44.893845,11.0
31618700,0.48179018,-0.31536487,1.0017092,0.90264773,-0.20834307,0.10362767,5.328598,0.5035558,-46.49707,
31618720,0.034734078,-0.37195805,2.3761148,0.7383308,0.054510698,0.10868767,5.867014,-0.35651255,-45.390358,15.0
31618740,-0.25961035,-0.48783934,4.8308816,0.9014493,0.02401753,0.16115189,4.9436913,-0.5835271,-44.869026,
31618760,-0.30931652,-0.24320106,5.4123836,1.349792,-0.28091416,0.2781977,5.5619593,-2.2775002,-45.3757,
31618780,0.26859266,0.43172497,4.3236384,1.5730981,-0.48597735,0.28325772,4.947069,-3.3059616,-44.527885,18.0
31618800,0.7698038,1.2370764,2.5301101,1.0637689,-0.68757844,0.106557146,4.7164907,-3.31178,-44.688316,
31618820,1.1321627,-0.16714466,4.8557343,-0.09483841,-0.6425711,-0.005029208,4.5636463,-3.9786143,-44.761772,25.0
31618840,1.0863491,-1.4433358,14.513705,-0.56448644,-0.004078798,-0.09064977,3.1013107,-3.409998,-44.727356,
31618860,0.61593705,-2.010166,21.734875,0.4066344,0.4321466,-0.023271846,3.4091759,-3.0460715,-45.342964,
31618880,0.4195078,-1.8544596,19.796036,1.19959,-0.058673542,0.23265773,2.793539,-3.340963,-44.7358,
31618900,3.2237148,-2.9746456,14.233435,0.37534228,-0.14469358,0.26261824,4.027422,-5.5357385,-44.834465,
31618920,4.072613,-2.83451,16.827436,-0.9324019,0.24652445,-0.14684242,4.100587,-4.0373178,-43.302353,29.0
31618940,2.2981617,-2.6210132,21.701038,-1.4690285,0.41763237,-0.48439777,3.1013517,-3.627637,-44.492683,
31618960,-0.5294011,-2.156889,24.272585,-1.3099046,0.40258554,-0.49718094,4.2543097,-2.5138245,-45.09597,
31618980,-1.1468356,-1.9829173,23.38626,-1.1120318,0.20591128,-0.121675566,5.3292704,-1.6763091,-44.382484,26.0
31619000,1.2893659,-2.6877873,21.61001,-1.0182887,0.07182123,-0.059224494,5.8668175,-1.1498909,-44.220444,
31619020,1.5843092,-2.8485832,19.660093,-0.8269408,-0.17239043,-0.30876246,4.790044,-0.66072416,-44.949333,21.0
31619040,0.8977053,-1.4277651,15.510823,-0.884465,-0.37718734,-0.22367457,5.097431,-0.07336807,-45.41279,
31619060,2.36284,-1.4121946,12.388616,-1.1017787,0.08620229,0.022534484,4.8650208,0.88592243,-45.12014,
31619080,3.3970878,-2.6764085,11.158837,-1.2676935,0.89846575,2.9710867E-4,4.4788713,1.7691717,-44.830452,16.0
31619100,2.539207,-3.373493,12.030192,-1.1867335,1.2936783,-0.3760072,5.7856197,2.6688378,-45.11789,
31619120,0.4581349,-2.5221996,12.608701,-0.743717,0.6981961,-0.80064785,6.0147257,3.128465,-44.188934,12.0
31619140,-2.214321,-0.90195763,10.046737,-0.07473158,-0.14402778,-0.8105016,7.089321,4.983946,-44.41584,
31619160,-3.3458848,0.417951,5.6875644,0.19535713,-0.53666615,-0.41737494,5.9355974,5.1829176,-44.756363,
31619180,-2.595202,0.7488264,3.0758944,0.031128991,-0.3645373,0.041176587,6.630724,3.3461776,-45.02733,9.0
31619200,-1.666355,0.6263576,4.4958143,-0.11161631,0.09405862,0.44184887,6.5516644,3.6629913,-43.48532,
31619220,-0.62581915,0.27092847,5.1315136,0.16894747,0.25371498,0.6567658,6.7060347,3.5858305,-43.8675,8.0
31619240,0.5422761,0.09216589,3.812204,0.4907902,0.0071064755,0.6521053,6.4766464,3.7088912,-45.267517,
31619260,1.1920497,-0.019822728,2.782448,0.64192444,-0.23217833,0.4739399,6.630212,2.8464596,-43.93821,
31619280,0.8908181,-0.07222382,2.287183,0.6488487,-0.30221942,0.26474875,6.786785,1.220346,-44.379776,
31619300,0.414118,-0.135704,2.6264427,0.58413386,-0.27558783,0.12866135,6.172036,1.2754469,-45.01477,
31619320,0.119174704,-0.09258538,3.2908883,0.7089029,-0.19063306,0.1370503,7.017256,1.806535,-44.845123,
31619340,0.1347453,-0.34740442,3.1073349,0.96256876,-0.07438619,0.1864519,7.3265896,1.2825327,-45.68258,
31619360,0.3112407,-0.33538428,2.42642,1.1231573,-0.09569146,0.15089872,6.636323,-0.56363726,-45.214066,
31619380,0.3715982,-0.33812195,1.6802284,1.1757547,-0.19902201,0.08605082,6.7158775,-2.1172147,-45.658386,10.0
31619400,0.22667179,-0.32015586,1.342466,1.0773509,-0.37718734,0.0010960563,6.867749,-1.3650942,-44.81211,
31619420,-0.07875173,-0.49562466,2.7102842,0.9874693,-0.48011842,-0.073605545,6.715969,-3.0591593,-44.564117,15.0
31619440,-0.5916835,-0.48664162,5.651333,1.2700304,-0.36933103,-0.06495028,6.3337603,-4.1821446,-45.334457,
31619460,-0.973463,0.27003014,5.8169208,1.64487,-0.48690945,0.052761335,5.873313,-5.2163796,-45.0244,
31619480,-0.0398252,0.6988208,3.216928,1.1407342,-0.6951685,0.23345666,5.6433296,-5.157758,-45.80462,19.0
31619500,1.548377,-1.2331326,7.450637,-0.23851582,-0.060005136,0.06820766,4.4870167,-4.1283484,-44.839333,
31619520,0.60934955,-2.3631997,18.651896,-0.51694906,0.3061792,-0.17880033,5.1805706,-5.437575,-44.34263,23.0
31619540,-0.23984766,-2.242228,22.90866,0.5392597,-0.12019251,-0.1991735,5.258128,-5.155488,-45.272552,
31619560,-0.079650015,-1.663121,18.321617,1.3416694,-0.28251204,-0.06907818,4.8739233,-5.817716,-44.81015,
31619580,1.1025187,-1.6753979,11.269629,0.01967743,-0.023919314,0.059818707,4.2596283,-6.78174,-44.582115,
31619600,1.641202,-2.8866117,17.619741,-2.0401428,0.90592253,0.051562913,4.5656147,-5.669186,-44.432617,
31619620,1.0507163,-3.5025492,27.887661,-2.2876835,0.9055231,-0.1463098,5.7946224,-4.1085043,-44.807037,
31619640,-0.22277987,-1.9478836,27.97959,-0.92920595,0.41097453,-0.2523035,4.561531,-2.430819,-44.779755,
31619660,-0.35752556,-1.3603923,20.175716,-0.18112476,0.08100913,-0.090916075,6.484111,-3.1926975,-43.407616,
31619680,0.07785268,-1.6415616,12.297289,-0.72906965,0.4084445,-0.017412897,6.7160473,-2.5536504,-45.26642,18.0
31619700,-0.5201186,-1.028918,12.647627,-1.7570488,0.5320151,-0.09584292,6.7906847,-1.509038,-44.50284,
31619720,0.74080133,-1.2289405,14.213971,-2.1045914,0.07195439,0.056889232,6.250063,0.46586466,-45.00345,15.0
31619740,2.6727548,-2.2886405,13.8151245,-1.7569158,0.1549118,0.042508174,8.479022,1.0283875,-44.10331,
31619760,3.100048,-3.4564362,11.750221,-1.2049761,0.31230447,-0.19584455,7.6326904,2.2488356,-45.453995,
31619780,1.9840548,-3.8888197,9.564049,-0.9280077,0.4711619,-0.55656934,7.7846956,3.2162778,-44.997116,8.0
31619800,-0.6030621,-2.8602617,9.607766,-0.7980455,0.37941608,-0.82727945,7.4762278,3.2945783,-44.38665,
31619820,-2.9090097,-0.9843023,9.956607,-0.47100955,-0.23683886,-0.74072677,7.6279716,4.2654953,-43.69767,7.0
31619840,-2.9560208,0.04395689,8.432483,0.03858584,-0.9022291,-0.33925563,7.2445354,5.0402966,-45.728127,
31619860,-1.7277393,0.26044828,5.3569884,0.4335323,-0.92060494,0.13851506,7.9348755,5.5829477,-44.63389,
31619880,-0.061384514,0.014911715,3.0300808,0.5666902,-0.30634734,0.38046303,5.552018,4.874156,-45.30401,
31619900,0.7419991,0.13797942,2.3590472,0.4158223,0.0940586,0.30150038,7.3995295,3.5075758,-44.855316,
31619920,0.4063755,0.28367585,3.010917,0.26082647,-0.061736178,0.1244003,6.0920057,4.4273605,-46.136604,
31619940,-0.29284763,0.30266857,4.0328875,0.40570226,-0.41314,0.09164345,6.5530787,4.4401546,-45.738373,
31619960,-0.8189546,0.054736536,3.9954586,0.78813183,-0.45002472,0.2558272,6.0928288,2.8243906,-44.879906,
31619980,-0.23715273,-0.24978867,3.3381991,1.0915989,-0.15334883,0.4375878,5.6321316,2.661871,-45.431168,
31620000,0.50754166,-0.4968224,2.659979,1.2424668,0.08899861,0.44624305,6.4817266,0.2401452,-45.53675,
31620020,0.8530894,-0.521376,1.75359,1.2097099,-0.026848802,0.32240617,6.8666134,-0.40925217,-44.977974,
31620040,0.3102141,-0.8750085,2.411149,1.105314,-0.19769043,0.16181768,7.176502,-0.6511755,-46.669884,
31620060,-0.394356,-1.1681551,4.4125714,1.203052,-0.38024998,0.12453346,5.0237694,-2.1440535,-45.77755,
31620080,-0.29943514,-1.1861213,4.1586504,1.529289,-0.32458997,0.14703715,5.716629,-3.0098944,-45.20861,8.0
31620100,-0.56862706,-0.774099,3.4843235,1.6636453,-0.1436283,0.25356352,5.409668,-3.096375,-45.756927,
31620120,-0.63031065,-0.10096957,4.051752,1.3145052,-0.1360383,0.3719409,4.798896,-5.265149,-47.217262,13.0
31620140,0.05419732,0.38830686,4.7629104,0.40050915,-0.47625685,0.42041042,4.7977476,-5.611668,-45.74302,
31620160,2.3427775,-2.2709737,7.1494055,-0.8615618,-0.34642783,0.4762036,3.182376,-6.0691414,-45.158836,
31620180,2.8943365,-4.19634,18.201246,-0.9903255,0.90405834,0.19257718,4.872179,-4.8537664,-44.43444,16.0
31620200,0.99023056,-3.9367292,26.845629,0.74818444,0.20697656,-0.042579744,4.489563,-4.741148,-46.37982,
31620220,1.2031287,-3.5462666,18.135668,1.8483354,-1.1612214,0.017341327,4.1831493,-6.354577,-45.517548,
31620240,3.2629406,-2.4931545,8.027946,0.15177007,-0.23004778,-0.047240272,5.0286236,-6.2610826,-45.033318,
31620260,2.509563,-2.509324,14.512806,-1.8867449,1.0215036,-0.2539014,5.0265923,-5.148566,-44.581947,
31620280,1.1767786,-3.8909159,23.660542,-2.461233,0.7830178,-0.44045565,5.0256033,-4.0499473,-45.059,18.0
31620300,-0.47011298,-3.2417414,27.472345,-1.7641064,0.29712448,-0.4543041,6.102127,-3.6673985,-45.191406,
31620320,-0.07006813,-2.469499,23.705755,-0.7246755,-0.20275044,-0.1373882,4.4079294,-2.291535,-45.172096,13.0
31620340,1.6798289,-2.2988212,17.266712,-0.3485043,-0.140832,0.04597028,3.7914076,-1.1273913,-45.587822,
31620360,2.236478,-2.2323468,12.043668,-0.726806,-0.09462619,-0.17121032,5.48442,-2.1980133,-44.91426,
31620380,2.3322973,-2.9611707,8.865465,-1.6325463,-0.17731726,-0.39118722,4.941127,1.0426049,-44.578384,10.0
31620400,1.2827783,-4.3981586,12.311961,-2.418711,0.5001903,-0.46828568,4.5560017,2.4911711,-45.920242,
31620420,-0.26410186,-4.0795603,18.406956,-2.0055215,0.80458945,-0.56216204,4.5531588,3.7592037,-44.92903,7.0
31620440,-1.1124008,-2.7955837,17.049618,-0.48019746,-0.092229344,-0.5716162,5.7833443,4.146403,-44.90291,
31620460,-1.451361,-1.4619008,9.049918,0.6934566,-1.0600213,-0.3594956,6.0912952,4.5091715,-45.595894,
31620480,-1.0935364,-0.32306463,3.0807278,0.6746813,-0.9293933,-0.004097106,4.2472677,3.5137327,-46.2493,6.0
31620500,0.17307295,-0.047670178,1.250839,-0.046102606,-0.28304467,0.1763319,3.9377785,4.4016247,-45.7256,
31620520,0.28685817,0.24936917,5.001559,-0.40283272,0.2337413,0.11747608,4.0947676,2.4081464,-46.085518,
31620540,-0.094322324,0.5311373,6.713428,0.06255427,-0.064133026,0.13092504,4.7083273,3.5990732,-45.929283,
31620560,0.223378,0.6616909,4.547616,0.63033974,-0.31646731,0.23878297,4.479739,2.6983776,-46.77575,
31620580,0.73990303,0.2924878,2.7024992,0.7617666,-0.3130052,0.27287138,4.250125,2.1731534,-47.162277,
31620600,0.8974058,-0.109653175,2.1796858,0.666825,-0.058673553,0.22560033,2.634883,1.4968805,-46.420815,
31620620,1.1393492,-0.7007375,3.0348713,0.6211518,0.27129182,0.12067188,3.7117672,1.8022504,-46.784462,
31620640,0.777033,-1.1373134,4.7548246,0.7500487,0.44120133,-0.09171504,4.403717,1.1656294,-45.67653,
31620660,-0.37998316,-0.6818731,5.4087906,1.1031835,0.20977287,-0.23419403,5.8681173,-0.22647619,-46.552574,
31620680,-0.9836438,-0.353992,4.671582,1.5314194,-0.28464258,-0.25057244,4.100958,-1.8713493,-46.34533,7.0
31620700,-1.0342482,0.37393406,1.8592907,1.7002637,-0.6967664,-0.1453777,3.9474506,-2.2398896,-46.190117,
31620720,-0.15600592,0.73086035,0.32947803,1.3649721,-0.7532253,0.034651853,2.7191324,-4.243957,-45.88793,10.0
31620740,1.344462,-0.07551761,0.3016306,0.9657646,-0.24908939,0.1041603,2.9501152,-4.5329566,-45.724075,
31620760,1.4567499,0.12510371,3.4645605,0.59345496,0.54746145,-0.02300553,4.180031,-3.6356158,-46.09079,
31620780,0.7210387,1.0371822,8.135743,0.8565751,0.4362745,-0.07706766,4.260663,-6.28897,-46.135445,14.0
31620800,1.2058238,1.4375265,6.567603,0.93127656,-0.39223418,-0.017279739,2.4155483,-7.0528727,-46.095108,
31620820,2.8916419,-1.3415282,3.0902672,-0.3363869,-0.60462105,-0.13259453,3.3367672,-5.78473,-46.00949,17.0
31620840,2.9659014,-4.89522,12.600017,-1.8558521,1.2129847,-0.55031097,4.4121675,-4.5188847,-46.229553,
31620860,-0.83063257,-3.8627691,29.12133,-1.0601003,1.4143195,-0.7895957,5.564542,-3.5420585,-46.13481,
31620880,-1.6504849,-2.6794026,25.165796,1.1708277,-0.23177886,-0.17507188,4.3341103,-3.9983296,-45.850616,16.0
31620900,0.9081854,-1.8113413,12.77279,1.3065157,-0.20421517,0.45409942,4.486395,-4.047695,-44.375984,
31620920,4.6355505,-1.4795674,11.217227,-0.36541533,0.73854303,0.6057663,4.6423273,-4.579823,-45.604065,18.0
31620940,5.8791027,-2.3099,18.360844,-1.7610435,0.526023,-0.009956047,5.1794662,-4.1927056,-44.898743,
31620960,3.3440876,-2.647962,25.233772,-1.704851,0.051980704,-0.694521,4.100417,-2.2259746,-45.41265,
31620980,-0.066774316,-1.4837594,25.198437,-0.77767235,-0.36120838,-0.60823464,3.8676853,-1.4071445,-44.654106,15.0
31621000,0.7566714,-2.8863122,19.45348,-0.13531843,-0.15374832,0.0021613166,4.63694,-1.3240833,-44.790703,
31621020,2.4844103,-3.967571,14.04479,-0.3092227,0.2972576,0.047035545,4.1012096,-2.743064,-45.48403,13.0
31621040,1.3933126,-2.6658428,12.24925,-0.8879272,0.052247033,-0.3106267,4.175495,-0.7530327,-45.582603,
31621060,0.30392596,-1.6511437,11.584932,-1.3603715,-0.41327313,-0.25163773,5.9444675,-0.43484116,-45.774437,
31621080,0.9776543,-1.9008722,13.111153,-1.2262814,0.077280715,-0.024736583,5.0966253,0.51626825,-45.419624,11.0
31621100,1.1180892,-1.99759,13.298898,-0.51282114,0.161836,-0.14005136,5.48057,1.1819711,-45.649933,
31621120,0.9372307,-1.4822624,9.618545,-0.011348387,-0.48810786,-0.5063688,3.7884464,1.2276783,-45.84732,8.0
31621140,-0.70187557,-0.32854,5.510299,0.042846896,-1.0971724,-0.6764115,4.48102,1.8853111,-46.92106,
31621160,-2.3912866,0.80122757,2.5788324,-0.26568004,-0.8994328,-0.26362193,3.0968122,1.5706406,-46.874466,
31621180,-1.9211743,0.9269902,3.3136454,-0.5410507,0.043059118,0.3274662,3.0180616,2.5345802,-46.423294,
31621200,-0.53000003,0.31404707,6.681389,-0.26248428,0.4555824,0.5786021,2.6345062,1.646606,-46.267784,
31621220,0.43388066,0.30925617,5.6531296,0.20809591,0.20604444,0.5889884,3.7875166,2.4702325,-46.558174,7.0
31621240,1.2950552,0.19008107,3.2411823,0.30157277,-0.19063306,0.42480466,2.8658514,1.280427,-46.335175,
31621260,1.6852189,-0.11713906,2.619256,0.19944063,-0.56494,0.16381505,3.3286095,1.5602446,-47.797173,
31621280,1.185462,-0.33542705,3.2229166,0.2698812,-0.5581489,-0.04497659,3.7111988,1.5927181,-46.008232,
31621300,0.3808807,-0.24439885,3.6762607,0.4698844,-0.22125939,-0.07293976,2.0979843,0.7447152,-46.889748,
31621320,0.22727066,-0.11055148,4.2619557,0.8291445,0.18234232,0.041842386,2.7123175,1.0569787,-46.336403,
31621340,0.34045702,-0.44651735,3.785255,1.2303494,0.41377082,0.16674453,3.2508392,0.55732536,-45.775543,
31621360,0.8078748,-0.62557936,1.9599004,1.1437968,0.31270394,0.14597188,2.6387463,-0.58074427,-47.32524,
31621380,0.89351314,-0.5899466,2.5345159,0.961903,0.108173355,-0.0019665752,4.1772537,-1.7895293,-45.88009,8.0
31621400,0.53718567,-0.70642674,4.5560007,1.0275055,-0.032974068,-0.0848352,4.1767263,-0.8417926,-46.587517,
31621420,-0.4602317,-0.5635963,6.0313153,1.2649705,-0.14828883,-0.0534987,4.3354883,-3.9443135,-47.166695,12.0
31621440,-0.43987012,-0.30009368,5.6615133,1.4665716,-0.24615993,0.12693031,2.5659418,-3.5312505,-47.370255,
31621460,0.48059252,-0.9076469,5.1704407,1.029414,-0.2610736,0.29710615,2.7998142,-6.24671,-46.791313,
31621480,2.1134105,-2.8147473,9.038838,0.15350114,0.07501702,0.2478377,2.5669231,-5.498111,-45.79982,16.0
31621500,1.7513938,-2.322177,16.399546,0.016348466,0.53814036,0.00921869,2.8749008,-5.2804337,-46.33635,
31621520,0.664146,-1.5687991,19.012714,0.7007803,0.14239493,-0.06881186,2.7970133,-5.196316,-45.565437,19.0
31621540,0.9980158,-1.6439573,14.52209,1.1296821,-0.33923733,0.16634506,2.7235966,-7.1979284,-46.240532,
31621560,2.534416,-1.1340196,11.876882,0.4312686,0.10511072,0.345043,2.4921465,-7.1921644,-45.627304,
31621580,2.4553652,-0.55072063,16.924755,-0.528667,0.49845928,0.23638612,2.7984362,-6.300725,-45.475243,23.0
31621600,1.9569346,0.10127727,18.789248,-0.9202845,0.0019133165,0.12679715,3.0304089,-6.3134365,-46.552673,
31621620,2.193659,0.047250673,19.339996,-1.1386635,0.019889638,0.18631874,3.1044064,-5.549745,-44.85727,
31621640,2.1789868,0.31045386,21.364473,-1.220822,0.23826866,0.30762562,3.1040773,-5.1835394,-45.01628,
31621660,3.3060594,-0.47945514,22.360394,-0.8931202,0.22175708,0.45156938,3.797369,-5.1143847,-46.005806,
31621680,5.0850015,-2.0460982,18.073086,-0.49431223,0.09152861,0.20669194,2.5629864,-3.4918733,-44.7398,17.0
31621700,4.6053076,-3.2321594,12.083492,-0.834797,-0.08237566,-0.4476462,2.947627,-2.8354359,-45.589035,
31621720,0.8854284,-2.2760642,11.8873625,-1.7035195,0.20830812,-0.84166056,4.56026,-0.74951315,-45.72785,15.0
31621740,-1.9870498,-1.7508554,15.799178,-1.8760922,0.4107082,-0.4618941,2.867344,-0.18671513,-45.85385,
31621760,-0.5653333,-2.345533,16.491173,-1.2013808,0.46809924,0.16061926,2.250576,0.90835667,-45.95926,
31621780,1.162106,-2.6662276,14.600542,-0.24743742,0.6284214,0.2984377,3.7876043,1.0941677,-44.917206,10.0
31621800,1.7247443,-1.9670476,9.913787,0.31462225,0.3061792,0.038380276,3.5584211,0.12903214,-45.143875,
31621820,0.91896504,-1.0489801,6.3268576,0.24378224,-0.4288526,-0.3051672,4.4043255,1.1575222,-46.2181,
31621840,-0.97825384,0.179002,5.0680337,0.13858745,-0.6465658,-0.26255664,5.0197353,0.37000895,-45.26509,8.0
31621860,-2.014598,0.74643093,4.397599,0.17320852,-0.01566352,0.18725085,4.2505093,0.14185429,-44.972046,
31621880,-1.253135,0.95483756,3.4295268,0.13765533,0.6446667,0.63572687,5.020591,0.43097258,-46.116974,
31621900,0.5117337,0.43561763,3.320233,-0.0568884,0.558913,0.6647552,5.173831,0.36886883,-45.493385,
31621920,1.0267617,0.25505844,3.9011364,-0.05102945,0.08566965,0.40629566,4.791379,-0.3890686,-46.50009,
31621940,0.7009765,0.27601886,1.8239572,-0.10908632,-0.2690631,0.23998141,5.253537,-0.607811,-46.795593,
31621960,0.33117455,0.19816582,1.9266634,-0.34837115,-0.00327985,0.17553295,4.865569,0.7338805,-45.427902,
31621980,0.5132309,-0.3456078,4.6919436,-0.2287953,0.4330787,0.15649137,5.867079,0.22154188,-46.170876,7.0
31622000,0.047909208,-0.44232523,7.1796484,0.47973812,0.38926977,0.0965703,5.406967,-0.7447796,-46.248512,
31622020,-0.04731106,-0.45220664,4.6545143,1.2556493,-0.033240374,0.059152924,4.3307695,-1.9276543,-45.410385,
31622040,0.08234421,0.08258398,1.5469799,1.3053173,-0.5890416,-0.0048960503,6.6385975,-2.041202,-45.42904,
31622060,0.23266049,0.56167966,1.8230588,1.1154342,-0.86081696,-0.009822894,4.7172804,-2.4539633,-46.47802,
31622080,0.1581012,0.1724144,3.2172275,1.0848079,-0.6774585,0.07886029,4.7934313,-2.5149188,-45.7016,10.0
31622100,0.36830443,-0.39381683,6.0184402,1.2183651,-0.13364147,0.12999293,3.4115658,-3.2949805,-47.197197,
31622120,0.56742865,-0.47137043,6.1933093,1.4605795,0.08713439,0.18019348,4.026718,-5.0198064,-44.84046,
31622140,1.1180893,-0.34890157,4.4892263,1.1262199,0.04146122,0.17886189,4.3367844,-6.204833,-45.515472,15.0
31622160,2.035258,-1.5705956,6.169355,0.12580429,-0.02565038,9.629E-4,3.7988205,-6.363888,-45.759155,
31622180,1.6913786,-2.8040962,14.207383,-0.17473316,0.22508603,-0.33233142,4.3366356,-6.3476105,-45.204277,19.0
31622200,0.06797135,-2.3730812,17.260422,0.6686892,0.014696471,-0.34524772,3.414051,-6.801529,-45.067223,
31622220,-1.2480447,-1.7212114,14.089705,1.1765536,-0.18064621,0.06700923,4.0307503,-7.533868,-45.35292,
31622240,-0.071565226,-1.0393983,10.640216,0.35203964,0.28820288,0.43865305,3.5697002,-8.125875,-45.048004,22.0
31622260,1.624733,-0.89507073,15.468003,-0.580998,0.65878147,0.29444298,4.7228384,-7.5210447,-45.18109,
31622280,1.4884901,0.0056292266,19.997854,-0.71362334,-0.3814484,-0.02167395,4.7982464,-6.4143105,-45.19204,23.0
31622300,1.3860834,-0.047969613,18.245262,-1.0145602,-0.94031227,-0.033791322,3.5678883,-6.7991943,-45.063408,
31622320,1.998128,-1.4765732,20.780277,-1.5076442,0.22428708,0.19697139,3.1824732,-6.576968,-44.611275,
31622340,1.5337048,-1.6391662,27.722374,-1.2796777,0.73601305,0.44943887,3.2563744,-3.930544,-45.181763,22.0
31622360,4.0061383,-2.5488496,27.773878,-0.36528218,0.069557555,0.5021694,3.794485,-3.6287136,-45.249245,
31622380,6.51121,-3.7953963,20.526955,0.34298488,-0.32472312,-0.06281975,2.639328,-3.193572,-44.586594,17.0
31622400,4.716098,-3.0722613,12.378736,0.038452677,-0.36879838,-0.8505821,4.2578344,-5.093484,-45.066,
31622420,0.64019126,-0.77739275,8.363914,-0.9784745,-0.13883464,-0.98094374,3.9489717,-3.8521252,-45.55236,
31622440,-0.67642367,0.6221656,8.944818,-1.7304174,0.62296194,-0.4460483,3.4072447,-2.0072594,-44.890755,
31622460,1.4516597,-1.2457088,10.60039,-1.7264225,1.2225721,-0.28798983,4.175596,-0.8267369,-45.581757,
31622480,1.1564169,-2.054782,11.545108,-1.1756814,1.2207079,-0.69292307,5.018938,0.45297766,-44.647003,13.0
31622500,-0.8039828,-0.96753395,9.311625,-0.5513038,0.30125237,-0.9681605,5.3252926,1.922473,-45.275467,
31622520,-2.3724222,0.6167757,5.760327,-0.2751343,-0.59614336,-0.8347807,5.865843,1.2510891,-46.3376,
31622540,-2.268818,1.2309165,3.049544,-0.28725162,-0.9574896,-0.466022,5.173896,0.94692326,-46.273903,9.0
31622560,-1.533406,0.9242952,2.7551997,-0.3754022,-0.57612526,-0.08399187,5.2486477,1.8452845,-45.431236,
31622580,-1.230378,0.6242615,3.972402,-0.27526742,-0.004877737,0.14823556,4.555375,2.1377044,-44.910202,8.0
31622600,-1.0588019,0.78925014,4.0843906,-0.008552065,0.039197534,0.3232051,5.6338787,2.1320415,-46.35356,
31622620,0.009880997,0.66977566,3.4232388,0.17360799,-0.22938204,0.44824043,4.173229,1.592773,-46.46103,
31622640,1.0243661,0.08977041,2.828561,0.19611168,-0.34136784,0.3716746,4.8659544,1.452395,-46.67433,7.0
31622660,0.8512928,-0.05755151,3.2717247,0.21768327,-0.18304306,0.13824874,4.787301,1.9085112,-45.6756,
31622680,0.078451544,-0.024314253,4.6194806,0.45390546,-0.068127766,-0.033125535,4.248348,2.8480756,-46.396317,
31622700,-0.9132766,0.33620524,4.3227406,0.88959825,-0.17159148,-0.096775025,4.6334457,1.5446026,-45.210915,
31622720,-1.0613683,0.6782454,2.0232952,1.109442,-0.34229997,-0.019942896,3.6368036,0.18305731,-46.53544,
31622740,-0.7497852,0.8605156,0.97565836,0.9830751,-0.38371208,0.121470824,3.6385574,-1.287559,-46.28621,8.0
31622760,0.23056443,-0.12043284,2.3955781,0.9014493,-0.17079253,0.23958191,3.94584,-1.0606174,-46.20381,
31622780,1.0680836,-0.87950003,3.2534592,0.9953257,0.3201608,0.21374927,3.6409702,-3.4905877,-45.718964,11.0
31622800,0.5060445,-0.52706534,5.3327346,1.1278177,0.68927467,0.10495925,5.1009693,-2.7255726,-45.304596,
31622820,-0.2994352,0.020600969,5.868723,1.1370057,0.28540656,0.09856767,4.6426706,-5.0185747,-45.36683,
31622840,-0.10809634,-1.1172513,5.8465643,0.30729857,-0.4240589,0.14490663,3.1038055,-4.6733985,-45.409103,15.0
31622860,1.2920611,-3.3121088,12.64104,-0.59711015,0.2581092,0.1354524,4.1823797,-5.041793,-46.461357,
31622880,2.0196874,-3.6381931,22.655037,0.23619221,1.1962067,-0.0072928956,5.718479,-4.9883356,-44.411827,18.0
31622900,0.6578579,-2.7027588,20.715597,1.9077237,0.6214972,-0.17001191,5.8740177,-5.7323112,-45.01841,
31622920,1.0267617,-1.905663,11.8900585,1.7234331,-0.12325514,-0.2076956,5.72215,-7.4252176,-44.693047,
31622940,0.8210499,-1.1720479,11.184288,0.021941096,0.3441292,-0.38918984,5.4937716,-7.6050816,-46.631203,22.0
31622960,-0.31530523,-0.6369579,18.441391,-0.9226813,0.49992403,-0.29518035,5.7976847,-6.537279,-44.54669,
31622980,0.86207247,-1.5900588,21.22913,-0.8438518,0.23027918,-0.06761343,5.567627,-6.550047,-45.171318,23.0
31623000,1.4971737,-2.2482166,20.421555,-0.63133174,0.5220282,-0.091182396,5.1032724,-4.3482304,-45.363136,
31623020,-0.4949661,-0.8567431,21.074621,-0.7477118,0.5453309,-0.15110348,6.8727303,-4.7601357,-45.082207,
31623040,-0.552757,0.15295114,21.30369,-0.83692765,-0.0067419484,0.023999225,6.2569504,-4.763684,-44.71057,22.0
31623060,1.4318969,-0.93279946,19.17321,-0.6979108,-0.31353784,0.027860804,6.411172,-4.0428343,-45.9532,
31623080,1.0818577,-1.3475168,15.694975,-0.6260055,-0.19263044,-0.15882663,6.7160015,-2.7701316,-44.95439,19.0
31623100,-0.026650086,-1.3289517,12.416464,-0.9839339,0.049717013,-0.19384718,6.1797323,-3.1688304,-46.433372,
31623120,0.13145152,-1.1627653,12.811717,-1.5052474,0.23001286,-0.08811976,6.022375,-1.5322924,-45.2955,
31623140,1.4738177,-2.0526857,14.244813,-1.3696926,0.2372034,-0.132994,6.9446125,0.30116558,-46.84144,15.0
31623160,1.4387839,-2.1583862,13.150378,-0.6539686,0.21509919,-0.38719246,5.865961,0.16405106,-45.086884,
31623180,0.21140061,-1.1516863,9.412534,-0.09230842,0.1273481,-0.6182215,7.940958,2.317944,-46.066185,11.0
31623200,-1.4663327,0.016109455,6.3355412,0.012753203,-0.098487765,-0.68386835,7.6347647,0.9186797,-45.670685,
31623220,-2.9865632,1.0982668,4.509887,-0.10322736,-0.3219268,-0.46788618,6.0967436,1.3973675,-46.643074,
31623240,-3.2626424,1.2845154,4.1041536,-0.12213579,-0.13297568,0.041842382,7.0976152,1.038229,-47.00093,10.0
31623260,-1.9235696,0.8683009,4.40269,-0.0660763,0.13320705,0.45463198,6.711603,0.76189566,-45.38231,
31623280,-0.44406223,0.6763633,4.467068,0.1511043,0.08620228,0.6136226,7.5576773,1.3539486,-46.06456,9.0
31623300,1.347114,0.27854267,3.382558,0.32567438,-0.10261567,0.49697626,7.7117605,1.4253554,-46.37107,
31623320,1.665456,-0.08989049,2.8399396,0.45483753,-0.12631778,0.17047295,7.8678455,0.09521675,-46.73871,
31623340,0.5815021,-0.094382,3.0435553,0.55976605,0.053844914,-0.06961081,6.8688946,-0.07779026,-47.457993,
31623360,-0.34494925,-0.08989049,3.0091202,0.7284771,0.21509919,-0.1364561,7.560441,-0.41959286,-46.353477,
31623380,-0.51772314,0.1730133,2.0751832,0.74632025,0.0529128,-0.13858663,7.1795874,-2.284257,-47.424713,9.0
31623400,-0.91686976,0.3347081,1.6754375,0.71382976,-0.16999358,-0.07919819,7.5613766,-1.2280269,-46.18933,
31623420,-1.1734853,0.26643696,1.8742622,0.6898613,-0.31699997,0.051429756,8.411575,-4.091979,-46.289772,
31623440,-0.64079094,-0.21445534,3.0324762,0.7302082,-0.33417735,0.2519656,6.9482555,-3.3655314,-45.560776,12.0
31623460,0.23685256,-1.1157541,3.349877,0.9677619,-0.019258793,0.3672804,7.2581844,-3.8250942,-47.017998,
31623480,0.76206124,-1.1130593,2.9570186,1.0836093,0.24439394,0.26954246,7.0272236,-4.115307,-46.478706,15.0
31623500,0.43986934,-0.35429138,4.218238,1.0238214,-0.050817233,0.15862189,7.337085,-5.587045,-46.60872,
31623520,-0.47640115,0.17630708,6.6942644,0.7139629,-1.0686766,0.10349451,7.5668097,-5.642191,-45.596405,
31623540,0.59767157,-1.2924206,5.578271,-0.08458526,-1.4915862,0.20389558,5.3379583,-6.7850847,-45.87075,18.0
31623560,2.2083316,-2.8755329,11.855922,-0.7379913,0.34692556,0.041975535,5.1066008,-6.34636,-45.881584,
31623580,0.4868806,-2.33655,20.033485,-0.09071052,0.8768941,-0.13685557,5.259241,-5.5321174,-45.809837,
31623600,-0.9686719,-1.867635,19.203753,0.5388602,-0.36506996,0.18099242,5.873643,-5.582585,-44.865387,
31623620,1.7064785,-2.223064,14.755947,0.1476422,-0.19263043,0.54917413,5.104636,-5.5965743,-45.039116,
31623640,3.9702063,-2.493154,16.405535,-0.63732386,0.5710304,0.48019835,4.1036396,-4.5845194,-45.38526,20.0
31623660,3.9857762,-3.012075,19.755312,-1.1182903,0.4245566,0.101763465,5.5662403,-4.72249,-46.198494,
31623680,2.1409585,-2.5027363,22.292723,-1.4145668,0.10511072,-0.25696403,5.178817,-3.9669595,-44.591843,
31623700,0.21559268,-1.9742336,25.506557,-1.3506509,-0.022587746,-0.30223772,5.1794796,-2.8903446,-46.538857,
31623720,-0.2946442,-2.2589965,25.13256,-0.6511723,-0.08610408,-0.042846065,5.3320026,-2.3639717,-45.99948,
31623740,0.33955872,-2.4305727,19.546005,-0.048632607,-0.3177989,0.14450714,5.792885,-2.7104344,-44.978043,15.0
31623760,1.2492416,-1.9981885,12.686255,-0.17726317,-0.5911721,0.06421292,4.7166176,-2.1556716,-46.24935,
31623780,1.6732413,-0.9390876,8.899602,-0.8570345,-0.62099946,-0.13938558,4.408186,-1.3542228,-46.57583,14.0
31623800,2.0262752,-1.4837595,8.124963,-1.676888,-0.16559938,-0.055895537,3.56145,-1.2138634,-46.21161,
31623820,1.8957216,-3.223476,13.065039,-1.9381438,1.0333548,-0.08013029,5.0956964,1.7588224,-46.130478,
31623840,-0.05240146,-3.0599842,16.564236,-1.1077709,1.199802,-0.3914535,5.4017563,2.942764,-46.13658,10.0
31623860,-1.6462076,-1.6888295,13.657449,0.13006535,0.22095814,-0.541922,6.173254,1.259233,-46.097893,
31623880,-2.367931,-0.08539892,8.352235,0.77415025,-0.75548905,-0.33126616,5.40536,0.8686142,-46.808907,7.0
31623900,-1.1243782,0.9710071,3.5657697,0.70610654,-0.87533116,0.13452032,5.8682737,0.78454113,-47.957153,
31623920,0.6578579,0.7584083,1.8634827,0.22926801,0.055709124,0.37260672,5.8671017,1.0172358,-47.186066,
31623940,0.7896093,0.53502995,4.2787237,0.009157937,0.8862152,0.31548196,5.866955,0.87445974,-46.874878,7.0
31623960,0.3730954,0.38321653,5.4734683,0.21262327,0.8883457,0.17340243,5.945099,0.3527465,-47.331184,
31623980,0.23206162,0.57725036,3.5133686,0.3678854,0.33480817,0.08338766,6.6354895,1.5459986,-47.095688,
31624000,0.73601043,0.30686066,2.7519057,0.31315753,-0.03696881,0.018939223,6.8661337,0.7549653,-45.997437,
31624020,0.93782943,-0.38303718,3.6606903,0.41875178,-0.044825125,-0.10942504,8.563219,-1.6724505,-47.319992,
31624040,0.34045702,-0.36926314,3.398086,0.6264781,0.1944597,-0.26375508,6.4846296,-0.8839531,-46.76178,
31624060,-0.67941797,0.04036367,4.0795994,0.9178277,0.3400013,-0.21235612,6.9466963,-1.5356574,-46.433205,
31624080,-0.8716551,0.24218273,3.9774923,1.264571,0.2087076,0.013213429,7.870879,-2.188465,-46.634796,9.0
31624100,0.15570575,-0.05006565,1.8266522,1.336343,0.0060412064,0.10362767,7.948905,-2.9980474,-46.62348,
31624120,0.365909,-0.26655704,1.103517,0.98054504,-0.24323046,-0.013018684,7.0258245,-3.5901093,-45.86577,
31624140,-0.14522624,-0.39321798,3.3220296,0.73713243,-0.098754086,-0.07919818,8.411906,-4.4581847,-46.130768,13.0
31624160,-0.89980197,-0.34441006,6.726603,0.94805455,0.19592443,-0.018877631,7.5670433,-5.5005727,-45.984947,
31624180,-1.1135983,0.15564609,7.2715745,1.4169036,0.13959862,0.20815665,7.642803,-5.3392572,-45.13372,17.0
31624200,0.058389433,0.22691157,5.102469,1.2303494,-0.21127255,0.30096772,8.722513,-6.663494,-46.020126,
31624220,0.928547,-1.2142682,6.4807673,0.4333991,-0.1883694,0.16421452,7.1843624,-7.3409176,-45.431473,
31624240,0.7551743,-2.5219002,11.909519,-0.07979157,0.15544441,-0.05642817,7.8763084,-7.03675,-45.49518,22.0
31624260,-0.92764944,-1.9463863,18.16591,0.31089383,0.19086443,-0.30569983,6.6451073,-7.5551453,-44.43644,
31624280,-2.538609,-0.39082244,16.289652,1.0653667,-0.4570821,-0.15296768,6.3396225,-7.661313,-46.29998,23.0
31624300,-0.5219153,-0.018026121,9.754788,0.48240128,-0.45907944,0.21002086,6.7994604,-7.9938784,-44.350136,
31624320,1.0285583,-0.39741004,13.565394,-0.83293283,0.2675634,0.17446768,6.4163218,-9.249219,-44.112984,
31624340,0.113784865,0.29488328,20.113136,-1.2561088,0.33360973,-0.075736076,5.7225075,-7.936516,-44.377586,26.0
31624360,-1.0833554,0.47604132,20.589836,-1.3053772,0.0044433153,-0.11395241,7.02783,-5.9324403,-44.75524,
31624380,-1.2543328,-0.67708206,22.506218,-1.5080435,0.14652283,0.08565135,6.8716497,-5.469386,-43.216843,23.0
31624400,-0.36800578,-1.1313248,26.655787,-1.0579698,0.31456816,0.41934514,7.4097004,-3.9365816,-44.768852,
31624420,1.9213445,-1.8315318,23.769106,-0.16274896,-0.18703781,0.47607043,7.0246487,-3.7915354,-44.547966,
31624440,4.1789117,-2.1281435,16.745693,0.10276797,-0.765609,-0.0124860555,6.797139,-5.357888,-45.54146,18.0
31624460,2.9964437,-1.5765843,10.348268,-0.31481534,-0.6224642,-0.5915899,5.641369,-3.9738526,-45.508842,
31624480,-0.61503947,-1.2400197,6.277152,-1.4027157,0.1200244,-0.6646936,5.8708506,-3.6639514,-44.732903,
31624500,-2.94584,-1.0519745,8.6022625,-2.5855577,0.50485086,-0.16322082,7.6385775,-1.809547,-45.716377,
31624520,-0.0682715,-3.2261705,14.430761,-2.6128552,0.7148409,0.28325772,7.0211143,-0.70520926,-45.20285,
31624540,2.3355913,-3.9786508,17.137054,-1.3622358,0.7827515,-0.060955547,8.403341,1.37258,-45.656822,12.0
31624560,1.5178347,-2.3275669,12.464972,-0.20109847,0.03919754,-0.69864887,7.631716,1.900001,-44.134483,
31624580,-0.5515593,-0.026410297,6.147795,-0.10882,-0.8219348,-1.0512512,7.015785,2.6944635,-44.6233,7.0
31624600,-2.5972981,1.5351423,3.3642502,-0.41122168,-0.7612148,-0.7517789,7.40256,2.1646802,-45.923042,
31624620,-3.2874954,2.030707,3.6034985,-0.54384696,0.16476548,-0.05296606,6.9402456,2.7473125,-45.941277,
31624640,-1.5199314,1.2632554,5.6198926,-0.31934267,0.7836836,0.5326626,7.477216,3.570866,-45.627937,
31624660,-0.012576632,0.5149678,6.6074286,0.1966443,0.6798205,0.5795342,6.709881,2.5215392,-46.021782,
31624680,0.59228164,0.3445894,4.724582,0.52075076,-0.07065776,0.34211355,7.633172,2.4595256,-46.15287,7.0
31624700,0.70037764,0.6003068,2.7111826,0.5182207,-0.82419854,0.10136398,7.9424458,1.7915888,-46.756493,
31624720,0.30123106,0.39968544,2.0134995,0.4745449,-1.0006328,0.03012449,7.0184135,1.6463866,-45.694443,
31624740,-0.32309052,-0.25727454,2.9141994,0.5152913,-0.5106116,0.04383976,7.175251,0.4509182,-46.914818,
31624760,-0.95579624,-0.45250604,4.3502884,0.77135396,-0.07358724,0.11388082,6.7899704,0.8884673,-46.85208,
31624780,-0.5605424,-0.58365846,3.9837801,1.0626591,-0.16577691,0.22391367,6.329277,-0.21483946,-46.231705,7.0
31624800,0.22846839,-0.79895204,2.270115,1.2555162,-0.389571,0.24970195,5.7907877,0.5738416,-47.182823,
31624820,0.7545754,-1.0471836,0.93224025,1.2493911,-0.39156842,0.19124559,6.639925,-1.2628798,-47.60473,
31624840,0.2449373,-0.6698957,1.2753925,1.1380708,-0.090631455,0.13798241,5.100933,-2.0738134,-46.085968,9.0
31624860,-0.20032227,-0.31656265,3.048945,0.97681665,0.06995702,0.1889819,6.6407576,-3.3725166,-45.7231,
31624880,-0.2066104,-0.25847226,5.485446,0.9688271,-0.16653147,0.33012933,4.9509096,-4.804374,-46.13546,13.0
31624900,0.51203316,-0.39291853,6.215468,0.96589774,-0.34429732,0.40536356,5.7968664,-4.5001907,-46.350098,
31624920,1.0061007,-0.707924,7.7617493,0.42114863,-0.3352426,0.30110088,4.0265894,-4.801009,-44.997765,
31624940,1.8801509,-1.6212001,12.637747,-0.093506835,-0.15361516,0.23052718,4.720745,-5.1775565,-46.21425,16.0
31624960,2.0322638,-2.2033014,16.40134,0.022074258,0.14532441,0.10455978,4.4892416,-4.881608,-45.91391,
31624980,1.0312531,-2.1970134,17.862885,0.25510064,0.056508083,0.0030934257,4.796339,-4.579804,-45.755005,17.0
31625000,1.8822469,-2.8054652,16.16359,-0.18831529,-0.46200895,0.085651346,3.9500923,-4.735421,-45.464714,
31625020,2.506868,-3.4950633,18.555178,-1.0262783,-0.12285567,0.094839245,3.3352928,-5.330921,-45.240967,
31625040,2.537111,-3.910978,23.308706,-1.1511804,0.12428546,0.10362767,4.1797256,-3.8486228,-45.546654,
31625060,1.9427326,-3.445357,23.82553,-0.7266729,0.030941743,0.002161319,4.0247507,-3.3292346,-45.169617,
31625080,1.1848632,-2.8815215,20.806328,-0.8206824,-0.054545652,0.015210798,3.6386786,-1.9404764,-45.582214,15.0
31625100,1.722648,-3.7531757,21.469275,-0.986464,0.25731027,0.11441346,3.7138548,-0.97535896,-45.204605,
31625120,1.798405,-3.8774416,19.451385,-0.686326,0.18793495,-0.00289868,4.944721,-0.524879,-45.87565,
31625140,2.4646475,-2.7722275,15.324872,-0.5861912,0.07315281,-0.067347124,2.5603113,-1.2853703,-45.074936,12.0
31625160,3.1515512,-2.7075498,10.988759,-0.7763407,0.2388013,-0.27533984,4.249648,1.0216756,-45.291794,
31625180,1.783733,-2.7452788,9.394867,-1.3844731,0.62775564,-0.5797388,4.557105,1.2463007,-45.36413,9.0
31625200,-0.46023166,-2.607838,12.260457,-1.6328126,0.66943413,-0.82208633,6.6337824,1.8581891,-45.938606,
31625220,-2.3972754,-1.6373695,12.98539,-1.182206,0.12361969,-0.7949221,5.8597126,4.299612,-44.59326,
31625240,-2.6667666,-0.58276016,10.774663,-0.5009701,-0.47359368,-0.40756565,5.3244953,3.3803492,-46.37571,7.0
31625260,-1.322604,-0.40789023,7.3128967,-0.031455237,-0.52645737,0.11641084,5.016119,3.8916123,-46.389305,
31625280,0.6961856,-0.7405623,4.7605143,0.07773428,0.04585543,0.39550987,5.8608255,3.9229825,-45.130547,6.0
31625300,1.2333717,-0.7666132,5.878005,0.20822906,0.5477277,0.3381188,5.1674137,4.9408655,-45.391724,
31625320,0.48987493,-0.2563762,5.9855022,0.64338917,0.38420975,0.27007508,4.7849293,3.8939006,-46.00817,
31625340,-0.103604816,0.19187768,4.526655,0.9876025,-0.022454586,0.29843774,4.941169,2.1998732,-46.06205,
31625360,0.37788635,-0.084500656,3.3762271,1.117964,-0.33257943,0.34544247,5.713934,1.1507287,-47.96524,
31625380,1.0444282,-0.8226074,2.6938152,1.1531178,-0.3095431,0.25382984,6.3289347,0.22391272,-46.468956,
31625400,0.38447395,-0.6872629,2.6908212,1.0456593,-0.099286705,0.06700924,5.252658,-0.08956385,-46.64685,
31625420,-0.40004528,-0.33542705,3.8753853,1.1706946,0.08420491,0.04743502,5.4844055,-0.7505598,-46.710815,
31625440,-0.6392937,-0.13181135,3.3205323,1.3833479,-0.04122986,0.16847558,5.8712444,-2.0771956,-47.07274,8.0
31625460,-0.14402851,-0.3006926,1.7844318,1.338873,-0.18836936,0.26008826,6.0254555,-2.2245874,-47.221962,
31625480,0.49227047,-0.92201984,1.8583922,1.0954604,-0.13710357,0.2038956,6.5671816,-4.0694523,-47.88356,12.0
31625500,0.64049065,-0.8672232,3.957131,1.0431293,0.10537703,0.018007115,5.567811,-5.684122,-46.419456,
31625520,-0.6168361,-0.10396392,4.7281747,1.3186331,0.09259388,-0.0068934197,4.798314,-5.4021354,-46.51924,
31625540,-0.5668732,0.83600473,3.2135062,1.3129072,-0.25627995,0.17433453,5.3386497,-7.228471,-45.942986,17.0
31625560,0.35992026,0.9572331,2.7689738,0.7777456,-0.4074142,0.29470932,5.8773775,-7.441412,-45.927124,
31625580,1.0096939,0.060126394,5.7800894,-0.03944471,-0.07917986,0.14450714,4.799509,-7.588951,-44.868866,
31625600,1.18127,-1.3478161,11.392696,-0.5498391,0.27568606,-0.0026323656,5.1850147,-7.378214,-45.94507,23.0
31625620,0.8150613,-1.389737,18.464148,-0.12573107,0.24266288,-0.060955543,4.3384495,-7.6742907,-45.18888,
31625640,1.2854732,-1.7885841,19.710695,0.95830774,-0.29036838,-0.021141319,4.722907,-6.508871,-46.5083,
31625660,2.5544782,-1.725104,14.837395,1.32356,-0.40807998,-0.12340662,4.799509,-7.588951,-44.868866,
31625680,2.6476023,-0.22613332,11.50648,0.41968387,-0.27958256,-0.506502,4.263748,-9.296959,-45.171944,
31625700,1.764569,0.99825555,14.316077,-0.95916665,-0.4419021,-0.80557466,4.2619343,-7.970277,-45.187355,26.0
31625720,0.994722,0.64851576,19.985577,-1.671029,-0.27984887,-0.83953,4.1841507,-7.5257416,-44.962288,
31625740,-1.1582143,0.040363673,23.685694,-1.5762205,0.3755545,-0.56189567,3.7213573,-5.7788925,-46.0,
31625760,-1.4693271,0.09216592,24.60765,-1.1415929,0.35877657,0.10389398,3.4109192,-4.0100207,-45.718674,
31625780,2.7715683,-1.6481493,21.024614,-0.7587639,0.06955755,0.28259194,4.0255775,-4.498084,-44.459618,
31625800,4.381629,-2.5449567,16.004591,-0.49870643,-0.0679946,-0.28346246,4.793829,-3.2438579,-45.151466,22.0
31625820,1.4998686,-1.708635,9.860488,-0.93333393,-0.40435153,-0.7756142,3.9474201,-2.5289173,-45.799866,
31625840,-1.5277168,0.12031274,7.446145,-1.900327,-0.22618622,-0.52248096,4.409395,-2.238677,-46.56556,19.0
31625860,0.050005257,-0.10635938,10.53212,-2.3223045,0.2963255,0.055424497,4.252404,-0.24519825,-46.205635,
31625880,2.754201,-1.4193811,13.672294,-1.7027205,0.5728946,0.012947109,4.2502575,1.0135694,-45.83336,
31625900,2.4784217,-1.4100984,12.597623,-0.7466909,0.42828503,-0.3761848,4.3260803,1.7529397,-45.76265,13.0
31625920,1.2920609,-0.31446663,7.415303,-0.22666478,-0.1847741,-0.67055255,4.4774094,3.0912213,-45.155327,
31625940,0.6174342,0.2796121,3.265736,-0.43851906,-0.87692904,-0.8489842,3.5555048,2.700584,-45.71541,9.0
31625960,-0.8396156,0.019403245,2.8249679,-0.854904,-0.7502959,-0.8055747,3.1712713,2.1834483,-45.409447,
31625980,-2.916795,-0.2716474,5.4453216,-1.0478498,0.107374385,-0.51169515,3.323762,3.7957013,-46.198143,
31626000,-3.8279753,-0.23002595,9.386782,-0.66941494,0.5494588,-0.08026345,4.090127,4.930314,-45.031487,8.0
31626020,-2.3769138,-0.38124055,9.145737,0.19158432,-0.171192,0.31707984,2.0916996,4.1571283,-45.459152,
31626040,-0.38148034,-0.80194646,5.7827845,0.9334072,-0.8134127,0.54384786,3.859702,4.560606,-44.878174,7.0
31626060,1.5022641,-1.0408955,1.7988046,1.1006535,-0.6078169,0.48951936,2.862771,3.3476288,-46.127037,
31626080,1.770857,-1.0148447,1.3047371,0.6335355,-0.14575884,0.12799558,2.402485,2.383624,-46.049942,
31626100,-0.2814691,-0.4731671,5.0509663,0.46868598,0.120024405,-0.122874,2.556839,1.9448895,-45.963646,8.0
31626120,-1.0172231,-0.023629831,6.1589174,0.88933194,0.053445436,0.08005871,3.0176878,2.6843057,-46.27027,
31626140,0.39525357,-0.5312574,4.886876,1.4018569,0.21989286,0.3007014,4.2496796,1.3107038,-45.682037,9.0
31626160,0.8180555,-0.6926527,3.3160408,1.6236979,0.53015083,0.20416191,3.2525883,0.027495861,-46.69796,
31626180,0.06737246,0.0044314973,2.1563296,1.3258237,0.5615761,0.032255016,2.7907372,-0.9156623,-45.228256,
31626200,-0.60006773,0.47514302,4.3826275,0.8070402,0.3546487,0.008153427,3.3333654,-2.4830818,-47.05378,13.0
31626220,-0.50724304,0.13708113,7.4075184,0.7898629,0.1165623,0.10855451,3.3328447,-2.4761329,-46.589592,
31626240,-0.39615262,-0.22912768,7.574602,0.96283513,0.15304758,0.3086909,4.6404133,-3.1794367,-45.62033,17.0
31626260,0.65875626,-1.4157877,9.950917,0.8204893,0.33986816,0.46834725,5.2577915,-4.282615,-46.056496,
31626280,1.934648,-2.5790923,12.592831,0.6480497,0.77689254,0.3403825,5.2585306,-5.4503055,-45.269127,
31626300,1.045626,-1.6331775,14.497236,0.7007803,0.8143099,-0.00942342,4.4115868,-4.6558704,-45.53154,21.0
31626320,-0.42220342,-0.6854663,12.955446,0.45137545,0.29965448,-0.034323957,6.4111023,-5.055008,-44.625977,
31626340,0.11827639,-1.2091777,15.272773,-0.253829,0.3206934,0.1630161,6.1046906,-5.293531,-45.48204,23.0
31626360,-0.31680238,-1.0058615,20.12691,-0.39737326,0.4649035,0.29577458,5.9511843,-5.6620717,-45.326836,
31626380,-0.03683085,-0.7405623,20.287405,-0.30402952,-0.12352147,0.47220886,5.7977743,-5.163531,-46.342384,
31626400,1.5474788,-1.5750871,18.35785,-0.5845933,-0.17718412,0.6523715,5.8727875,-4.268644,-45.731827,
31626420,2.4005687,-2.216776,19.988272,-0.91509134,0.2634355,0.6607605,5.410102,-4.4770722,-44.425423,
31626440,2.1565292,-1.0528729,20.410475,-0.8716818,0.22721654,0.58233047,7.1021805,-3.3643541,-45.63433,21.0
31626460,3.3018675,-1.3804545,17.185265,-0.85450447,-0.07585092,0.44837362,6.025441,-3.5269475,-45.581856,
31626480,3.4797316,-2.9656627,15.918054,-0.866755,-0.006076163,-0.06495028,5.7930117,-2.9292321,-44.820732,
31626500,0.19792598,-2.3970358,14.311885,-0.6362586,-0.26999518,-0.5463162,5.639679,-3.3000894,-44.82025,16.0
31626520,-2.0220835,-0.71600866,9.966786,-0.85144186,-0.7196695,-0.26735035,5.32948,-0.95547867,-45.474182,
31626540,0.47071117,-0.9603474,8.424099,-1.3426615,-0.019791432,0.44278097,5.637212,-0.80687475,-45.700394,14.0
31626560,3.0566301,-2.8336117,10.6486,-1.3265493,1.0586545,0.5427826,6.9428587,0.39687443,-45.372322,
31626580,2.2143202,-2.849482,11.702312,-0.90670234,1.0023289,0.013346583,7.55797,0.26459503,-44.968582,
31626600,0.11588089,-1.5714939,10.001521,-0.40509638,-0.04802092,-0.49997723,6.5575457,0.54539585,-44.919334,9.0
31626620,-1.907999,-0.035992235,6.3714733,-0.09523789,-0.9148791,-0.5215488,6.557625,1.0509048,-45.621628,
31626640,-2.8329532,1.0803009,3.7957354,-0.12479895,-0.9116833,-0.08851922,5.4792976,1.4883709,-44.879692,7.0
31626660,-1.7454059,0.80601853,3.557685,-0.14703631,-0.22645256,0.46927938,5.402837,2.2771068,-46.283607,
31626680,-0.6223115,0.23131752,3.9136698,0.0011684615,0.31004077,0.7465142,6.631942,3.329963,-46.110466,
31626700,0.06946851,0.063120715,4.117029,0.2021038,0.41816503,0.7664879,6.326335,1.1268978,-45.24135,7.0
31626720,0.5473665,0.30596235,3.53373,0.32447594,0.14825389,0.67487526,6.557624,1.0509048,-45.621635,
31626740,0.9833436,0.23709233,3.2121372,0.40010965,-0.060937237,0.5319968,6.9424562,0.69169235,-45.375748,
31626760,0.7662533,-0.005749289,3.7136903,0.52261496,-0.16213726,0.39031672,6.404361,0.3173151,-45.230026,
31626780,0.33536664,-0.29530275,4.2865095,0.8215545,-0.21420202,0.30309826,6.021899,-1.3088622,-45.143333,
31626800,0.54886365,-0.54862463,2.6617758,1.0613719,-0.3585452,0.27433616,7.2551603,-2.048078,-46.49698,
31626820,0.87884086,-0.675585,0.9549973,0.872554,-0.2383036,0.14916767,5.329957,-1.1789079,-45.62635,
31626840,0.3518355,-0.9055509,1.9991267,0.60357493,-0.016995119,0.13904768,6.101426,-2.7173471,-45.744095,8.0
31626860,-0.18984205,-0.94208187,5.0632434,0.7576387,0.3330771,0.22746454,5.1030493,-3.6216087,-46.068,
31626880,-0.104802534,-0.701037,7.2021055,1.4145067,0.23826864,0.35729355,6.9484854,-3.6580334,-45.40261,
31626900,0.25631583,-0.2578734,5.6552253,1.8374164,-0.34323207,0.4236062,6.4107914,-4.3272285,-45.25347,11.0
31626920,0.59916866,0.39579278,3.3115492,1.0541813,-0.99637175,0.32919723,4.8756456,-6.2024527,-45.889,
31626940,1.9562073,-0.8205114,5.5638976,-0.35569483,-0.6202005,0.13119136,4.9529057,-6.6400385,-45.649864,16.0
31626960,2.8533142,-3.1528094,14.459508,-0.8375933,0.67768985,-0.11408556,4.7200594,-5.674958,-44.970383,
31626980,0.9309425,-3.0542953,24.165087,0.5817371,0.9273609,-0.3776051,4.259207,-5.4735875,-45.83539,
31627000,-1.3669204,-1.4463303,21.696247,2.3407533,-0.3348431,-0.21342139,6.1063643,-5.8947487,-46.248863,
31627020,0.49376762,-0.07701476,10.003617,1.7772288,-0.9749333,-0.055362914,4.5696297,-8.544822,-44.47661,
31627040,1.3549421,1.0195155,7.041908,-0.22151601,-0.4874865,-0.26521984,3.5698843,-8.634859,-44.57782,23.0
31627060,1.1905526,0.14965737,14.611621,-1.8241606,0.08979756,-0.3375246,4.1843843,-7.384124,-45.35083,
31627080,0.07336113,-1.7939738,23.802773,-2.2256317,0.89194095,-0.3962472,4.259,-5.7602987,-45.290405,
31627100,-2.0481346,-1.5083132,25.83773,-1.338134,0.7338824,-0.34777775,5.5652657,-5.0713234,-44.878975,
31627120,-0.70187557,-1.920635,21.183615,-0.7980455,0.14172916,0.06181607,5.0276814,-4.945983,-45.822388,
31627140,3.2117374,-2.82403,18.244661,-0.87221444,0.14226179,0.21241772,6.0991507,-2.6146884,-43.81079,16.0
31627160,4.4460077,-3.6372948,14.680491,-0.9892602,0.3384034,-0.19477928,5.4104404,-3.975039,-45.35981,
31627180,1.7346253,-3.7139502,13.439033,-1.3917967,0.57036453,-0.79398996,6.102167,-2.510131,-46.675064,
31627200,-1.74331,-2.9198492,14.940699,-1.704052,0.41124082,-0.9738864,7.176182,-0.7916355,-46.203964,13.0
31627220,-2.244863,-2.05568,15.056879,-1.4292141,-0.055477753,-0.7455205,6.1730747,-0.5474777,-43.67814,
31627240,-0.54531395,-1.7524809,12.503514,-0.8603635,-0.530319,-0.56628984,7.0190144,0.7700391,-45.14261,8.0
31627260,-0.0673732,-1.2073812,9.121484,-0.32227215,-0.59463423,-0.6031746,6.400817,2.5353997,-44.79151,
31627280,-1.4501631,-0.29350618,6.6682134,-0.08818051,-0.30861098,-0.5436531,5.8630733,2.5905101,-45.501976,
31627300,-2.758394,0.5182617,6.1232414,0.04324637,-0.06826092,-0.1421819,5.938566,3.6960876,-45.59027,7.0
31627320,-2.1499424,0.5266458,5.5333557,0.12753534,-0.012201428,0.39178145,5.6319857,2.5190945,-45.11998,
31627340,-0.22158206,0.505386,4.759616,0.124206394,-0.14376147,0.6447816,5.9407377,1.8581066,-45.259415,
31627360,2.2092297,-0.2593706,3.8101084,0.13965271,-0.24030098,0.500172,4.9412327,1.4030209,-45.124237,
31627380,2.5404046,-0.5785681,3.320832,0.089851655,-0.15361515,0.106690295,5.7866135,2.0043392,-45.18756,
31627400,0.80607814,-0.6675002,4.1071477,-0.0028262765,-0.028713012,-0.20290193,5.4799433,2.2034116,-46.358215,7.0
31627420,-0.73810714,-0.5096981,5.736971,0.18173063,-0.1066104,-0.23952033,5.7869253,2.6514664,-46.27839,
31627440,-0.7899094,-0.521376,4.7811747,0.56575817,-0.33138102,-0.105430305,5.4813023,0.5209465,-45.487495,
31627460,-0.12666129,-0.51808226,3.3525722,0.8441914,-0.25241834,0.020670274,5.8654623,0.96669436,-45.63787,
31627480,0.16558708,-0.32973778,2.3566518,0.9238198,0.056774385,0.061949234,4.867053,-0.22659445,-45.571503,
31627500,-0.023056848,-0.1725345,2.0946462,0.832074,0.24186394,0.03518449,4.7937593,-1.5062189,-47.26091,7.0
31627520,-0.46142942,0.03736932,2.2973635,0.7120987,0.18247548,0.017208166,5.7907286,-0.9450002,-45.230682,
31627540,-0.9069885,0.06581563,3.0525384,0.6139613,-0.04815407,0.12985978,5.638133,-1.5427613,-45.614464,9.0
31627560,-0.5404802,0.061623536,4.041272,0.49158913,-0.17745042,0.35769302,5.486705,-2.8073387,-46.22265,
31627580,1.0234678,0.14546528,6.8856034,0.49052387,0.1105702,0.40070304,5.103286,-3.0458703,-47.003242,
31627600,2.7748623,0.7841598,7.773727,0.47987127,-0.10674356,0.17500032,5.4087,-2.5769696,-45.530815,11.0
31627620,3.5944152,-0.32105413,8.6615505,0.04830637,-0.7953033,-0.21075821,3.7174244,-3.3385372,-45.48668,
31627640,3.7552116,-4.1163907,14.309491,-0.408958,-0.7984991,-0.60184306,3.5621061,-2.3803964,-45.34687,13.0
31627660,1.3285921,-3.855583,20.305374,0.35283858,-0.117263034,-0.8358015,3.946641,-2.084374,-45.65027,
31627680,-0.600966,-2.9677587,18.577633,1.7347516,-0.21446833,-0.49318618,4.7180233,-3.6216545,-45.690666,
31627700,0.5018524,-3.2947416,10.436601,1.7339526,-0.4010226,-0.1120882,2.9515,-5.419727,-45.868538,15.0
31627720,1.1752814,-2.3970356,9.97008,0.29624647,0.34053397,-0.13565715,3.7982159,-5.9216604,-45.76429,
31627740,0.06258151,-2.0077703,17.867973,-0.7059002,0.451854,-0.283063,3.719842,-5.107445,-45.466133,19.0
31627760,0.15241197,-2.2413297,20.639841,-0.80683386,-0.1695941,-0.21595138,3.4859934,-2.9711995,-45.341927,
31627780,0.7878127,-2.92464,20.514679,-0.64145184,0.17781495,-0.06974397,4.6419706,-4.068523,-45.919525,
31627800,0.697255,-2.4132905,22.11178,-0.34650692,0.6236277,-0.0059613143,3.6398115,-3.3304386,-44.869644,18.0
31627820,1.2145072,-1.3376353,19.424135,-0.1481016,0.15864022,0.06115029,4.947386,-2.2247157,-46.16543,
31627840,2.9185908,-2.0386121,14.544248,-0.54571116,0.15025125,-0.09850608,4.792941,-2.2189426,-45.627655,16.0
31627860,2.049032,-2.747075,12.9569435,-1.1760808,0.3919329,-0.4826667,5.0242023,-2.1498432,-46.164375,
31627880,0.1760673,-2.5362728,13.174632,-1.5806147,0.47502348,-0.6649599,5.4845486,-1.0419049,-46.47529,
31627900,0.044315957,-0.84865826,14.263377,-1.4549136,0.33574027,-0.44658095,5.560601,-0.5950351,-46.24642,14.0
31627920,2.0050151,-1.334641,11.996955,-0.90284085,0.37821764,-0.1867898,5.172368,1.6909175,-45.81826,
31627940,2.7730653,-2.340742,8.180659,-0.71056074,0.91191465,-0.3814667,5.0951424,1.4767437,-45.276024,9.0
31627960,0.36920273,-1.879313,8.349839,-0.8679534,0.87622833,-0.8657621,6.941848,2.0747066,-46.552513,
31627980,-2.7344391,-0.55730826,9.637109,-0.6696812,-0.20195147,-1.0424628,7.0171814,3.1100538,-46.40786,
31628000,-4.5915337,0.77008635,8.647778,-0.18565212,-1.5829325,-0.61675674,6.3254595,3.454173,-47.357635,7.0
31628020,-3.5548906,1.646532,5.5061073,0.21768326,-1.8645616,0.18059295,4.401043,3.3721325,-46.01168,
31628040,-0.070667,0.41345942,2.15094,0.32474226,-0.5703995,0.6664863,4.554326,3.0923889,-45.15342,
31628060,1.8576932,-0.18451189,1.7874261,0.10955901,0.61284196,0.60110575,4.787071,2.2010126,-45.833748,
31628080,1.7888231,-0.3824383,3.9005375,0.0040979357,0.61963296,0.2703414,5.017065,3.0106316,-46.146935,
31628100,1.1270722,-0.24260226,5.286022,0.22900169,-0.14669095,-0.0010344712,6.4034357,1.993989,-46.487587,7.0
31628120,0.28296557,-0.24829149,4.8129153,0.60983336,-0.7646769,-0.07720081,5.710926,1.914412,-46.19436,
31628140,0.12246848,-0.6094099,3.343888,0.8047766,-0.74736637,-0.066281855,4.7126036,2.0948715,-47.9237,
31628160,-0.44885314,-0.55042124,3.0076232,0.7885313,-0.2687524,-0.08181696,4.482622,1.2127051,-47.532295,
31628180,-0.7677513,-0.5501217,3.347781,0.82781297,0.08420493,-0.05256659,4.096632,1.7320662,-46.92884,
31628200,-0.9468133,-0.6022235,3.3187358,0.93047774,0.020422261,0.011748692,3.6396694,-1.6641884,-46.823494,8.0
31628220,-1.1402481,-0.66510475,2.5932055,0.9742867,-0.2265857,0.10455978,4.2536163,-0.6955323,-46.742058,
31628240,-1.0564063,-0.72618943,3.515764,1.0168972,-0.13137779,0.19550665,4.4853773,-1.4290762,-46.7278,11.0
31628260,-0.46442378,-0.69654536,4.650023,1.2086446,-0.11007251,0.32094142,2.409768,-2.6340752,-46.378563,
31628280,-0.22337876,-0.0036532506,4.1170287,1.265503,-0.41460472,0.421742,3.335187,-4.31643,-46.413452,
31628300,-0.39914697,0.25505844,4.501204,0.85071605,-0.48744214,0.5141536,1.9518127,-5.3658304,-46.203552,15.0
31628320,1.1552191,-0.60521775,6.9149475,0.22620536,0.015894894,0.5933826,2.6420288,-4.170261,-45.81333,
31628340,3.483025,-2.3263693,12.728474,0.06535059,0.7180368,0.5216105,1.875246,-4.93751,-47.06163,17.0
31628360,2.7262254,-1.768907,18.12057,0.6930571,0.5274877,0.0048244745,3.0284681,-4.7679586,-46.72538,
31628380,2.2628286,-1.6583301,13.34052,1.2937325,-0.49902683,-0.20157035,3.2593775,-6.503254,-44.687607,
31628400,3.0760934,-1.844878,8.377388,0.23539329,-0.30434993,-0.17147663,2.6435843,-6.4342556,-44.394188,20.0
31628420,2.9054155,-2.071251,14.880512,-1.1723523,1.1458731,-0.11794715,3.028348,-6.4307346,-44.53942,
31628440,2.2870827,-1.890991,24.740602,-1.0190877,1.3755705,-0.07453765,3.7949095,-4.502744,-44.542686,
31628460,2.0077102,-2.118861,24.381279,-0.044105235,0.39499557,-0.074937135,3.9498043,-4.586854,-45.38906,
31628480,2.1202974,-2.057177,18.77676,-0.113081045,-0.082641974,-0.16694927,4.6429644,-4.7330227,-45.98918,
31628500,0.87854135,-1.3651834,19.222918,-0.90403926,0.19499233,-0.07307291,4.7192125,-4.8676825,-45.211906,
31628520,1.764569,-2.7132392,21.691755,-1.1176245,0.44572872,0.1915119,3.4882727,-4.0146446,-46.103615,
31628540,1.8229587,-3.8603735,20.823397,-0.6833965,0.29765707,0.06700924,4.407032,-2.1348605,-44.55488,17.0
31628560,0.28925368,-1.814036,16.204016,-0.53572434,-0.35468364,-0.01927711,5.8711433,-3.3783984,-45.355263,
31628580,2.586817,-1.1178502,12.7323675,-0.9770098,-0.39130208,0.27007508,5.023164,-1.7018251,-45.782692,
31628600,5.258674,-2.2329457,13.16056,-1.2481192,0.43241292,0.17806295,4.560402,-1.0408554,-45.492325,15.0
31628620,5.1841145,-2.9596736,13.5516205,-1.224284,0.54120296,-0.4594972,4.9446163,-0.88529444,-45.329796,
31628640,2.6308336,-2.5090246,12.650921,-0.99378765,-0.22418886,-1.2250223,6.326412,1.632406,-45.94365,11.0
31628660,-0.8045817,-1.4065052,10.168906,-0.5917839,-0.9140802,-1.5607135,4.325308,2.631604,-46.15975,
31628680,-3.9944608,-0.035992205,7.0931115,-0.21188423,-0.99890184,-1.2798835,3.864622,2.3965373,-46.632782,
31628700,-5.256578,1.9247069,4.090379,-0.0644784,-0.7400427,-0.43978986,3.1723566,1.9519114,-46.10318,9.0
31628720,-2.4984844,1.7627127,2.1224935,-0.24384215,-0.25841045,0.48152992,3.018694,1.9472609,-46.261703,
31628740,0.44196543,0.36914307,2.4653468,-0.6269375,0.1519823,0.8007095,2.6320581,3.1264873,-45.89808,
31628760,1.5995804,-0.96184456,4.8251925,-0.8919219,0.18234232,0.68273157,3.1702967,3.2095213,-45.808266,
31628780,1.6711452,-0.7405623,7.1682696,-0.57447326,-0.041629337,0.37713408,3.7836132,4.7654967,-45.888405,
31628800,1.4118348,-0.6276754,6.6176085,0.15416694,-0.13151094,0.11228293,3.8611355,4.3244367,-45.88137,7.0
31628820,0.32548526,-0.10845544,4.482639,0.59598494,-0.090631455,-0.072806604,3.4011974,3.3558,-46.11374,
31628840,-0.5054463,0.26044825,3.1489565,0.72341716,-0.12578514,-0.13898611,3.7866116,3.1335738,-46.56588,
31628860,-0.8527907,0.6533067,2.5893126,0.6625639,-0.30221942,-0.13871978,2.7107334,2.0911589,-46.19365,
31628880,-1.4247112,0.8371597,3.27951,0.74911666,-0.35028943,0.03438554,3.2498655,1.5833983,-46.174362,
31628900,-0.99951375,0.5356289,3.4501877,1.0182288,-0.28211254,0.2808609,3.5578995,1.5108881,-46.398003,7.0
31628920,-0.10570085,-0.12582266,3.4477923,1.3894731,0.0017801505,0.3995046,2.405223,0.7551756,-46.495316,
31628940,0.33280006,-0.22861435,2.1981652,1.465373,0.043724902,0.30150038,2.4078722,-0.87211466,-46.86331,10.0
31628960,0.30422541,-0.33213326,2.2036407,1.2127726,-0.036169857,0.12107135,4.101695,-2.0982533,-46.72959,
31628980,-0.2694917,0.15564609,5.261768,1.2145035,-0.14828883,0.03065712,3.41016,-3.2039042,-46.03756,
31629000,-1.1962423,1.1752216,5.405796,1.1729583,-0.30967626,0.11454662,2.0260162,-4.3154273,-45.053154,14.0
31629020,-0.6093502,0.83356655,7.587778,0.6468513,-0.20368254,0.38831934,2.103139,-4.0275497,-45.596237,
31629040,2.2134218,-1.674799,14.328954,0.65284336,0.29432815,0.4996394,1.7202196,-5.0687227,-45.825844,18.0
31629060,3.4488897,-2.1104765,16.924454,1.517571,0.82948995,0.15422767,2.566309,-5.924123,-44.711548,
31629080,1.204027,-0.54233646,14.618806,1.7315558,0.6598467,-0.14923926,3.2595549,-6.0714493,-45.389038,
31629100,0.6683382,-0.5034099,11.759503,0.85910493,0.30910867,-0.040316064,3.5682125,-7.5995207,-44.357697,23.0
31629120,1.1803716,-0.5561105,13.880699,-0.18298897,0.99527156,0.15183084,4.4167824,-8.270866,-45.721703,
31629140,1.1492305,0.023894755,18.35755,-0.5068291,1.0898137,0.38232723,4.2615232,-7.168792,-45.815704,26.0
31629160,2.6263428,0.02090041,18.968098,-0.51508486,0.5052503,0.45409936,5.341346,-8.639279,-46.623016,
31629180,3.5219517,-0.55760765,17.612257,-0.79671395,0.22375445,0.20735769,4.799074,-7.5831594,-44.482033,
31629200,2.612269,-1.2663698,17.24455,-1.2626336,0.3108397,-0.1357903,5.799206,-6.7746067,-45.62726,23.0
31629220,1.0698801,-1.6712056,20.466171,-1.4257519,0.05264649,-0.2713451,4.2592335,-5.6186814,-45.67894,
31629240,0.14612383,-2.0523863,21.804344,-0.84438443,-0.39835948,-0.17360717,6.1809435,-4.994071,-45.251465,19.0
31629260,0.32428753,-3.416312,17.128672,-0.44970435,-0.5766579,0.039046068,4.5651712,-3.7818208,-46.389046,
31629280,1.7888232,-4.5445824,13.190803,-0.88579655,-0.10953989,0.15262978,6.025635,-4.542598,-44.48674,
31629300,3.2042518,-4.838328,14.296015,-1.2331613,0.21310182,-0.09673065,6.0245037,-3.1526341,-45.199295,16.0
31629320,2.2295914,-4.543384,13.094384,-1.1382641,-0.009271953,-0.54897934,4.870325,-1.9345388,-46.402847,
31629340,-0.6416891,-2.7605495,10.282091,-1.0282755,-0.3408352,-0.8897306,4.6383724,-1.5602527,-45.79389,
31629360,-2.5266314,-0.6911556,7.744382,-1.0593014,-0.6452342,-0.6898604,5.4832535,-0.15629196,-46.408203,13.0
31629380,-1.9966317,0.52065706,6.3918347,-1.0056387,-0.5055516,-0.12007767,4.4034758,1.5306773,-45.91291,
31629400,-0.2688928,0.5305385,5.3216553,-0.7831318,-0.003945634,0.36261988,4.0205154,0.7071419,-46.37719,10.0
31629420,0.7824228,0.62785476,4.3970003,-0.68099964,0.31643236,0.4901852,3.7112818,1.1574397,-45.538902,
31629440,1.4393828,0.9230975,3.8960466,-0.710827,0.03626807,0.32440355,4.554303,3.6716018,-45.856567,
31629460,1.1992362,1.1108431,3.7181823,-0.6671513,-0.43577683,0.14930084,5.325983,2.8539944,-47.066025,7.0
31629480,0.9725639,0.7281654,2.6983073,-0.540518,-0.54549897,0.11734295,5.324629,3.5956724,-46.76512,
31629500,0.69246405,0.12762754,2.6495419,-0.5799328,-0.14762305,0.09550503,5.4023666,2.9346566,-46.678146,7.0
31629520,0.5087394,-0.44951168,4.9782033,-0.4825943,0.30604604,0.088580824,3.938982,4.4579573,-46.886955,
31629540,0.51293147,-1.056466,7.2212696,0.08638954,0.2723571,0.023067115,4.2470665,3.6611419,-46.251,
31629560,0.29943445,-0.9226186,5.3698635,0.6961197,-0.055477757,-0.07001029,3.7841206,4.831094,-46.430832,6.0
31629580,0.078451574,-0.491732,3.3953912,0.892794,-0.298491,-0.14111662,3.5550337,3.3581345,-46.10994,
31629600,-0.38597184,-0.36896372,2.9447417,0.8954572,-0.2819794,-0.14364663,4.7103424,2.1249828,-45.912163,7.0
31629620,-0.97825396,-0.3042858,3.5738542,0.9806782,-0.16586567,-0.042313427,3.1724024,2.1683927,-46.415215,
31629640,-0.95819175,-0.50580543,4.0655265,1.1874725,-0.049485654,0.10309504,3.480936,1.2932401,-46.087875,
31629660,-0.7929037,-0.61659634,4.4568872,1.4248931,-0.11380093,0.2184098,3.252533,0.31768084,-47.01084,7.0
31629680,0.04611259,-0.6279748,2.9755836,1.4364778,-0.27691942,0.2840567,3.254612,-1.9532614,-46.0559,
31629700,0.2931463,-0.10516164,4.2871075,1.0328761,-0.1325762,0.20802349,2.794098,-2.624764,-46.13697,12.0
31629720,0.05958715,-0.17942148,6.975434,0.7190229,-0.17651832,0.23225823,3.1830273,-4.919983,-47.184067,
31629740,1.0857503,-2.1290417,8.099812,0.28266436,-0.14442727,0.39178148,2.7178707,-3.0693164,-46.211105,
31629760,1.7031848,-2.5811882,14.454118,0.15030536,0.6810188,0.29337773,1.5640688,-3.375853,-45.849342,15.0
31629780,1.1126994,-1.5089121,18.567156,0.9360703,0.48767346,0.115878195,2.9488306,-4.1540112,-45.03205,
31629800,1.6968967,-1.2124715,14.802662,1.4234284,-0.4142052,0.12985979,2.1800575,-4.0263824,-45.594337,18.0
31629820,3.2845001,-1.7310927,10.546793,0.73500186,-0.2773189,0.15156452,1.7974167,-6.084364,-44.8062,
31629840,2.9694943,-1.8107424,13.941485,-0.64438117,0.6245599,-0.025801849,2.7187805,-4.6734443,-45.03177,
31629860,1.829846,-2.0622673,20.895859,-1.1414597,0.5422683,-0.17653663,2.4884481,-4.610191,-45.502525,22.0
31629880,0.8647674,-2.6317928,22.848475,-0.8644913,0.0561086,-0.20250243,3.0263433,-4.0884037,-45.649956,
31629900,0.008383809,-2.213183,21.687567,-0.5325285,-0.045224596,0.06381344,2.7941933,-3.1325889,-45.589417,20.0
31629920,1.3300891,-1.5349629,20.242493,-0.570878,-0.0016819509,0.4084262,3.023922,-2.7536159,-45.123795,
31629940,3.5629747,-2.1044881,19.106436,-0.74411654,-0.1794478,0.37686774,2.7928104,-2.2458177,-45.444946,
31629960,4.2894034,-3.5241084,17.91169,-0.83706075,-0.28464258,-0.08439134,2.2533045,-1.5883322,-45.31122,17.0
31629980,1.2767897,-2.9803348,16.46063,-0.81149447,-0.47625685,-0.521682,1.4068499,-1.0898738,-45.647568,
31630000,-0.4934689,-0.9555565,14.000773,-0.8855303,-0.57079893,-0.31488773,1.5607309,-0.8710575,-45.95581,15.0
31630020,0.8581798,0.29278722,12.050554,-1.0433223,-0.41460472,0.1678098,1.7126303,1.1108756,-46.671425,
31630040,3.7695844,-0.80943227,11.354069,-1.1160266,-0.081177235,0.3206751,2.0949678,2.0150642,-45.743797,
31630060,4.64603,-1.623125,11.047063,-0.9964508,0.07608229,-0.053498697,2.1716528,1.8746133,-45.353348,11.0
31630080,3.1650252,-1.7757084,11.017206,-0.6564986,0.06582912,-0.55017775,2.0182648,1.7939415,-45.665764,
31630100,0.7126544,-1.1867203,10.002121,-0.15382738,-0.3051489,-0.7789431,2.1711407,2.7498026,-45.98255,8.0
31630120,-1.4040504,-0.5213761,8.056394,0.33619383,-0.5423032,-0.66322887,0.7870827,3.0120282,-46.793846,
31630140,-2.6395183,0.071804315,5.3282433,0.6504466,-0.6304537,-0.24697718,1.2479954,2.9545925,-46.16266,
31630160,-1.8900329,0.72038007,1.4008558,0.29651275,-0.38983732,0.19484085,0.32661915,1.6162195,-46.015312,
31630180,0.042818837,0.41166285,1.4808048,-0.2519648,0.34812397,0.37060934,-0.05821991,1.5413113,-45.714485,
31630200,1.0510157,-0.23541579,4.666492,-0.35556164,0.8448031,0.2618193,1.6337538,2.293614,-46.377556,
31630220,0.7039709,-0.551619,6.5855694,0.13086429,0.6629093,0.08844766,2.633463,3.035411,-47.05771,
31630240,0.26230454,-0.4528055,5.6411514,0.709835,0.13959862,-0.021141319,2.6336966,1.8021221,-45.72793,
31630260,-0.08084777,-0.37195808,3.8077126,1.080813,-0.24043414,-0.07853239,1.4830389,0.006438732,-46.35482,7.0
31630280,-0.2853617,-0.0036532488,1.8565956,1.1117058,-0.4213958,-0.023538165,1.9454393,-0.57735157,-46.413933,
31630300,-0.007785674,0.12001333,0.8448053,0.8274135,-0.26107362,0.1032282,2.0231094,-0.87563515,-46.71808,8.0
31630320,0.65276754,-0.6992403,2.0539231,0.5994471,0.099118605,0.15382819,0.94846725,-1.5726905,-47.89747,
31630340,0.7258296,-1.130726,4.1442776,0.78187346,0.54786086,0.08152345,1.6403322,-2.2081532,-46.712166,
31630360,0.05150242,-1.1729462,5.1330113,1.2009214,0.5922025,0.04423923,2.4091454,-2.5534225,-45.915222,11.0
31630380,-0.39076284,-1.1804321,4.014922,1.3688335,0.17768179,0.120671876,3.6412525,-2.6983676,-46.966248,
31630400,-0.09312459,-1.1624659,3.108233,1.1200945,-0.16400146,0.13984662,1.7195339,-4.1912184,-46.300323,14.0
31630420,-0.036830846,-0.06473795,4.4697633,0.8155181,-0.15139586,0.14845751,3.87469,-5.4080353,-46.00048,
31630440,0.85159224,-0.14229158,7.3940434,0.6290081,-0.16932778,0.2624851,3.0286312,-5.638515,-45.786705,
31630460,2.0029192,-1.5409516,10.869584,0.46375915,0.05810597,0.18591926,2.952694,-6.2316365,-45.936485,18.0
31630480,1.0836542,-1.5337652,15.564121,0.6544413,0.4521203,-0.03325869,2.028634,-6.2317443,-45.03089,
31630500,0.7381064,-1.1109632,17.55207,1.306782,0.075416505,-0.0011676275,2.4895792,-6.0001526,-44.789963,21.0
31630520,1.6597667,-0.91692936,13.248594,1.7057233,-0.44110316,0.098567665,1.7248659,-8.531678,-45.708252,
31630540,3.0784888,-0.91094065,8.421404,0.67201823,0.008038588,0.12040557,1.9565172,-10.059756,-44.601448,
31630560,2.0556197,-1.1558783,13.86483,-1.1099014,0.8828863,0.043307126,4.1851854,-8.40788,-44.79728,26.0
31630580,2.0454388,-1.7349854,22.980522,-1.7662368,0.7210993,0.06354713,2.8743658,-6.5758467,-44.23204,
31630600,2.3337948,-0.6689974,26.418034,-0.8224134,-0.015264064,0.0899124,3.4124384,-5.6222553,-45.08091,
31630620,2.840866,1.1080626,19.551357,0.1453785,-0.60941476,0.21787718,3.3373938,-6.8061705,-45.30121,
31630640,3.8983414,1.7513341,13.852853,-0.3797964,-0.04615672,0.30243248,1.489315,-5.6491218,-44.97367,
31630660,4.903844,-0.54024047,14.090005,-1.5727583,0.46263978,0.09643714,2.8727598,-4.962454,-44.792442,22.0
31630680,3.6629853,-3.5336905,16.315405,-2.3195083,0.51843303,-0.47401145,3.2585983,-4.683803,-46.25634,
31630700,0.26889214,-3.7160459,18.718369,-2.1129804,0.16556442,-0.90957105,3.8696308,-2.5185041,-45.028107,17.0
31630720,-0.6404914,-1.3645844,15.461418,-1.3240192,-0.71833795,-0.5761436,3.6362858,-0.7507796,-44.899605,
31630740,2.1280828,-1.0816185,7.9710536,-1.1459872,-0.67373,-0.0076923706,2.7118187,0.48471546,-45.169052,
31630760,4.521166,-3.5813007,5.459395,-1.7703648,0.65798247,0.027461324,2.942975,0.19339943,-45.159927,12.0
31630780,2.2253993,-4.4930797,11.026786,-2.28542,1.2434778,-0.52833986,2.7095633,2.3238537,-45.42256,
31630800,-1.6714455,-3.2052104,16.237253,-1.71577,0.3562466,-0.8267468,3.7080593,3.5159848,-45.56629,7.0
31630820,-3.1422691,-0.8534493,15.777318,-0.2971053,-0.9211376,-0.44671407,3.6287613,4.631967,-44.807365,
31630840,-0.79110724,-0.33662477,9.529014,0.93167615,-1.3678825,0.22346982,3.8587322,6.020799,-45.823708,
31630860,2.730246,-0.63995224,3.028284,1.1963942,-0.6749285,0.40509725,1.8623371,4.1350965,-46.70272,6.0
31630880,2.5077662,-0.31476602,1.7086747,0.6863992,0.42588818,0.11467978,2.016302,3.9186337,-46.54162,
31630900,0.53359246,-0.16055709,5.143192,0.2713459,0.81990254,-0.13006452,2.6322327,3.1241713,-46.05281,7.0
31630920,-0.7252315,-0.29829708,7.115269,0.44391862,0.28767022,-0.17533821,3.5565577,2.1800199,-46.018875,
31630940,-1.101621,-0.6028223,6.8709307,0.94432616,-0.29955626,-0.1079603,2.7867222,1.9599724,-45.18428,
31630960,-0.80548,-0.69295216,5.4650846,1.4174364,-0.56893474,-0.02407079,2.4827528,1.1823559,-47.58168,
31630980,-0.6581581,-0.5004157,2.8719792,1.6090505,-0.41220787,0.06607713,2.252573,-0.9273081,-45.473663,
31631000,-0.17217539,-0.1168396,1.2810819,1.3774889,-0.12179041,0.12772925,2.1001635,-1.5999317,-45.933952,9.0
31631020,0.08234422,-0.19349493,2.109019,1.0909331,0.09738755,0.15143137,2.7946644,-2.4152312,-46.913208,
31631040,0.14642325,-0.44891283,3.1833916,1.1114392,0.15850705,0.17486715,3.4100876,-3.2752929,-45.881966,
31631060,0.0023951158,-0.38992414,2.4138436,1.0802803,0.18234232,0.17233716,2.335578,-3.7570243,-47.45076,12.0
31631080,0.03593181,-0.12193,2.711482,0.80917084,0.13626966,0.1259982,3.4895267,-4.6826177,-46.405365,
31631100,0.2620051,-0.0093425065,5.3342314,0.80464345,-0.060537755,0.10961978,3.258727,-4.9026012,-46.099045,16.0
31631120,0.9719651,-0.388427,6.5074167,1.1493895,-0.44429895,0.15156452,2.5671835,-5.501585,-46.031906,
31631140,1.13366,-0.88548875,5.9040556,1.1870731,-0.6118116,0.06088397,2.7236528,-6.113207,-47.645973,
31631160,1.6271284,-1.7957706,6.7313943,0.58479977,-0.27971572,-0.16002506,1.0317717,-7.807454,-45.88864,20.0
31631180,0.78349227,-2.1220691,11.848865,0.30290434,0.1485202,-0.41542196,2.3404026,-8.163082,-46.31626,
31631200,-0.5060452,-0.4333422,15.32697,0.7622992,0.20298181,-0.2987756,1.802248,-8.681396,-45.936737,23.0
31631220,-0.37908486,0.2580528,13.73248,1.1961279,0.10923861,0.17992717,2.9554043,-9.089898,-44.819977,
31631240,2.1649132,-0.3438112,10.335391,0.62554604,0.41164032,0.46648306,2.4948158,-9.832788,-44.745445,
31631260,3.4342175,-0.6522291,11.359458,-0.62960064,0.9440057,0.236253,2.8802938,-9.47696,-45.97809,27.0
31631280,2.766478,-0.8887825,17.661663,-1.3678284,0.9338857,-0.13632295,2.4929075,-7.9982824,-45.30842,
31631300,0.70816296,0.21223925,22.505322,-0.9551719,0.23587182,-0.17933296,3.0307474,-7.18631,-45.76873,
31631320,0.6755246,1.2024702,18.640816,-0.5647528,-0.34802574,0.26954246,3.643505,-6.346534,-44.447723,
31631340,3.1284945,0.29338604,16.795698,-1.0590351,0.18327442,0.57953423,3.7214527,-6.2867174,-45.45244,
31631360,5.0182276,-0.2902124,20.676971,-1.2719547,0.28580603,0.44397938,3.6424751,-5.030276,-45.159424,24.0
31631380,5.99199,-0.8549464,20.841663,-0.8975145,-0.35787943,-0.082393974,2.2582903,-4.549253,-46.128014,
31631400,4.563087,-0.91213834,16.190838,-0.6972449,-0.67599374,-0.689461,3.2563457,-3.7854514,-45.33821,20.0
31631420,1.7412132,-1.7460645,11.626255,-1.0586356,-0.60129213,-1.0431285,3.4865513,-3.6299076,-45.024757,
31631440,-1.8139764,-1.968844,8.5825,-1.8720975,-0.35787943,-0.9324743,2.5632658,-3.1337748,-45.44037,
31631460,-2.3379872,-1.0914999,10.897133,-2.3310928,0.06023649,-0.13152926,3.4061098,-1.0514174,-45.056618,16.0
31631480,1.3133206,-1.883505,13.0294075,-1.9610469,0.26623183,0.45156938,2.3286476,0.31525564,-46.25997,
31631500,3.6854434,-2.4105105,12.814713,-1.0529097,0.342265,0.324803,2.095705,1.7881603,-46.12806,10.0
31631520,3.7336526,-1.4690871,9.176279,-0.3453085,0.39712608,-0.23153085,4.554166,3.0221581,-44.92047,
31631540,2.310738,-0.07372101,4.441317,-0.29643953,0.37129343,-0.69292307,2.8633013,2.8340132,-45.966316,
31631560,0.15810123,0.6673802,2.7393296,-0.7907218,0.16236864,-0.95471156,3.0941296,2.9089036,-46.116203,7.0
31631580,-3.101546,1.0446682,5.245,-1.2479862,-0.07225566,-0.8636316,3.3234406,3.655241,-45.732224,
31631600,-4.041472,0.82907504,8.701975,-1.0248134,0.061301753,-0.22633772,4.088813,5.4543533,-44.49591,7.0
31631620,-1.7726544,-0.2629638,10.373119,-0.1350521,0.19246233,0.4216088,4.1651087,5.536174,-44.03067,
31631640,0.2105023,-1.2061834,8.622325,1.1038493,0.30444813,0.58978736,4.2460814,3.818974,-45.55642,
31631660,0.07336116,-0.90734756,5.232424,1.9213059,0.3551813,0.4943131,5.6305237,4.275264,-45.991554,6.0
31631680,-0.20032224,-0.46208793,3.4759393,1.8976039,0.06183438,0.3337246,4.401621,3.0749981,-46.162987,
31631700,-0.2670962,-0.08659669,2.5204427,1.5812205,-0.4225942,0.23119296,4.5598564,-0.4546938,-45.73127,7.0
31631720,0.033536345,-0.58395785,2.8099961,1.2733593,-0.60635215,0.16381505,4.714657,-0.9717655,-45.953568,
31631740,0.7455923,-0.6854663,2.956719,1.0435288,-0.33417732,0.04130975,3.5626364,-1.519105,-46.904472,
31631760,1.0654742,-0.7987381,3.597809,1.0396672,0.2834092,-0.041647643,4.10054,-1.5039854,-46.426987,10.0
31631780,0.76685214,-0.4025004,4.125713,1.160974,0.66144466,-0.10276714,4.7961025,-3.3465161,-47.084785,
31631800,-0.044017278,-0.28272647,3.7190804,1.243532,0.716572,-0.11528398,6.7165146,-3.6453204,-44.32518,14.0
31631820,-0.38357636,-0.013534594,3.2160296,0.9039793,0.47449088,-0.10875924,5.6416216,-4.8455677,-44.647545,
31631840,-0.406034,-0.10546109,3.3750296,0.283197,0.3611734,-0.10862608,5.795974,-5.2843027,-44.56124,
31631860,0.07575664,-0.71061885,10.630634,-0.075929984,0.40990928,-0.21035875,5.873313,-5.216379,-45.0244,18.0
31631880,-0.04132237,-0.971726,12.057142,0.48266757,-0.65855,-0.27320927,5.4879446,-4.777673,-44.884293,
31631900,0.6728297,-1.8981773,11.157042,0.46921858,-0.53737634,-0.14431241,4.950837,-4.8757615,-45.97988,20.0
31631920,1.0983266,-2.618917,13.519581,0.21315591,0.51310664,-0.21155718,5.258416,-5.3040557,-45.348198,
31631940,-0.45484185,-2.0964031,16.93284,0.38013595,0.8617141,-0.28625876,5.412551,-5.9569535,-44.795135,
31631960,-1.6121573,-0.60521775,16.908585,0.6894618,-0.023919322,-0.008091845,4.6433287,-5.750988,-45.048798,22.0
31631980,-0.06557661,-0.5492235,14.437648,0.63979393,-0.29289836,0.4635536,6.0297956,-7.2754555,-44.841896,
31632000,2.524235,-0.9354944,14.305598,0.015283212,0.29259712,0.67341053,4.954384,-8.034633,-45.246765,24.0
31632020,3.767189,-1.0151441,18.100636,-0.7092292,0.44306555,0.26847723,5.489786,-6.2494473,-44.71245,
31632040,2.200546,-0.29051185,21.057852,-0.6815323,-0.33404416,-0.33219826,6.104003,-5.7909327,-44.238182,
31632060,0.35123667,0.7143914,17.863482,-0.39803907,-0.80582273,-0.36162615,5.105012,-5.7463007,-45.19214,
31632080,0.55485237,0.8638094,15.133535,-0.6856602,-0.046556175,0.10722293,4.48925,-5.3882737,-45.28898,
31632100,1.6492866,-0.43424052,18.528227,-0.81682074,0.76118,0.21494772,5.873372,-5.0724444,-45.25821,22.0
31632120,-0.11378559,-0.8884831,18.997442,-0.29324377,0.30830976,-0.086521864,5.72003,-4.9366355,-45.882652,
31632140,-2.128084,-1.2723584,13.015334,-0.22493371,-0.5608121,-0.04763975,6.180023,-4.258184,-45.337395,
31632160,-1.1722876,-2.1425161,9.723947,-0.95850086,-0.17571937,0.32719985,5.4107857,-4.413791,-45.12258,19.0
31632180,-0.14402853,-2.90338,11.391798,-1.484741,0.6302857,0.6076305,6.0247374,-3.0110154,-45.587852,
31632200,1.3426653,-3.5417752,12.923705,-1.5308136,0.80019516,0.6359931,6.638048,-1.8891611,-45.1213,15.0
31632220,2.2092295,-3.4291875,13.735175,-0.99272245,0.45478347,0.29177985,6.406502,-1.3755727,-45.05561,
31632240,1.4887894,-2.3200808,10.456064,-0.13585106,-0.0955583,-0.10276714,5.638568,-1.5485525,-46.00129,
31632260,0.6614511,-0.95256203,4.4014916,0.09770798,-0.36214048,-0.3242088,7.0220203,-1.3685503,-45.195145,10.0
31632280,-0.72193766,0.15864041,1.9200755,-0.3538306,-0.28943628,-0.43353146,6.1759863,-0.80333614,-45.996567,
31632300,-2.1119568,0.9065003,2.4366863,-0.82454395,-0.23883624,-0.27107877,6.7905436,0.15721273,-46.456688,9.0
31632320,-2.9709926,1.7926563,3.7571084,-0.93040454,-0.038167227,0.2530309,5.8658924,0.526783,-45.477997,
31632340,-0.88303363,1.0782048,6.5050216,-0.5505049,0.47515664,0.74917734,6.096752,0.8907013,-46.018143,
31632360,0.7755359,0.92758906,5.903757,0.12873377,0.7903415,0.864359,8.711474,1.2263656,-45.879616,7.0
31632380,1.6609646,0.45807523,4.2332096,0.5172887,0.79912996,0.6814,8.5591135,0.7702222,-46.65194,
31632400,1.5816144,-0.13121249,3.2441769,0.5609644,0.26143813,0.34211352,8.021723,-0.12008762,-46.500237,7.0
31632420,0.95908934,-0.9378898,3.1456623,0.51089704,-0.22365624,0.068340816,7.25272,-1.0748634,-45.502335,
31632440,-1.3336831,-1.1861212,4.8958592,0.5685544,-0.50355417,0.06860713,7.4082136,-2.0353203,-45.796883,
31632460,-2.8506198,-0.8606357,6.9427958,0.8860029,-0.3582789,0.3945778,7.563221,-2.2656808,-46.56418,7.0
31632480,-0.7402032,-0.8977656,5.9765186,1.4256921,-0.10767567,0.7237443,7.0246887,-2.6342673,-46.03163,
31632500,1.4232132,-0.663907,3.024691,1.6484654,-0.06972566,0.7152222,7.257866,-3.9655542,-46.552086,10.0
31632520,2.7562973,-0.21984518,1.6185449,1.5138427,-0.22365624,0.44278097,7.411372,-4.9719195,-44.988976,
31632540,2.291275,-0.33183378,2.1000361,1.2637721,-0.37878525,0.17952769,6.2598944,-6.105421,-45.70092,
31632560,1.0998238,-0.73427415,4.2550683,0.9111698,-0.32751942,0.05089712,6.1055727,-6.7525663,-44.459152,15.0
31632580,0.52610654,0.08048792,6.736185,0.71116656,0.35251817,-0.04657448,6.1081,-7.7269382,-45.53116,
31632600,0.29284692,0.35417137,10.918391,0.65257704,0.022819117,-0.08372555,6.4160147,-8.087317,-45.287178,21.0
31632620,0.565632,-0.8378786,10.711481,0.6722844,-0.48597735,-0.10449819,5.4140854,-7.641735,-44.079155,
31632640,1.2654113,-0.5297602,11.860414,0.71289766,-0.19902202,-0.28026667,5.648285,-9.348493,-45.059525,
31632660,0.6156377,0.5925214,11.772379,0.791594,-0.15707727,-0.47001672,5.649604,-9.438411,-46.141808,25.0
31632680,-0.8575816,1.1716284,10.365037,0.33792487,-0.22791727,-0.34316158,5.341318,-9.869094,-45.061134,
31632700,-1.4534569,0.87638575,13.15547,-0.6457128,0.038798068,-0.07799976,5.493347,-9.4808655,-43.901108,29.0
31632720,-0.5323955,0.9850806,19.499594,-1.3348051,0.13174231,0.19404191,6.260499,-7.922554,-43.977455,
31632740,1.7561848,0.32123354,23.399136,-1.1491829,-0.5136742,0.398173,5.030858,-7.5210104,-45.482956,
31632760,2.9775796,0.26523924,22.120245,-0.6216112,-0.8292585,0.3467741,5.4915705,-7.431036,-44.853485,25.0
31632780,3.12041,0.5161656,21.938492,-0.51668274,-0.13177724,0.23665245,4.18227,-5.836328,-45.368813,
31632800,2.9817717,0.45358375,22.408903,-0.49963856,0.25810918,0.19337611,3.9518461,-6.2060375,-45.2155,23.0
31632820,3.3845115,-0.9603475,20.685955,-0.49657592,0.051314913,0.027727637,4.260107,-6.5710487,-45.280983,
31632840,2.4388964,-2.8099566,19.283401,-0.5206775,-0.14229673,-0.39877722,4.567644,-5.8409157,-46.05562,
31632860,-0.5383842,-2.5946627,17.214907,-0.39777273,-0.23018098,-0.7416589,5.02722,-6.170007,-43.873672,20.0
31632880,-2.1656842,-1.3373786,13.351855,-0.3313269,-0.29689312,-0.59039146,4.10211,-3.8405252,-44.92962,
31632900,-1.2564288,-0.77739275,9.549675,-0.3855222,-0.20794359,-0.19584455,5.0271635,-4.5049148,-45.904884,18.0
31632920,0.37129882,-0.840873,6.4795694,-0.54943955,0.18247548,0.04130976,4.718128,-3.2612386,-46.236504,
31632940,0.59407824,-0.8208109,5.725294,-0.648376,0.6774236,-0.06827924,5.8717422,-2.879839,-46.52175,
31632960,-0.8336269,0.06851056,5.230927,-0.73865706,0.47289303,-0.18412665,5.638915,-2.9280925,-44.592438,15.0
31632980,-1.9837561,1.1054534,4.064029,-0.88592976,-0.16027306,-0.04817238,6.100542,-2.6332188,-45.04866,
31633000,-0.8683614,1.3345208,3.610685,-1.0110983,-0.4513563,0.34264618,4.6394434,-1.7192435,-46.56585,12.0
31633020,1.6786312,0.46765715,4.8805876,-0.86635554,0.15571074,0.51694995,5.099451,-1.1133385,-45.942368,
31633040,2.619156,0.34698492,5.946276,-0.3931122,0.9541257,0.31827825,5.637679,-0.5236378,-46.477486,
31633060,1.876857,1.2518768,3.6723685,-0.057021555,1.0970042,0.054492388,7.48433,-1.010396,-46.348526,8.0
31633080,1.2429535,1.4432158,1.7820363,-0.41774642,0.47981715,-0.24857509,6.7126265,0.38642406,-45.842224,
31633100,0.24972829,1.012928,2.6683636,-0.76235914,0.01949016,-0.4589646,7.7880793,0.9279628,-45.20269,7.0
31633120,-1.6612648,-0.43483937,10.268319,-0.38445693,-0.2769194,-0.41915038,8.252829,-1.0620046,-45.632378,
31633140,-2.216417,-0.5576076,8.229467,0.7529782,-0.98079234,-0.12220819,6.5591393,0.379457,-46.155487,
31633160,-0.8518924,-0.60791266,5.6369596,1.5857478,-0.6906411,0.26221877,6.251793,-0.42553902,-45.457375,
31633180,0.5066433,-0.73038155,3.0175045,1.7101175,-0.3050157,0.35063568,5.4826984,-0.43837023,-45.553734,
31633200,1.0450273,-0.53574896,1.8212622,1.4876105,0.015894897,0.22932877,5.103195,-3.4788322,-46.379166,
31633220,0.77074486,-0.10965317,2.4081545,1.1078441,-0.10288198,0.035850275,5.718178,-3.392315,-46.132736,10.0
31633240,0.29015198,-0.3962123,4.2793226,0.9639004,-0.29702625,-0.06002344,5.720338,-4.7236295,-46.42679,
31633260,-0.3641131,-0.42405975,5.789073,1.1083766,-0.16653149,-0.009956051,6.8740253,-5.6457467,-45.1493,15.0
31633280,0.5674286,-0.8115284,6.5532303,1.1176978,-0.10394725,0.124267146,6.259721,-6.1031046,-45.546196,
31633300,1.6615634,-1.1977992,7.5296874,0.7726855,-0.10621092,0.08405344,4.7988815,-6.5675097,-45.577156,
31633320,2.0361562,-2.0996969,10.761188,0.351507,0.21469969,-0.23352823,5.4158564,-7.3758707,-46.01673,19.0
31633340,0.51233256,-2.3287647,18.54889,0.49478495,0.23826866,-0.5745457,6.3379154,-7.349123,-45.142906,
31633360,-1.896321,-1.484059,19.493904,1.4055853,-0.33138102,-0.5812036,4.110117,-9.012581,-45.720726,23.0
31633380,-0.86925966,-1.012449,15.148507,1.80426,-0.5221963,-0.1652182,4.5710897,-8.926083,-45.323357,
31633400,1.018078,-0.08929159,10.875273,0.9484541,-0.0068751127,-0.10170187,5.185729,-9.77572,-43.595825,
31633420,0.11468314,-0.03479448,14.42657,-0.8423871,0.43081504,-0.24684402,5.1881046,-9.952082,-45.528282,29.0
31633440,-0.70683765,-0.89421517,25.282366,-1.5539832,0.36849713,-0.15136978,6.3400946,-9.69377,-44.18712,
31633460,-0.14283076,-0.8866865,29.971432,-0.3528985,-0.5381753,0.061949234,5.4164333,-9.047913,-44.449715,
31633480,1.2959535,0.865606,21.87621,0.5809381,-1.1537645,0.26608035,4.415354,-7.6005783,-45.265198,
31633500,3.7342515,1.8639216,15.833914,0.34032172,-0.730189,0.29084772,4.1087255,-8.994052,-44.482872,
31633520,3.9222963,1.8519443,13.19739,-0.12533158,-0.2130036,-0.024070796,2.8028994,-9.254697,-45.827835,
31633540,1.2378632,1.3722496,9.882346,-0.9043055,0.04292596,-0.36735195,2.417056,-8.592561,-45.53556,
31633560,-1.3594346,-0.09528029,9.014884,-1.9228308,-0.10328145,-0.44817883,3.7993135,-7.600651,-44.66147,
31633580,-1.7118692,-1.1055732,11.832866,-2.346406,-0.27705258,-0.18572454,4.259819,-6.4224815,-45.20533,
31633600,1.4247105,-1.7631322,12.037679,-1.9618459,-0.003413014,0.22813034,3.7975702,-5.261794,-46.004097,
31633620,4.0100303,-2.8315156,11.0318775,-1.406311,1.0228353,0.059286065,3.1009312,-2.3194857,-45.745964,21.0
31633640,3.016506,-2.1368272,10.135369,-0.989793,1.3900847,-0.60557145,5.870343,-2.3546424,-45.908813,
31633660,0.7785301,-1.1855226,8.060885,-0.76928335,0.74000776,-1.1608402,5.4076204,-1.9113116,-45.38378,14.0
31633680,-2.3391852,0.41226172,6.359496,-0.6959133,-0.19023359,-1.1308796,6.3309174,-1.5392051,-46.06157,
31633700,-4.1333985,1.3336226,5.353096,-0.70416915,-0.7257948,-0.48319933,4.946209,-1.0512333,-46.56595,
31633720,-2.0445411,0.8287755,4.2907014,-0.8141576,0.010435417,0.157024,5.5592194,0.29173565,-46.101967,12.0
31633740,0.88003856,-0.27344403,6.0163436,-0.6650207,1.1043277,0.25622666,5.326153,1.0426512,-44.955727,
31633760,1.6361114,-0.6127037,8.000399,-0.15689002,1.3120542,0.024265533,7.248042,2.0990644,-45.22969,9.0
31633780,0.60725343,-0.27134797,6.456813,0.39132124,0.8352157,-0.24444719,7.3258476,1.0753174,-44.751595,
31633800,-0.4413673,0.7305609,4.7263784,0.54174525,0.084560014,-0.3149321,7.635685,0.18279219,-45.584755,
31633820,-0.5746157,1.0147244,4.4976106,0.55177647,-0.5983627,-0.15256819,7.096033,0.69750166,-45.139847,
31633840,0.15780178,0.114922926,4.5479155,0.6391281,-0.94404066,0.11707662,7.1752157,-0.27222967,-45.97786,
31633860,1.7367215,-1.1660593,4.407181,0.7836045,-0.53711003,0.16115189,5.7903976,-0.578794,-45.389694,10.0
31633880,1.7025862,-1.7185163,4.663198,0.9826756,0.25225025,-0.13698873,6.561516,-1.1718135,-46.36962,
31633900,-0.29075158,-0.92681074,5.217751,1.2049161,0.29779026,-0.40263882,6.792987,-1.7567892,-46.2797,
31633920,-1.3381746,-0.33722362,5.1030674,1.4659057,-0.4083463,-0.33885616,6.7951794,-2.799076,-46.96402,14.0
31633940,-1.3028413,-0.8297938,3.6798544,1.6481991,-1.2945125,-0.1826619,6.564311,-4.031234,-45.33046,
31633960,-0.8617737,-0.5249693,2.6539905,1.6099827,-1.5549694,-0.06934449,4.8750277,-5.6876793,-45.97235,20.0
31633980,0.26499945,0.5754537,3.1974647,1.3683009,-0.93977964,-0.07320608,3.9538689,-6.811887,-46.29178,
31634000,0.57166344,1.7206209,2.9027784,0.83913136,-0.7019596,-0.09690819,2.0304918,-7.3419456,-45.327515,
31634020,1.3705127,0.44040862,3.666679,-0.3917806,-0.30088785,-0.14777452,2.5705442,-7.2106857,-46.940636,27.0
31634040,1.3690157,0.21732964,12.0625305,-0.9329345,0.46969715,-0.32340983,2.79883,-6.0888767,-46.09674,
31634060,1.0001119,1.0671257,18.456963,-0.19723688,0.6236277,-0.2918514,3.0303755,-6.6024647,-46.162415,
31634080,1.3402699,1.0961708,16.003992,0.80104816,0.2625034,-0.049637116,3.4147377,-6.304126,-46.311066,
31634100,1.969083,0.019103806,10.174296,0.3564338,0.23560551,0.19670504,2.0301352,-6.8306456,-45.642982,
31634120,2.9934494,-1.1714491,11.784955,-1.5088427,1.142411,0.16061926,3.721261,-6.645976,-44.829224,30.0
31634140,2.4329073,-3.5121312,25.268505,-2.3689098,1.1810268,-0.22034559,3.8738108,-4.889788,-45.851738,
31634160,0.08024822,-3.354628,30.357399,-1.1471857,0.2137676,-0.39691302,4.638133,-2.135991,-44.858643,27.0
31634180,-1.9418353,-1.1079688,24.942123,0.18958694,-0.46773472,0.12266925,4.7935762,-2.3721428,-46.012787,
31634200,0.9566939,-0.9603475,16.636398,0.38013595,-0.23936886,0.82814,3.5634289,-3.4111009,-45.257523,
31634220,3.9273865,-1.3139801,12.290401,-0.27513427,0.26836234,0.66408944,4.7178755,-3.764431,-45.37948,23.0
31634240,2.7302463,-0.051862247,10.772567,-1.1546425,0.2036476,0.1781961,4.639818,-3.2438765,-45.000534,
31634260,2.0050151,-0.12821813,10.6327305,-1.8497269,0.05078228,0.032388173,3.4074087,-1.5029097,-45.670418,
31634280,1.4543545,-1.7355843,13.596537,-1.827889,0.36743185,-0.10050346,4.713517,-0.45004368,-45.57273,
31634300,-0.0074862354,-2.0853238,11.909222,-1.298453,0.16702916,-0.15882663,4.8651342,0.73967123,-45.04107,
31634320,1.321705,-2.7234197,8.26989,-1.600189,0.33773762,0.021069748,6.3253994,1.9353309,-45.405502,15.0
31634340,2.964105,-3.5714192,13.869922,-1.7356106,1.0041931,-0.112487674,5.324871,3.2306242,-46.528732,
31634360,1.9026082,-2.390448,17.204428,-0.6556997,0.6539877,-0.3166188,6.1687307,4.06927,-45.51149,10.0
31634380,0.5943778,-1.1450987,12.351486,0.63433444,-0.06280145,-0.37241197,6.5510054,4.395404,-43.803345,
31634400,-0.30183068,0.05383822,6.191214,1.0367377,-0.48251528,-0.3672188,6.936599,4.6049814,-44.956924,
31634420,-1.1734854,0.51886046,3.0878716,0.9838741,-0.22245783,-0.2829298,6.939995,2.2441206,-45.08426,9.0
31634440,-2.4104507,1.4701649,2.6689622,0.7668266,0.15411285,-0.064018175,5.249735,1.6137476,-46.124977,
31634460,-2.5562754,1.4348316,3.3926961,0.62567914,0.11576335,0.30922353,8.326799,1.2216873,-45.811745,11.0
31634480,-0.7258304,-0.011139095,4.854537,0.83340555,-0.05854039,0.57793623,6.0958233,0.7583475,-45.010666,
31634500,0.71984094,-0.5025117,2.4042616,1.0954603,-0.14722358,0.56169105,6.4821024,0.09041929,-45.689766,
31634520,1.172287,-0.41627443,1.2146072,0.9581746,0.21323496,0.37819934,5.714547,-1.1730723,-45.616844,13.0
31634540,0.6120444,0.062222414,1.9260645,0.6348671,0.47955087,0.1655461,7.1765537,-1.3754807,-45.810287,
31634560,0.07336116,0.16882122,3.7601027,0.58000606,0.3843429,0.06447923,7.6388073,-2.102048,-45.55822,15.0
31634580,-0.2113158,0.02427974,3.4520268,0.7609676,0.14212863,0.016542377,7.4085426,-2.4015265,-45.63787,
31634600,-0.5997683,-0.045873553,3.196866,0.85817295,-0.08370724,-0.043911327,8.024299,-3.1936722,-44.994316,
31634620,-1.3774005,-0.18271528,3.5513968,0.8588387,-0.43444526,-0.009556578,8.333894,-3.7211494,-46.063858,18.0
31634640,-1.3627281,-0.25847226,3.5337305,0.73859715,-0.26440257,0.17140505,7.718733,-4.239471,-45.608864,
31634660,-0.6907965,-0.46957386,6.1549826,0.79891765,-0.088500924,0.45769465,6.1821575,-5.4444056,-45.787895,23.0
31634680,0.47250777,-1.3645844,9.488889,1.3912042,0.18047813,0.6587632,6.642851,-5.7160053,-44.68994,
31634700,1.9145858,-0.70163584,8.969669,1.6730995,-0.31407046,0.4206767,7.031986,-7.724513,-46.282036,
31634720,2.4954894,-0.6567206,5.286322,0.94512516,-1.1982393,-0.07107555,6.3397512,-7.8801107,-46.142685,28.0
31634740,1.502863,0.9236964,8.3315735,-0.01813944,-0.4292521,-0.4444504,6.414962,-7.5667534,-44.98371,
31634760,-0.8372201,1.6489277,15.889908,-0.048366293,0.21496601,-0.4669541,5.875456,-6.9092684,-44.849976,32.0
31634780,-2.23079,1.8633229,15.556636,0.046309005,-0.6208663,0.053293962,6.4915085,-8.356647,-43.657166,
31634800,0.74798775,-0.19499213,12.658407,-0.9656913,-0.16786304,0.55742997,4.4149876,-7.9575176,-44.48725,
31634820,3.1677203,-2.134731,20.193985,-1.6416011,0.7867462,0.5134878,5.4904633,-6.620286,-44.8629,
31634840,3.7058046,-2.1751547,26.355751,-1.0409255,0.118825994,0.07886028,5.721074,-6.3254395,-45.09272,
31634860,2.8718786,-1.3211665,22.556824,-0.36501586,-0.63191843,-0.35337037,4.104991,-5.7603173,-45.139465,29.0
31634880,1.4618404,-0.012336865,18.570747,-0.5595596,-0.51260895,-0.3228772,4.721075,-5.5437627,-46.05523,
31634900,1.666055,0.13738056,17.707178,-1.1768799,0.09552336,-0.106229246,3.8731737,-4.7365875,-45.466614,
31634920,2.3101394,-1.8044543,20.885677,-1.2361795,0.24434954,-0.1301089,3.1010132,-2.754764,-45.276627,26.0
31634940,2.3427777,-2.9926114,18.736334,-0.6892555,-0.06626356,-0.4396567,6.176898,-2.4074636,-44.81723,
31634960,0.8333268,-2.33116,12.3101635,-0.3747364,-0.24882308,-0.9147643,4.86967,-2.1429129,-45.54924,22.0
31634980,-1.6915076,-0.9034548,7.8012743,-0.802706,-0.43351313,-1.0962586,4.484641,-1.2021718,-46.343536,
31635000,-3.9049299,-0.016229518,6.139112,-1.6880732,-0.14522621,-0.5122278,5.3289547,-0.0077433586,-46.18161,
31635020,-2.2658236,-1.7628329,12.296091,-2.015109,1.3669153,0.4486399,4.5582037,0.94221735,-45.97963,19.0
31635040,0.31859827,-2.6946738,14.92902,-1.287401,1.4911517,0.6696821,6.322443,3.3496153,-44.493362,
31635060,2.1882691,-2.5551374,11.023193,-0.4707433,0.14186232,0.0947061,7.095001,2.01376,-45.851562,13.0
31635080,0.5072422,-1.3792567,6.7813997,-0.048765764,-1.1806624,-0.58439934,5.555588,2.5109782,-45.586075,
31635100,-1.8433211,0.49520513,3.437911,0.08319375,-1.1220729,-0.43166727,5.6314936,2.8150706,-45.046036,
31635120,-1.9376429,1.4243513,4.028396,-0.13784842,0.19565812,0.42267412,5.324069,2.8794732,-45.363953,11.0
31635140,0.6640605,0.3712819,6.9391594,0.046841633,1.0617173,0.95690376,6.247883,2.8105114,-45.959236,
31635160,2.4610543,-0.34171516,5.7151127,0.3999765,0.6541209,0.7346631,6.4017506,1.7269666,-44.627365,10.0
31635180,2.3634384,-0.7624211,4.267645,0.5239465,0.083006494,0.22160558,7.095565,0.41426516,-44.362755,
31635200,0.5398805,-0.20337623,3.966114,0.51142967,-0.3251226,-0.057892907,6.8669815,1.3225965,-47.47426,
31635220,0.013174767,-0.2905118,3.8029222,0.67388237,-0.22658572,-0.015415527,5.4808493,1.54007,-46.350517,
31635240,0.29584122,-0.52916133,2.7875385,0.85497713,0.1250844,0.05089713,7.8681087,-0.84904385,-45.79917,
31635260,0.43358126,-0.88189554,2.1380644,0.9520493,0.3774187,-0.013551317,6.558531,0.38756323,-45.613922,12.0
31635280,0.0736606,-0.5426359,1.935347,0.89172876,0.2178955,-0.15389979,7.1766405,-1.3766403,-45.887657,
31635300,-0.38327694,-0.38573208,2.5893126,0.9657645,0.06809281,-0.18106401,8.100727,-2.8965297,-44.918472,
31635320,-0.8291354,-0.23661354,3.4456964,1.2464614,-0.007940376,-0.13046399,6.562789,-2.853119,-45.42153,15.0
31635340,-0.64168906,0.03766876,1.6068671,1.334612,-0.29050153,-0.05789291,6.0265636,-4.410244,-45.49421,
31635360,-0.4027402,0.48412606,1.6287258,1.1071782,-0.5035542,0.0512966,6.179411,-3.3092904,-45.967445,22.0
31635380,-0.1542093,1.3944079,3.339397,0.83087564,-0.41633576,0.19737086,5.720209,-5.8797383,-44.86576,
31635400,0.565632,1.7669048,4.5383334,0.23233065,-0.1999541,0.26794457,5.335088,-5.371959,-45.035988,
31635420,1.8660777,0.12959525,10.729747,-0.18884791,0.27288973,0.43918568,6.0271215,-5.068952,-45.177048,26.0
31635440,3.3620539,-0.69624597,16.619032,0.46122915,0.4550498,0.22972822,5.4117126,-5.656346,-44.41172,
31635460,2.90841,-1.2780478,14.8871,1.2239578,-0.22059359,-0.3662867,5.798601,-6.3323793,-45.632385,
31635480,0.9390273,-1.4825618,12.6623,0.713164,-0.8833206,-0.8117,4.87395,-5.9628096,-44.653694,
31635500,0.20660964,-1.6924657,14.909557,-0.31601375,-0.30741256,-0.5686867,4.414159,-6.7886696,-45.197243,
31635520,-0.20451434,-0.6752855,21.707329,-0.6897881,0.66610515,-0.1798656,4.8760204,-6.3521786,-46.042023,32.0
31635540,0.023654986,0.15923929,22.957167,-0.4133522,0.015362263,0.014545009,4.1055126,-5.7672668,-45.60367,
31635560,1.3717104,0.53293395,21.307583,-0.20149794,-0.20328307,0.13491978,4.797472,-5.5356464,-45.58914,
31635580,2.1394615,1.4680688,18.779156,-0.43119538,-0.045890387,0.15076557,5.7958603,-5.138052,-44.64032,
31635600,3.437212,1.1102443,17.98206,-1.0659593,0.03120806,0.034518696,5.410817,-4.124764,-45.51284,
31635620,3.6614888,-0.88488996,18.713577,-1.4121699,0.2997876,-0.2915851,4.7174454,-3.32452,-45.539345,29.0
31635640,1.2106147,-2.460516,18.592308,-1.2876673,0.30897552,-0.68306947,6.25461,-2.489266,-45.43341,
31635660,-1.565745,-2.503036,15.892601,-1.0694215,-0.113401465,-0.7676247,6.408141,-2.6999378,-44.885475,24.0
31635680,-0.8788415,-1.7424713,11.539719,-1.1490499,-0.23484151,-0.21861455,6.175309,-0.4324975,-45.846107,
31635700,2.1869004,-3.260948,9.878753,-1.472091,0.68954086,-0.04031606,4.8654404,0.95267725,-45.585197,
31635720,1.4046484,-2.6982675,12.814712,-1.3365362,1.1456068,-0.678542,6.7115555,0.545414,-45.070274,19.0
31635740,-1.2875701,-1.1744434,12.482039,-0.6933834,0.16476545,-1.2991912,7.0943613,1.7328396,-44.91974,
31635760,-4.178613,1.1036568,7.7156367,-0.25782374,-0.9064902,-1.2788181,6.93851,3.2045956,-44.94065,15.0
31635780,-5.461692,2.3888307,4.1778145,-0.3343895,-0.9594871,-0.519152,6.553939,3.5603333,-45.418625,
31635800,-3.569563,1.4147695,2.4500756,-0.55476594,0.19552496,0.39404517,5.246378,3.7569702,-45.762962,
31635820,-0.97735566,-0.3617773,5.638158,-0.586857,1.1288289,0.77634156,6.2456064,2.9131691,-44.025932,14.0
31635840,0.3102141,-1.3217653,10.3719225,-0.04849945,0.8721005,0.64118624,7.40001,3.7182662,-45.554184,
31635860,0.45454168,-1.4586068,10.201545,0.96017194,-0.2550815,0.36208725,8.399927,3.3718672,-45.061012,11.0
31635880,0.7216374,-1.2618783,5.273147,1.3051841,-1.289852,0.11055188,7.0162535,2.9777002,-45.40039,
31635900,0.680615,-1.0636524,2.3228157,1.187073,-1.1610881,-0.016613951,6.172287,1.7786388,-45.871788,
31635920,0.19073962,-0.9423814,1.4703248,0.9939941,-0.028579846,0.04503818,5.096429,1.0977974,-45.968056,13.0
31635940,-1.5495756,-0.24290165,3.405572,0.9584409,0.9891462,0.2696756,6.0997047,-0.9577036,-46.383583,
31635960,-1.8151742,-0.56479406,5.4153786,1.1476583,0.7880778,0.56475365,6.483947,-0.9472337,-46.064613,16.0
31635980,-1.0752707,-0.98909324,4.4943166,1.4560522,0.03520279,0.6887237,7.640482,-2.7032661,-46.32505,
31636000,-0.2611075,-0.9301046,2.2168157,1.5561869,-0.40554997,0.6474447,6.641816,-3.458961,-46.57328,
31636020,0.33476776,-0.29769826,-0.045713812,1.024221,-0.3665347,0.45543095,7.1827602,-5.2934017,-46.538574,21.0
31636040,0.5285021,-0.18002036,-0.7892104,0.116483234,0.027612794,0.18418822,6.565607,-4.916846,-45.39756,
31636060,-0.8734517,0.53712606,2.2374768,-0.54216033,0.5690774,0.20527156,6.8726625,-4.3974037,-45.47332,24.0
31636080,-1.352248,0.739544,9.340071,-0.74025494,0.811913,0.6093615,7.48948,-4.841874,-46.226646,
31636100,1.1561174,-0.70852286,10.748012,-0.31534797,0.35877657,0.9268101,8.488471,-4.886506,-45.27269,
31636120,2.9605117,-1.4954375,16.240248,0.44924492,0.19192971,0.67341053,7.1021376,-4.5216227,-44.150673,
31636140,4.001347,-2.6129282,16.20102,1.8751001,-0.80209434,-0.012752362,6.5661345,-5.864583,-44.690125,
31636160,4.1831045,-3.1390355,8.530399,2.5980144,-2.2182288,-0.8057078,5.18491,-7.7386293,-45.399223,26.0
31636180,1.4965746,-0.6381556,-0.6254197,1.0210251,-2.269628,-1.3089118,4.802535,-9.365966,-45.389893,
31636200,-2.6823378,1.2920012,7.272773,-1.2526467,0.57489187,-1.0219564,3.8763046,-7.5280952,-44.815155,
31636220,-5.4377365,1.1871989,23.184738,-1.7330805,1.5838294,0.0538266,4.3362207,-5.9802446,-45.285934,32.0
31636240,-1.8681743,-0.5941387,25.285873,-0.5218759,0.30990764,1.2415954,5.336026,-5.746272,-45.41854,
31636260,4.076248,-2.679531,18.519928,0.035390053,-0.05174933,1.540535,5.6451235,-6.846014,-45.320732,29.0
31636280,5.091589,-1.8787138,18.716274,-0.5551654,0.18487231,0.73692685,4.4130936,-6.195558,-44.972008,
31636300,3.3027658,0.5443125,18.70699,-1.1848693,-0.6855811,0.16221717,4.798479,-6.2726912,-45.58058,
31636320,3.2794094,0.08977042,18.475525,-1.3546457,-0.50675,0.23105982,5.3353996,-4.724833,-46.126823,26.0
31636340,2.196354,-1.4607029,19.142967,-1.1241492,0.35291764,0.40456462,4.6411734,-3.9855542,-45.301453,
31636360,0.34195414,-2.4359624,18.874971,-0.78739285,0.52082986,0.4385199,4.1790934,-3.261303,-45.708237,22.0
31636380,-0.43867236,-2.7611487,15.185038,-0.8096302,0.08540334,0.40230092,4.5602274,-2.4134464,-43.619255,
31636400,0.90399337,-2.5000412,12.772791,-1.055573,0.284075,0.44784096,5.1772566,-2.1370854,-45.464287,
31636420,2.6637716,-2.8072617,12.196678,-1.0072366,0.5414693,0.29231247,4.6354103,-0.5800886,-44.335052,17.0
31636440,2.4490771,-2.499742,9.803895,-0.5888544,0.40271872,-0.19651031,4.5600443,-0.5295563,-45.807777,
31636460,-0.10570087,-1.4663923,7.535077,-0.31388324,0.36330396,-0.55497146,5.867737,-0.51087093,-45.852844,13.0
31636480,-2.597298,1.2150464,7.802173,-0.10921947,0.15797442,-0.24338193,6.098323,-0.07093239,-46.23912,
31636500,-0.7929038,1.6980348,4.783571,-0.023066284,-0.23710519,0.3738051,6.250864,0.8170147,-46.168236,
31636520,2.0071113,0.45927298,-0.72363424,-1.0607661,-0.42832,0.4835273,4.6356287,-0.36592436,-44.80182,12.0
31636540,2.6802409,-1.2427144,4.8000393,-2.2088537,0.3746224,0.044372384,5.479389,1.9213328,-45.50376,
31636560,0.93453574,-0.7935622,12.774289,-1.6771542,0.40857768,-0.22593823,6.7073946,3.278273,-44.715103,8.0
31636580,0.06527642,-0.46029136,12.382627,-0.17193687,-0.083041444,-0.18079768,5.3987217,3.8515396,-44.52215,
31636600,-0.02665006,-0.03120125,6.792778,0.9970567,-0.0512167,-0.11222135,7.0911474,4.959625,-46.040535,
31636620,-0.062282808,0.49999607,2.2850866,1.1435304,0.12681547,-0.11155556,5.2491074,2.635188,-46.833244,7.0
31636640,0.029344238,0.75122195,1.3280932,0.7397955,-0.08756882,-0.13179557,7.248994,1.652204,-45.534004,
31636660,0.048508078,0.14396812,4.3694525,0.68054026,-0.3750568,-0.18559138,6.480953,1.1188097,-45.933846,8.0
31636680,-0.80428225,-3.594719E-4,4.1784134,1.1392694,-0.3757226,-0.15230191,5.7899723,0.29523754,-46.09626,
31636700,-1.4363892,0.6832502,2.716273,1.3709642,0.080609664,0.07166976,6.5584936,-0.33558464,-44.676964,
31636720,-0.3560283,0.31434652,2.1829796,1.2623073,0.38647345,0.3029651,6.0985556,-1.3042212,-44.90934,11.0
31636740,1.0617955,-0.17073788,0.7121557,0.7762808,0.12268756,0.17406821,7.17805,-2.4085026,-45.875664,
31636760,1.1761795,-0.43513882,0.6151388,-0.033585757,-0.19263043,-0.2120898,6.408306,-2.1955872,-45.66513,15.0
31636780,-1.5178354,0.37423348,9.343364,-0.17380106,0.12748127,-0.3164856,7.562255,-1.746275,-46.33806,
31636800,-2.4436882,-0.15786219,10.982171,0.5172886,-0.0537467,0.24157931,6.483324,-2.2414875,-43.882942,
31636820,-0.34032944,-1.7654849,12.916905,1.231681,-0.2205936,0.8257432,6.254814,-2.636675,-45.431694,15.0
31636840,2.5383086,-2.970154,12.457486,1.5981317,-0.16506672,0.70230585,5.7172384,-4.392908,-44.031845,
31636860,3.0701046,-2.965363,11.70321,1.6343505,-0.0130003765,-0.020874992,5.491022,-5.9040866,-46.26406,20.0
31636880,0.37549087,-1.0926976,11.387007,1.083343,-0.3205952,-0.40050828,5.413828,-7.2041416,-44.393745,
31636900,-0.23505667,-0.17792432,12.132,0.45443806,-0.6142084,-0.2608256,5.336731,-6.262204,-45.41255,
31636920,0.12037243,0.07210375,14.146599,0.007426884,-0.41047683,-0.028731322,5.2592506,-6.038784,-45.184914,25.0
31636940,0.27428192,0.7009169,17.838028,-0.07526419,-0.074785665,0.14304242,4.643819,-6.0469646,-45.12274,
31636960,1.6468911,0.57335764,17.46224,-0.27327004,-0.24083361,0.17300294,5.8743706,-6.6777306,-44.156242,
31636980,2.3838,-0.5354495,16.827736,-0.88086975,-0.033773005,-6.349981E-4,4.029052,-6.3534374,-45.289253,
31637000,1.0513153,-1.2678671,20.186497,-1.202313,0.13147599,-0.17054452,5.25784,-5.006921,-45.19689,
31637020,-0.13294941,-0.046771865,21.46149,-0.85397184,-0.26986206,-0.012086583,5.7204933,-5.0875187,-46.113045,23.0
31637040,1.050417,0.45837462,20.380531,-0.32080746,-0.44003788,0.27886352,4.5648375,-3.8497357,-46.001358,
31637060,2.7961218,-0.24260223,17.231077,0.29278436,-0.086903036,0.34970355,3.717803,-3.054142,-46.1864,
31637080,2.242467,-0.81242675,12.680265,0.36309174,-0.0027472116,0.0924424,3.9495754,-4.294352,-45.547226,20.0
31637100,1.3091286,-1.2615789,7.0242414,-0.56648386,-0.44136947,-0.2688151,4.0284567,-5.0429697,-46.387794,
31637120,-0.5779095,-1.7304938,6.090604,-1.7518559,-0.4933011,-0.44258618,3.5631866,-3.046053,-45.493904,
31637140,-2.2442646,-1.734087,9.550573,-2.2009976,-0.03963196,-0.06934449,3.1773643,-1.5882225,-46.216812,
31637160,-1.3693159,-1.7849909,12.892864,-1.6133716,0.44066873,0.5281352,3.637188,-0.47333384,-46.06353,
31637180,0.9004001,-1.8838044,12.661999,-0.6112249,0.5016107,0.77927107,4.4811344,0.36415434,-45.12365,14.0
31637200,2.2514498,-1.6759967,7.824032,0.24018696,0.5991267,0.67367685,4.71463,-0.82667303,-46.110023,
31637220,1.9286592,-1.0444885,2.9159958,0.14551166,0.51044345,0.253963,5.8676777,-0.6548052,-45.61904,9.0
31637240,0.5620388,-0.34860215,2.1551323,-0.70629966,-0.22259098,-0.26482034,5.0210943,0.062449932,-46.112694,
31637260,-1.1189883,0.28530133,4.769198,-1.1611671,-0.81847274,-0.42021567,4.7121267,0.9433942,-46.0532,
31637280,-1.7130669,1.0084364,6.5541296,-0.90470505,-0.66574055,-0.095976084,4.3259077,1.7552562,-45.607918,7.0
31637300,-0.43687573,0.93148166,7.100897,-0.1759316,-0.11313515,0.3514346,2.1722803,2.2280803,-46.363396,
31637320,0.97076726,0.51676446,3.9170067,0.46562335,0.043192275,0.58446103,4.3258514,2.0454416,-45.9208,7.0
31637340,2.247258,0.17001894,1.1098052,0.3764075,0.22841498,0.48712257,5.5572834,0.8964281,-45.10305,
31637360,2.406557,-0.27793553,2.4422898,-0.007753119,0.46849877,0.20256402,4.4068727,0.54472256,-47.75859,
31637380,1.7745359,-0.49896118,5.757846,0.02367215,0.3385366,-0.091581866,5.3281813,0.87092066,-46.578712,
31637400,0.560841,-0.3593818,7.0886197,0.59438705,-0.26347047,-0.29904193,4.5575676,1.0954175,-45.59452,
31637420,-0.30452558,-0.25218412,4.9677234,1.1829451,-0.81780696,-0.23938715,3.7157402,-0.8557458,-47.063118,
31637440,0.37429315,-0.19020115,0.9445171,1.130481,-0.5361779,-0.07067607,3.6377792,-0.8430152,-46.136612,
31637460,0.84260917,-0.4872405,2.109019,0.7436571,0.46383822,-0.016747108,4.485035,-0.99032354,-46.965042,
31637480,0.5027507,-1.0947936,6.1295304,0.6692218,0.46703404,-0.04218027,3.1781473,-1.5986452,-46.913124,8.0
31637500,-0.6713332,-1.9164429,7.930331,0.6360655,-0.40062308,0.010417111,3.409401,-2.3977866,-46.356438,
31637520,-0.49346894,-1.612217,10.107223,0.6208855,-0.13017938,0.26714563,3.94876,-3.198049,-46.178986,10.0
31637540,1.3854846,-2.1682677,14.141209,1.1725588,0.5854114,0.5230752,4.4865265,-3.8323722,-44.76539,
31637560,2.780851,-3.0339334,11.621465,1.469368,0.24945393,0.42373937,5.0259266,-4.8502736,-44.35328,
31637580,3.4426017,-3.2764757,10.277001,0.6662923,0.018424895,-0.08479082,4.104171,-5.0981345,-45.22454,13.0
31637600,0.5467676,-2.8803232,15.833914,0.046175845,0.2441276,-0.59704936,3.335475,-5.839903,-44.770775,
31637620,-1.5582591,-1.93381,21.771406,0.5636276,-0.1339078,-0.43006933,4.49034,-5.185691,-46.52942,16.0
31637640,-0.20451431,-2.3404424,19.314545,1.4276896,-0.7010274,0.013612896,3.7996387,-7.0260696,-45.67408,
31637660,2.3900883,-2.7536628,11.637334,0.7626987,-0.19063306,0.22746454,2.9513388,-6.8648634,-43.91726,
31637680,2.2553427,-2.3341546,16.846004,-0.7686176,0.67382836,-0.0064939484,4.2599335,-6.568733,-45.126244,19.0
31637700,0.05150246,-1.2585847,23.402725,-1.0351999,0.33454186,-0.23472665,4.5660496,-5.674976,-44.819458,
31637720,-0.85309017,0.21223927,23.089817,-0.29670587,-0.15627831,0.050364487,5.2589493,-5.817671,-45.187485,
31637740,1.5202302,-0.045873553,15.86116,0.05709479,-0.19582622,0.47793466,4.2600822,-6.4259567,-45.43743,
31637760,3.8246806,-1.1139575,12.148469,-0.6423838,0.46983033,0.30948985,4.489873,-5.468927,-45.75232,
31637780,2.7056925,-2.102392,14.492446,-1.3996531,0.46303922,-0.32753772,4.873657,-4.8734546,-45.749672,18.0
