Timestamp,acc_x,acc_y,acc_z,gyro_x,gyro_y,gyro_z,mag_x,mag_y,mag_z,light
3164,-0.37728822,0.8763857,10.077578,,,,,,,
3174,,,,0.009310624,-0.0080116,0.1911566,,,,
3184,0.24793166,1.0201144,9.215206,,,,-3.1718998,25.928091,-67.48683,
3194,,,,-8.0937985E-4,-0.2295864,0.2044724,,,,
3204,0.57850766,1.0009506,9.790121,,,,-3.3271732,27.102715,-67.65906,
3214,,,,-0.10999889,-0.14649585,0.17144923,,,,
3224,0.61683536,0.94345903,10.08716,,,,-4.40086,25.018013,-67.971146,
3234,,,,-0.038093604,-0.02345792,0.08782605,,,,
3244,0.43717444,0.9722048,9.852403,,,,-2.7121506,26.971592,-67.17795,
3254,,,,0.11690224,0.011163143,-0.0027213492,,,,
3264,0.21199948,0.9266907,9.55776,,,,-2.5562363,26.07789,-67.937546,
3274,,,,0.15578435,-0.07831899,-0.046397153,,,,
3284,0.09462103,0.90992236,9.215206,,,,-1.4811401,27.13073,-67.613464,
3294,,,,0.13181593,-0.12838636,-0.03627715,,,,
3304,0.19523114,0.95543647,9.198438,,,,-3.1733646,27.250141,-67.81169,
3314,,,,0.058312744,-0.1725948,-0.0027213492,,,,
3324,0.30781865,1.0368828,9.30863,,,,-3.4777584,24.59674,-67.47902,
3334,,,,-0.04235466,-0.17898639,0.022312343,,,,
3344,,,,,,,-4.866661,27.528543,-67.23799,
3354,0.2718864,1.0991652,9.852403,-0.10041152,-0.054350566,0.050541826,,,,
3364,,,,,,,-4.866661,27.528543,-67.23799,
3374,0.32698244,1.072815,10.056019,-0.07218204,0.016489461,0.07983657,,,,
3384,,,,,,,-3.0191898,26.379602,-67.02396,
3394,0.34614623,1.1997752,9.718257,-0.05886624,0.008499985,0.06758604,,,,
3404,,,,,,,-3.789524,26.962198,-66.74034,
3414,0.34614623,1.2524759,9.591296,-0.12384731,0.019685252,0.043617614,,,,
3424,,,,,,,-2.2481613,25.787743,-67.92651,
3434,0.3820784,1.0584421,9.703884,-0.18456733,0.03513157,0.005800759,,,,
3444,,,,,,,-3.3267078,27.38595,-68.43614,
3454,0.17127633,0.90992236,10.175793,-0.18030627,0.07561159,-0.028820302,,,,
3464,,,,,,,-3.3269196,26.66512,-67.34445,
3474,0.101807475,0.74463433,10.137465,-0.046615712,0.10810213,-0.011243457,,,,
3484,,,,,,,-3.1723576,26.513096,-67.80313,
3494,0.16888088,0.73505247,9.313421,0.064171694,0.0724158,-5.8190548E-5,,,,
3504,,,,,,,-3.6372814,27.130472,-65.50038,
3514,0.1880447,0.8404535,8.781625,0.010908518,0.011695775,-0.014439248,,,,
3524,,,,,,,-2.712204,27.261778,-67.490845,
3534,-0.00598906,1.0201144,9.0547085,-0.11905363,-0.014403181,-0.05758242,,,,
3544,,,,,,,-3.481247,26.52464,-66.727615,
3554,-0.31500578,1.1422838,9.548178,-0.18350206,-0.02026213,-0.07409401,,,,
3564,,,,,,,-3.7899265,27.257017,-66.743774,
3574,-0.29823744,1.2452893,9.73263,-0.16432732,-0.015468445,-0.050125573,,,,
3584,,,,,,,-1.4811974,27.420914,-67.926346,705.0
3594,-0.06587604,1.2213346,9.751793,-0.12171678,0.05696947,-0.05545189,,,,
3604,,,,,,,-3.171835,26.506145,-68.26735,
3614,-0.10659915,1.063233,9.533805,-0.10946626,0.15231057,-0.110845596,,,,
3624,,,,,,,-2.4056854,27.860716,-67.18062,
3634,-0.56174004,1.0464647,9.593692,-0.12917362,0.2114327,-0.17582668,,,,
3644,,,,,,,-2.5587463,27.413837,-67.334015,
3654,-0.91627085,1.0392781,9.948223,-0.13982625,0.13899477,-0.17209826,,,,
3664,,,,,,,-3.3259563,27.0865,-68.74219,
3674,-0.94980764,1.0153234,9.806889,-0.128641,-0.020794762,-0.12842245,,,,
3684,,,,,,,-3.0195007,27.107384,-67.65146,
3694,-0.7246326,1.0416737,9.58411,-0.18456733,-0.11507058,-0.07143085,,,,
3704,,,,,,,-3.3272305,27.392899,-67.97194,
3714,-0.56413555,0.9290862,9.763771,-0.28896317,-0.08737373,-0.03414662,,,,
3724,,,,,,,-3.1756802,27.570438,-66.11305,
3734,-0.8180562,0.787753,10.070392,-0.31239897,0.0042389305,-0.022428725,,,,
3744,,,,,,,-3.4819794,28.560572,-68.60837,
3754,-0.94022566,0.893154,10.09195,-0.23676524,0.011695775,0.074510254,,,,
3764,,,,,,,-3.0215073,29.449715,-68.76198,
3774,-0.46352547,1.0991652,10.113511,-0.10094415,-0.071927406,0.23057136,,,,
3784,,,,,,,-3.17688,29.323133,-67.216736,772.0
3794,0.041920513,1.4704643,9.821261,0.048725374,-0.20828113,0.27211663,,,,
3804,,,,,,,-3.0164719,25.764488,-68.71918,
3814,0.11618033,1.8202043,9.457149,0.12329382,-0.32226434,0.20713556,,,,
3824,,,,,,,-2.7126064,27.556595,-67.49426,
3834,0.077852696,1.9783058,9.349353,0.064171694,-0.38085383,0.1357629,,,,
3844,,,,,,,-2.2499104,27.692478,-68.72244,
3854,0.077852696,2.02382,9.725443,7.8851543E-4,-0.30948117,0.10114184,,,,
3864,,,,,,,-4.0971603,27.680676,-67.68489,
3874,0.08743459,2.1531758,9.802098,0.024224313,-0.2077485,0.06705341,,,,
3884,,,,,,,-4.0937805,26.333149,-69.06209,
3894,-0.029943839,2.2561812,9.5362,0.043399055,-0.11613585,0.022312343,,,,
3904,,,,,,,-4.096758,27.385859,-67.68147,
3914,-0.04192123,2.3112772,9.574528,0.005582201,-0.022392657,0.019649185,,,,
3924,,,,,,,-3.635809,26.676662,-66.268906,
3934,0.06827077,2.2322264,9.9602,-0.017853595,0.032468412,0.0073986542,,,,832.0
3944,,,,,,,-2.5600185,27.720238,-66.56377,
3954,0.15211254,2.0813112,9.85959,0.051921163,0.054838944,-0.054386627,,,,
3964,,,,,,,-4.7142067,28.417648,-67.08972,
3974,-0.008384541,1.9615375,9.600878,0.09186855,0.05004526,-0.13747719,,,,
3984,,,,,,,-4.251627,28.265663,-67.850266,
3994,-0.35093796,2.0621474,9.847611,0.03221379,0.0037062988,-0.18008773,,,,
4004,,,,,,,-3.023018,29.180374,-67.05649,
4014,-0.35093796,2.0549612,10.379409,0.010375887,-0.07938425,-0.15452142,,,,
4024,,,,,,,-5.7907124,28.396675,-67.42578,
4034,0.11138937,1.9184189,10.894437,0.040735893,-0.2295864,-0.11990034,,,,
4044,,,,,,,-4.251316,27.537882,-67.22279,
4054,0.4132197,1.7459444,10.865691,0.11636961,-0.2210643,-0.13321613,,,,
4064,,,,,,,-3.7921429,28.878517,-66.7626,
4074,0.33656436,1.5255604,11.023792,0.17495911,-0.033577926,-0.1694351,,,,
4084,,,,,,,-3.6308098,25.018105,-68.725815,904.0
4094,0.025152147,1.108747,11.186685,0.21970017,0.13633162,-0.13055299,,,,
4104,,,,,,,-3.636715,28.714912,-67.99495,
4114,0.05868885,1.0704194,11.222617,0.2687023,0.21356322,-0.01816767,,,,
4124,,,,,,,-4.555208,25.890865,-68.60414,
4134,0.37249655,1.618984,11.083679,0.26603913,0.14645162,0.026573397,,,,
4144,,,,,,,-3.7877026,26.503757,-67.81833,
4154,0.600067,1.5351423,10.688425,0.17495911,0.05963263,-0.059180308,,,,
4164,,,,,,,-5.7870865,25.74331,-67.39496,
4174,0.3820784,0.9746003,10.721962,-0.022114651,-0.013870549,-0.18754458,,,,
4184,,,,,,,-2.2507248,27.413874,-67.63588,
4194,0.0059883296,0.35177588,11.500493,-0.18456733,-0.048491616,-0.18381615,,,,
4204,,,,,,,-4.556288,25.181616,-66.7388,
4214,0.14732155,-0.16085654,12.096967,-0.16539258,-0.10601584,-0.050658204,,,,
4224,,,,,,,-2.2529507,28.167133,-66.56131,
4234,0.8971064,-0.388427,11.737645,,,,,,,985.0
4244,,,,-0.026375704,-0.23651062,0.080369204,-3.7884636,25.934967,-66.418884,
4254,1.5175352,-0.30458525,10.48481,,,,,,,
4264,,,,0.12755488,-0.13850638,0.10859869,-3.4803238,26.222874,-67.188385,
4274,1.7451057,-0.2399073,9.490685,,,,,,,
4284,,,,0.19999279,0.20397584,0.07770605,-3.7875938,25.923386,-67.19255,
4294,1.7690606,-0.23272088,9.021172,,,,,,,
4304,,,,0.21490648,0.44259486,0.014322867,-4.095484,27.07946,-68.45172,
4314,1.6085635,-0.06503737,8.498958,,,,,,,
4324,,,,0.27669176,0.48094434,-0.07143085,-2.403471,26.239216,-67.16179,
4334,1.380993,0.06910941,7.5599303,,,,,,,
4344,,,,0.30225807,0.31636116,-0.17742456,-3.7877846,26.939035,-68.287674,
4354,0.9258522,0.35656685,6.886801,,,,,,,
4364,,,,0.15418647,0.102775805,-0.2871467,-2.4010906,26.496973,-69.64093,
4374,0.073061705,0.89794505,6.884405,,,,,,,
4384,,,,-0.1403589,-0.02345792,-0.37076986,-2.4032593,26.960047,-68.25348,1053.0
4394,-0.56174004,1.2740351,7.8402014,,,,,,,
4404,,,,-0.4892327,-0.070862144,-0.33028984,-3.0149975,25.310678,-69.48772,
4414,-0.516226,1.3458996,9.301443,,,,,,,
4424,,,,-0.7646033,-0.16620322,-0.19340353,-4.248808,26.201935,-67.82631,
4434,0.015570253,1.0871878,10.444087,,,,,,,
4444,,,,-0.7571465,-0.15235479,-0.079952955,-3.4809818,26.955286,-67.50641,
4454,0.5186207,0.90752685,10.580628,,,,,,,
4464,,,,-0.4604706,-0.081514776,-0.008580298,-3.0195942,26.67442,-67.027374,
4474,0.8659651,1.0776058,9.617647,,,,,,,
4484,,,,-0.12491258,-0.031447396,-0.022428725,-3.1693287,25.1702,-68.870865,
4494,0.5305981,1.3698543,8.673828,,,,,,,
4504,,,,0.06736749,0.09744949,-0.1428035,-6.7111273,27.479683,-68.67616,
4514,0.09222555,1.4417187,8.189941,,,,,,,
4524,,,,0.07056327,0.12780951,-0.22110038,-3.6353054,27.683048,-67.98297,
4534,0.16648537,1.2261256,7.847388,,,,,,,
4544,,,,-0.0013420116,0.08679685,-0.21524143,-4.2504997,27.816486,-68.30934,
4554,-0.08024889,1.1446793,8.2091055,,,,,,,
4564,,,,-0.0732473,0.10224317,-0.21896985,-2.4038734,26.534035,-67.16521,
4574,-0.35333344,1.3842272,8.542076,,,,,,,
4584,,,,-0.06365992,0.058034733,-0.15026036,-4.7125034,27.671337,-67.70009,
4594,-0.14492682,1.7627128,8.83193,,,,,,,
4604,,,,-0.05407256,-0.094297945,-0.009645563,-3.7895145,27.830439,-67.83374,
4614,0.49227053,2.0884976,9.574528,,,,,,,
4624,,,,-0.036495708,-0.24556535,0.089956574,-4.558695,27.818766,-67.85274,
4634,1.0935357,2.3232546,10.063206,,,,,,,
4644,,,,0.013039045,-0.29083908,0.036160767,-4.5586395,27.52858,-67.539856,
4654,1.2013321,2.2442038,10.681239,,,,,,,
4664,,,,0.027952734,-0.1843127,-0.13641194,-4.560398,28.565077,-67.24237,
4674,0.6527675,1.7579218,11.3376,,,,,,,
4684,,,,0.04819274,-0.088438995,-0.29886457,-4.098984,28.139118,-66.6069,
4694,-0.12815847,1.3770406,11.8478365,,,,,,,
4704,,,,0.1547191,-0.056481093,-0.31857195,-3.7864304,26.197357,-68.58858,
4714,-0.68870044,1.118329,12.43952,,,,,,,
4724,,,,0.31344336,-0.17792113,-0.19926247,-3.6345348,26.370264,-67.039154,
4734,-0.13055395,0.7925439,11.428628,,,,,,,
4744,,,,0.48921183,-0.38564754,-0.020830829,-4.5589886,27.533213,-67.23039,
4754,1.0528125,0.7087022,10.403364,,,,,,,
4764,,,,0.37842444,-0.4490307,0.07610814,-4.5589886,27.533213,-67.23039,
4774,1.6157498,0.48113173,11.375928,,,,,,,
4784,,,,-0.059398875,-0.2977633,-0.013373984,-5.0166874,25.73877,-68.45911,
4794,0.6503721,0.33261204,13.131814,,,,,,,
4804,,,,-0.37684742,0.033533674,-0.21151301,-5.0166874,25.73877,-68.45911,
4814,-0.8707568,0.5458096,14.034909,,,,,,,
4824,,,,-0.40614215,0.21090005,-0.3105825,-5.324791,26.174011,-68.62657,
4834,-1.1677961,0.028386295,14.219361,,,,,,,
4844,,,,-0.26073366,0.16828953,-0.19180563,-6.404893,25.911493,-65.400345,1125.0
4854,-0.5904858,-0.7860763,13.723496,,,,,,,
4864,,,,0.027952734,0.02501157,0.011127076,-4.0985165,28.422356,-67.38399,
4874,0.20720854,-1.3106862,12.221532,,,,,,,
4884,,,,0.36404335,-0.1709969,0.14961132,-7.481471,27.194038,-67.29915,
4894,0.2647,-1.3442229,9.8931265,,,,,,,
4904,,,,0.5206371,-0.24343483,0.13469765,-6.095564,26.328278,-67.40941,
4914,-0.34854248,-0.9130367,8.082145,,,,,,,
4924,,,,0.46151498,0.030337887,0.13203448,-6.5577316,27.053688,-67.738846,
4934,-0.41801137,-0.5082009,7.234145,,,,,,,
4944,,,,0.29373598,0.31636116,0.28010616,-5.017557,25.75035,-67.68544,
4954,0.2814684,-0.31177166,7.2053995,,,,,,,
4964,,,,0.058312744,0.2231506,0.40847036,-3.7866402,25.476526,-67.49689,
4974,0.9258522,-0.10096955,7.9671617,,,,,,,
4984,,,,-0.18723048,-0.10282005,0.32111877,-5.4794044,26.61622,-68.480774,
4994,0.9042927,0.2703296,8.690597,,,,,,,
5004,,,,-0.31452948,-0.22266218,0.051074456,-5.3256607,26.185593,-67.852905,
5014,-0.27188718,0.68235195,9.114595,,,,,,,
5024,,,,-0.33690003,-0.038904242,-0.23707932,-5.3251934,26.46883,-68.62999,
5034,-1.622937,0.7590072,9.344562,,,,,,,
5044,,,,-0.28363684,0.196519,-0.3238983,-4.556673,27.212915,-68.929016,
5054,-1.9343493,0.5314368,9.236765,,,,,,,
5064,,,,-0.179241,0.21090005,-0.13161825,-5.478718,25.738716,-68.0063,
5074,-1.2708018,0.34219396,8.872653,,,,,,,
5084,,,,-0.032767285,0.051643156,0.14375237,-5.9422207,26.192469,-66.78497,
5094,-0.04192123,0.33979848,8.041422,,,,,,,
5104,,,,0.0742917,-0.2210643,0.28756297,-5.4816303,27.36948,-67.406204,
5114,0.6431856,0.4595724,7.0904164,,,,,,,
5124,,,,0.06683486,-0.38298437,0.25720295,-5.9422207,26.192469,-66.78497,
5134,0.42519706,0.78296196,6.8436823,,,,,,,
5144,,,,0.047127478,-0.10282005,0.20340712,-4.2513695,27.828068,-67.535675,1207.0
5154,0.08264366,1.1854024,7.409015,,,,,,,
5164,,,,0.036474843,0.2417927,0.23536505,-4.094881,26.637232,-68.44658,
5174,0.2862593,1.288408,8.324088,,,,,,,
5184,,,,0.005582201,0.16189793,0.25880086,-3.4810371,27.245472,-67.81929,
5194,0.31500506,1.3267356,8.70976,,,,,,,
5204,,,,0.089205384,-0.03783898,0.21405976,-4.7094727,26.328444,-68.76782,
5214,0.28386384,1.618984,8.30732,,,,,,,
5224,,,,0.16750227,-0.11720111,0.15440501,-4.249815,26.93898,-67.83487,
5234,0.6910952,1.5447241,8.364812,,,,,,,
5244,,,,0.037007473,-0.08737373,0.097946055,-4.5552635,26.181053,-68.91704,
5254,0.96417975,1.2716396,9.854799,,,,,,,
5264,,,,-0.17977364,-0.05275267,-0.008047667,-3.326826,27.098082,-67.96852,
5274,0.43956995,1.3195492,11.488515,,,,,,,
5284,,,,-0.24155892,-0.066068456,-0.12788983,-5.325798,26.911057,-68.63513,
5294,0.03233859,1.3818316,12.202368,,,,,,,
5304,,,,-0.13609785,-0.09749374,-0.14919509,-5.326357,26.194859,-67.23398,
5314,-0.003593579,1.3458996,12.76291,,,,,,,
5324,,,,-0.008798856,-0.0032179141,-0.08314874,-5.7885494,27.065361,-67.71985,
5334,0.42519706,0.6607926,12.887475,,,,,,,
5344,,,,0.25006017,0.39891908,0.07610814,-3.4798203,27.229258,-68.90242,
5354,1.721151,-0.28302595,11.742435,,,,,,,
5364,,,,0.44447076,0.6279507,0.22258186,-5.480934,27.360214,-68.02513,
5374,2.276902,-0.0051504374,11.047747,,,,,,,
5384,,,,0.13554436,0.46443278,0.15387239,-3.7882423,27.52404,-68.60397,
5394,1.4169251,0.42364025,12.779677,,,,,,,
5404,,,,-0.48017794,0.19119269,-0.13694456,-3.7873726,27.512459,-69.37764,
5414,0.374892,-0.53215563,14.949982,,,,,,,
5424,,,,-0.7704623,-0.19549797,-0.42243513,-4.092911,26.321568,-69.835754,
5434,0.41082418,-1.991002,15.548851,,,,,,,
5444,,,,-0.5227885,-0.4660749,-0.4133804,-3.0209122,28.139246,-67.66344,
5454,0.88752437,-2.764742,13.81692,,,,,,,
5464,,,,0.07375907,-0.31054646,-0.05119084,-4.4013996,26.038294,-68.756805,
5474,1.5343037,-1.9718381,10.990256,,,,,,,
5484,,,,0.6229024,0.11555897,0.45800513,-3.4807262,26.517693,-67.1918,
5494,2.5499866,-0.6830708,8.201919,,,,,,,
5504,,,,0.8727067,0.44419274,0.7014178,-3.634243,26.655817,-67.661514,
5514,3.2949803,0.17930141,6.3837504,,,,,,,
5524,,,,0.7368856,0.45111698,0.5086052,-3.7870789,27.798012,-70.000015,
5534,3.512969,0.45717692,5.633966,,,,,,,
5544,,,,0.28148544,0.11396108,0.03349761,-4.555666,26.47587,-68.920456,
5554,2.0589135,0.7542163,6.436451,,,,,,,
5564,,,,-0.2894958,-0.19017164,-0.5305594,-4.8643456,27.208246,-68.936615,
5574,-0.31740126,0.9674139,8.355229,,,,,,,
5584,,,,-0.6026833,-0.1406369,-0.84641004,-3.016819,25.76912,-68.40971,
5594,-2.0397503,1.063233,9.672743,,,,,,,
5604,,,,-0.58084536,-5.5475545E-4,-0.7334921,-3.3231907,25.312958,-69.03111,
5614,-1.8864398,0.6967248,9.852403,,,,,,,
5624,,,,-0.42105585,-0.014403181,-0.32176775,-4.5570755,27.507734,-68.93245,
5644,-0.84440655,0.29907534,9.699093,-0.24155892,-0.10335268,0.039356563,-2.7102375,26.946114,-68.880005,
5664,0.17367181,0.15295115,9.102619,-0.05407256,-0.17845374,0.18156922,-4.402672,26.344694,-67.98656,
5684,0.70546806,0.124205425,8.66185,0.07908539,-0.1406369,0.094750255,-4.0960064,27.086409,-67.98752,
5704,0.35812366,0.3709397,7.9743485,0.23727702,0.063361056,-0.09380139,-4.095484,27.07946,-68.45172,
5724,-0.45633903,0.68235195,6.814936,0.30651912,0.16243057,-0.1662393,-4.400337,25.011063,-68.43535,
5744,-1.0671861,1.0536511,6.340632,0.18348122,0.16882215,-0.05278873,-3.632082,25.324503,-67.95558,
5764,-0.8252427,1.3243401,7.4521337,-0.010929383,0.11023265,0.17624292,-3.4780083,25.902576,-68.887024,
5784,0.104202926,1.3890182,8.431885,-0.067920975,-0.07831899,0.40154618,-3.4796276,26.213608,-67.80731,
5804,1.2228913,1.338713,8.51333,-0.09295467,-0.3686033,0.47877777,-4.4022064,26.62793,-68.76364,
5824,1.8600888,1.2692441,9.445172,-0.29375684,-0.57419914,0.37970826,-2.5543594,25.329264,-68.70265,
5844,2.0900548,1.1207244,11.701713,-0.4151969,-0.48471704,0.19914608,-3.7880497,26.508389,-67.50888,
5864,1.7427102,0.86680377,13.031203,-0.2628642,-0.21840113,0.012724971,-3.7868328,26.492176,-68.591995,
5884,0.68869966,0.56976444,12.992876,0.015702203,0.07720948,-0.0890077,-4.8643456,27.208246,-68.936615,
5904,-0.52101696,0.59851015,12.614389,0.24739702,0.166159,0.047878668,-3.4772472,26.471367,-70.28647,
5924,-0.25272334,0.8093122,12.161645,0.3928055,0.05057789,0.368523,-5.478718,25.738716,-68.0063,
5944,0.65995395,0.89794505,11.950843,0.3794897,-0.11507058,0.45853776,-5.4777107,25.00167,-67.99774,
5964,1.3474562,0.18409237,11.6561985,0.17975278,-0.2881759,0.23856083,-3.6336842,27.372015,-69.06268,
5984,1.0264621,-0.7669126,11.974797,-0.21759048,-0.40269175,-0.063974,-5.323784,25.436966,-68.61801,
6004,0.34854174,-2.0916123,13.083904,-0.46686217,-0.25195694,-0.21204562,-5.7858677,25.727097,-68.4781,
6024,-0.34135604,-2.9923124,12.961735,-0.18137154,0.1043737,-0.08261611,-5.01276,24.2392,-70.14404,
6044,-0.42280233,-2.5683126,10.963904,0.3693697,0.3190243,0.26465982,-5.0159264,26.30756,-69.85855,
6064,0.3772875,-1.4927425,8.314507,0.58188975,0.2556411,0.50061566,-3.0150623,24.732624,-68.7072,
6084,0.68869966,-0.16804296,6.951479,0.36404335,0.1879969,0.50753987,-2.2480965,26.365797,-68.70703,
6104,0.56413484,0.6967248,7.3443375,-0.07218204,0.08786211,0.36479458,-4.708603,26.316862,-69.54149,
6124,0.43956995,0.6104876,8.740901,-0.45834005,-0.09749374,0.1607966,-3.62994,25.006523,-69.49948,
6144,0.6048579,-0.24709377,9.981759,-0.5861717,-0.19816113,0.018051289,-3.7848644,26.17651,-69.98117,
6164,0.31500506,-0.4794552,10.343477,-0.44236112,-0.11560321,-0.04852768,-3.7848644,26.17651,-69.98117,
6184,-0.2503279,-0.33333102,9.85959,-0.13769573,0.10011265,0.018051289,-4.400997,25.743477,-68.75337,
6204,-0.180859,-0.2423028,8.611546,0.1430012,0.24711902,0.1677208,-4.400997,25.743477,-68.75337,
6224,0.13773966,0.04036367,7.4808793,0.20744964,0.2114327,0.25187665,-3.7814846,24.828983,-71.35837,
6244,0.6240218,0.15295115,7.2940326,0.09826013,0.064426325,0.2529419,-4.553734,25.437057,-69.37268,
6264,0.82524204,0.27272508,7.3922467,0.014104309,-0.015468445,0.16452502,-3.4765415,24.580528,-68.56213,
6284,0.8060781,0.36375326,7.222168,-0.0056030657,0.009032616,0.10273974,-3.3214512,25.289795,-70.578445,
6304,0.92106116,0.5649735,7.4449472,-0.07058414,-0.0064137047,0.100609206,-3.1676426,25.437222,-70.73108,
6324,1.2061231,0.9769957,8.285761,-0.13609785,-0.080449514,0.100609206,-2.0901966,24.143097,-69.60594,
6344,1.6157498,1.568679,9.275093,-0.18882838,-0.13158216,0.06385762,-1.4785137,26.082651,-68.684616,
6364,1.9822581,1.348295,10.369827,-0.2777779,-0.092167415,-0.07089822,-4.4001274,25.731895,-69.52704,
6384,1.3115242,0.9793912,12.094571,-0.36726004,-0.07565583,-0.27809194,-4.0909977,26.29609,-71.53783,
6404,0.33656436,0.727866,13.994185,-0.14781573,-0.08364531,-0.32016987,-4.859684,26.422558,-72.177475,
6424,0.03473407,0.80691683,13.287519,0.49453816,-0.0735253,-0.15984772,-4.708603,26.316862,-69.54149,
6444,0.655163,0.95543647,10.192561,1.06765,-0.010674759,0.008463917,-3.6301308,26.022171,-70.594604,
6464,1.1031175,1.2404984,7.0401115,0.96538466,0.28067482,-0.01497188,-5.4728584,23.200333,-70.14346,
6484,0.5114343,1.417764,7.516812,0.2873444,0.83780766,-0.14173825,-4.8555546,24.775581,-73.8607,
6504,-0.5377853,1.5375378,10.300358,-0.17497995,1.0711002,-0.1662393,-4.3982143,25.706415,-71.229095,
6524,-0.62402254,1.6525208,12.084989,-0.22504734,0.48254225,-0.15558667,-3.4722843,24.089657,-71.80641,
6544,0.08264366,0.9650184,12.058639,,,,-4.2417755,24.805765,-72.452896,
6554,,,,-0.16912101,-0.28391486,-0.28022248,,,,
6564,0.27907288,-0.21595255,11.996357,,,,-4.087446,24.946243,-73.06975,
6574,,,,-0.30867052,-0.4639444,-0.48475307,,,,
6584,0.19044018,-1.5646069,13.632469,,,,-4.3959885,24.953156,-72.30368,
6594,,,,-0.6490222,-0.30202433,-0.51617837,,,,
6604,0.37968302,-2.6785047,14.724807,,,,-5.011387,25.234003,-72.631775,
6614,,,,-0.6261191,-0.14809375,-0.32176775,,,,
6624,0.7964963,-2.6138265,13.347406,,,,-4.857277,23.785408,-71.06352,
6634,,,,-0.007200961,0.17201795,0.07078183,,,,
6644,1.8241565,-1.610121,10.374618,,,,-5.3196926,25.816654,-72.80095,
6654,,,,0.70226455,0.5736223,0.5011483,,,,
6664,3.1105285,-0.5992291,7.878529,,,,-3.3204079,25.275898,-71.506836,
6674,,,,0.9701783,0.5453928,0.62791467,,,,
6684,3.769285,0.20086074,6.2639766,,,,-5.6248913,23.75289,-72.4751,
6694,,,,0.7235698,0.042588413,0.27318192,,,,
6704,2.782348,0.5865328,6.1992984,,,,-4.700281,23.600958,-73.68848,
6714,,,,0.19946016,-0.32492748,-0.399532,,,,
6724,0.2647,0.7805666,6.9850154,,,,-3.0104027,23.946938,-71.94803,
6734,,,,-0.27138633,-0.29403484,-0.9428164,,,,
6744,-1.8265527,0.59851015,8.343252,,,,-4.085478,24.630579,-74.45892,
6754,,,,-0.63623905,-0.080449514,-1.0163196,,,,
6764,-2.8015125,0.4955046,10.674053,,,,-4.8537426,23.448898,-73.84529,
6774,,,,-0.8311823,0.0026410352,-0.7265679,,,,
6784,-2.518846,0.25835222,12.08978,,,,-5.0107727,25.660015,-73.72005,
6794,,,,-0.5329085,-0.042100035,-0.2855488,,,,
6804,-0.9881353,0.10504159,10.709985,,,,-5.010929,24.648998,-72.315445,
6814,,,,0.09985802,-0.21467271,0.11658817,,,,
6824,0.48029304,0.27991152,8.326484,,,,-4.240906,24.794184,-73.22656,
6834,,,,0.48601604,-0.306818,0.23429976,,,,
6844,0.82763755,0.67995644,6.7837954,,,,-4.8510513,22.978874,-75.69696,
6854,,,,0.4721676,-0.18644322,0.10806605,,,,
6864,0.2503271,1.1470747,5.9621463,,,,-5.9336987,26.078972,-74.3669,
6874,,,,0.2905402,0.11982002,-0.063441366,,,,
6884,-0.32937866,1.3411086,6.110666,,,,-7.0094156,23.731878,-72.50929,
6894,,,,0.051388532,0.32008958,-0.10232349,,,,
6904,-0.4491526,1.2764306,7.1790495,,,,-6.3946123,24.7615,-73.279755,
6914,,,,-0.17604521,0.15816951,-0.03095083,,,,
6924,-0.1688816,1.1806115,8.623523,,,,-6.0867558,25.632092,-74.52031,
6934,,,,-0.25380945,-0.12519057,0.07344499,,,,
6944,0.15929896,1.4153684,9.303839,,,,-6.0879745,25.648308,-73.437164,
6954,,,,-0.1542073,-0.34729803,0.19275449,,,,
6964,0.710259,1.7770857,9.5362,,,,-7.0095444,25.325584,-74.38493,
6974,,,,-0.06365992,-0.4202686,0.2827693,,,,
6984,1.2923603,1.4824418,9.902708,,,,-7.1629133,25.606485,-75.16582,
6994,,,,-0.115325205,-0.26900116,0.22204925,,,,
7004,1.1079085,0.6943293,11.203453,,,,-6.0873146,24.915894,-73.11914,
7014,,,,-0.25966844,-0.014403181,0.03349761,,,,
7024,0.33656436,-0.09378314,12.281419,,,,-6.6999674,24.436533,-74.98601,
7034,,,,-0.23037367,0.104906335,-0.076224536,,,,
7044,-0.83722013,0.22960648,11.977193,,,,-8.089894,26.3689,-72.56671,
7054,,,,-0.006668329,0.07561159,0.02124708,,,,
7064,-1.1893554,1.1159335,11.462165,,,,-7.6279545,25.935993,-72.39545,
7074,,,,0.11583698,0.057502102,0.38130617,,,,
7084,0.0083838105,1.1350974,11.507679,,,,-8.395542,25.75838,-73.650604,
7094,,,,0.08281381,0.06655685,0.7019505,,,,
7104,0.8132646,0.7614027,11.58673,,,,-6.706376,27.126957,-72.54108,
7114,,,,0.007180097,0.078807384,0.6556116,,,,
7124,0.99053,0.30865726,11.797532,,,,-8.24395,27.527308,-73.82208,
7134,,,,-0.1675231,-0.0064137047,0.34561986,,,,
7144,1.1079085,-0.3141671,13.21326,,,,-5.934101,26.373789,-74.370316,
7154,,,,-0.48656955,-0.2812517,0.040954456,,,,
7164,1.4648348,-1.4544148,14.542749,,,,-8.398225,27.096643,-72.892334,
7174,,,,-0.581378,-0.30522013,-0.09699717,,,,
7184,1.1462362,-2.4796798,13.6109085,,,,-7.6307745,27.99972,-72.41942,
7194,,,,-0.20640524,0.072948426,-0.11457402,,,,
7204,0.6647449,-2.4461432,10.48481,,,,-8.396485,27.07348,-74.43967,
7214,,,,0.22662438,0.45218223,0.041487087,,,,
7224,0.6264173,-1.7107311,7.931229,,,,-8.092366,28.427994,-72.90015,
7234,,,,0.29586652,0.67908335,0.2577356,,,,
7244,0.45873374,-1.0232288,7.5216026,,,,-9.939497,28.704063,-72.330246,
7254,,,,-0.036495708,0.64819074,0.2950198,,,,
7264,-0.23835048,-0.30458525,9.01159,,,,-8.090489,27.679367,-73.66525,
7274,,,,-0.44768745,0.2316727,0.113925,,,,
7284,-0.346147,-0.29500332,10.324313,,,,-8.707216,28.5568,-73.535995,
7294,,,,-0.5888348,-0.36594015,-0.06290874,,,,
7304,0.23595428,-0.7717035,10.669262,,,,-5.631996,29.202393,-72.847916,
7314,,,,-0.4402306,-0.601896,-0.10498665,,,,
7324,0.5976715,-1.0376016,9.81168,,,,-8.401329,29.743057,-73.38736,
7334,,,,-0.14195679,-0.3803212,-0.13055299,,,,
7344,0.14253059,-0.8267995,8.446258,,,,-9.480351,30.189789,-72.02649,
7354,,,,0.021028522,-0.017066339,-0.19500142,,,,
7364,-0.7677513,-0.6495341,8.062981,,,,-9.019832,29.920506,-70.7738,
7374,,,,0.06044327,0.29771903,-0.20032774,,,,
7384,-1.242056,-0.52976024,7.7587547,,,,-7.634556,29.642067,-71.04564,
7394,,,,0.18507911,0.26629376,-0.06290874,,,,
7404,-0.31500578,-0.6806754,6.1585755,,,,-9.327137,31.647684,-73.27768,
7414,,,,0.36031494,0.018087355,0.16718818,,,,
7424,0.3988468,-0.57766986,5.109356,,,,-9.788051,30.330214,-72.19054,
7434,,,,0.25591913,-0.10654847,0.24015872,,,,
7444,0.05868885,0.07390037,5.8423724,,,,-11.326842,30.746778,-72.38841,
7454,,,,-0.04288729,0.07667685,0.19861344,,,,
7464,-0.101808205,0.63923335,7.267682,,,,-8.246715,29.30085,-73.53316,
7474,,,,-0.26552737,0.31849167,0.24228925,,,,
7484,0.16648537,0.9362726,8.496562,,,,-9.325132,29.305353,-72.167145,
7494,,,,-0.36939058,0.20450848,0.25240928,,,,
7504,0.31500506,0.9650184,9.035544,,,,-7.7868547,29.763977,-72.598495,
7514,,,,-0.33263898,-0.16300742,0.12830606,,,,
7524,-0.034734815,0.90992236,9.713466,,,,-9.786833,30.314,-73.27367,
7534,,,,-0.2649947,-0.5129465,-0.019765563,,,,
7544,-0.22637309,0.7637982,10.53751,,,,-9.943324,31.504835,-72.36278,
7554,,,,-0.17977364,-0.64557177,-0.032016095,,,,
7564,0.24553618,0.6703745,10.674053,,,,-9.943324,31.504835,-72.36278,
7574,,,,-0.088160984,-0.5417086,0.085162885,,,,
7584,1.0360441,0.5649735,10.530324,,,,-10.561506,31.822742,-70.21512,
7594,,,,-0.113727316,-0.1944327,0.1623945,,,,
7604,1.1414452,0.5961147,11.184289,,,,-10.561506,31.822742,-70.21512,
7614,,,,-0.1808389,0.26043478,0.13523026,,,,
7624,0.33895987,0.7422389,12.202368,,,,-9.944807,31.090403,-70.50084,
7634,,,,-0.113727316,0.4766833,0.06332499,,,,
7644,0.029943138,0.6560017,12.394006,,,,-11.176412,32.241734,-71.16385,
7654,,,,0.05778011,0.24658638,0.051074456,,,,
7664,0.7222364,0.14336924,12.298187,,,,-10.406481,31.953957,-71.4509,
7674,,,,0.156317,-0.13264741,0.06758604,,,,
7684,1.1749818,-0.3357264,12.621577,,,,-11.175551,31.361912,-70.84412,
7694,,,,0.059910636,-0.3265254,-0.031483464,,,,
7704,0.5545529,-0.69983923,13.565394,,,,-10.716175,32.555138,-70.3822,
7714,,,,-0.07218204,-0.15874638,-0.15398878,,,,
7724,0.14013514,-1.6388667,14.363089,,,,-12.404857,30.456465,-71.01897,
7734,,,,-0.10094415,-0.057546355,-0.16570668,,,,
7744,0.6503721,-3.076154,14.334344,,,,-10.562258,32.122192,-69.90907,
7754,,,,-0.011462016,-0.25728327,-0.09220348,,,,
7764,1.3450608,-3.75647,13.081508,,,,-11.79333,31.385002,-68.693054,
7774,,,,0.17229596,-0.37392962,-0.005384508,,,,
7784,1.5295126,-3.2630014,11.126798,,,,-11.331786,32.115154,-69.61861,
7794,,,,0.40878442,-0.043165296,0.17517765,,,,
7804,1.9343486,-2.2569003,9.1337595,,,,-12.254481,32.241604,-70.10733,
7814,,,,0.63035923,0.4633675,0.52138835,,,,
7824,3.112924,-1.0783247,7.416202,,,,-11.331502,31.532465,-69.14755,
7834,,,,0.65059924,0.6210266,0.73390836,,,,
7844,4.119025,-0.03629166,6.7358856,,,,-12.408756,31.810942,-69.17758,
7854,,,,0.37043494,0.36323273,0.5267146,,,,
7864,3.8435452,0.5410187,7.2868457,,,,-11.788377,30.884867,-72.556244,
7874,,,,-0.064192556,-0.04955688,-0.02722241,,,,
7884,1.9487214,0.7973349,8.340857,,,,-11.483333,31.937614,-71.47749,
7894,,,,-0.39389163,-0.20561796,-0.60672575,,,,
7904,-0.15211326,0.63923335,9.392472,,,,-11.175596,32.520336,-72.25041,
7914,,,,-0.546757,-0.09642847,-0.85546476,,,,
7924,,,,,,,-11.331438,32.11052,-69.92807,
7934,-1.2037283,0.34458944,10.1901655,-0.49615693,0.04099052,-0.69727314,,,,
7944,,,,,,,-12.252458,31.635756,-71.18359,
7954,-0.901898,0.06910941,10.056019,-0.25221157,0.06495895,-0.3382793,,,,
7964,,,,,,,-11.638706,31.811033,-69.93225,
7974,0.24074522,0.09066872,9.423613,0.0119737815,-0.016533708,-0.04320136,,,,
7984,,,,,,,-12.866045,30.58992,-71.49628,
7994,1.0623944,0.2942844,8.721737,0.21277596,-0.035175823,-0.0069824033,,,,1285.0
8004,,,,,,,-13.332488,32.81953,-69.8313,
8014,0.9498069,0.6703745,7.60784,0.37469602,0.12567896,-0.14866245,,,,
8024,,,,,,,-12.254133,32.236973,-70.41678,
8034,0.6695359,0.8524308,6.400519,0.38960966,0.3259485,-0.2706351,,,,
8044,,,,,,,-11.791298,31.647392,-70.86275,
8054,0.2814684,0.74702984,5.885491,0.20531912,0.40051693,-0.31004986,,,,
8064,,,,,,,-12.556092,29.551146,-72.25037,
8074,-0.025152892,0.8524308,6.814936,-0.06951887,0.2891969,-0.26690668,,,,
8084,,,,,,,-12.405259,30.751282,-71.0224,
8094,0.044315994,1.0584421,9.009194,-0.22877575,-0.010674759,-0.19340353,,,,
8104,,,,,,,-12.250352,30.594627,-71.79056,
8114,0.044315994,0.9961597,10.056019,-0.082302034,-0.28284958,-0.17902248,,,,
8124,,,,,,,-12.7125845,30.741982,-71.33946,
8134,0.20720854,0.64402425,10.041646,-0.0082662245,-0.4692707,-0.18488142,,,,
8144,,,,,,,-13.173223,30.723396,-72.12453,
8154,0.47550213,-0.03868714,10.81299,-0.16858837,-0.27965382,-0.19180563,,,,
8164,,,,,,,-14.559889,31.020365,-70.61482,
8174,-0.053898618,-0.498619,12.465871,-0.19308944,0.1981169,-0.1428035,,,,
8184,,,,,,,-12.559938,30.615437,-70.096085,
8194,-0.65276825,-0.6375568,13.117441,0.14353384,0.4431275,0.043617614,,,,
8204,,,,,,,-13.171529,29.108845,-71.641495,
8214,-1.0791634,-0.19918418,11.732854,0.5563234,0.3690917,0.24388714,,,,
8224,,,,,,,-12.712236,30.737349,-71.64894,
8234,-1.2085192,0.59371924,10.1901655,0.62236977,0.18852952,0.40900302,,,,
8244,,,,,,,-13.172938,30.140709,-71.65349,
8254,-0.7054688,0.8524308,9.924268,0.344336,0.01329367,0.5357694,,,,
8264,,,,,,,-12.555534,30.267344,-73.651535,
8274,0.05629337,0.50269103,10.904018,-0.063127294,-0.11613585,0.5528136,,,,
8284,,,,,,,-12.861137,28.498398,-73.32912,
8294,0.6431856,-0.4842461,12.377238,-0.52491903,-0.31214434,0.3365651,,,,1198.0
8304,,,,,,,-11.63335,31.01608,-73.79202,
8314,0.6144399,-1.8161322,13.836083,-0.8642054,-0.46341175,-0.06077821,,,,
8324,,,,,,,-12.097084,31.762337,-72.728836,
8334,0.09462103,-2.565917,14.379858,-0.7219928,-0.23544535,-0.2605151,,,,
8344,,,,,,,-12.251698,32.204544,-72.58305,
8354,-0.5305989,-2.5515442,12.626368,-0.041289393,0.2923927,-0.02136346,,,,
8364,,,,,,,-12.097304,30.173264,-70.54375,
8374,-0.3916611,-2.0053751,9.691906,0.5403445,0.59332967,0.35627246,,,,
8384,,,,,,,-11.634357,31.753126,-73.80058,
8394,0.31260955,-1.3633868,7.097603,0.49933183,0.39359275,0.485702,,,,
8404,,,,,,,-11.786354,30.279016,-73.63254,
8414,0.3916604,-0.6495341,6.846078,-0.04501782,0.020750513,0.3195209,,,,
8424,,,,,,,-10.708687,30.573963,-74.69249,
8434,-0.13534491,0.112228036,8.879839,-0.59575903,-0.38831067,0.081434466,,,,
8444,,,,,,,-10.709437,30.873413,-74.386444,
8454,0.22397688,-0.3453084,10.451273,-0.7283843,-0.7041612,-0.023493987,,,,
8464,,,,,,,-9.786541,30.599552,-73.89603,
8474,0.5976715,-0.74774873,10.362639,-0.49455902,-0.66101813,-0.09007296,,,,
8484,,,,,,,-12.71046,31.437332,-74.133224,
8494,0.52820265,-0.67588437,8.927749,-0.15846837,-0.17525797,-0.08208348,,,,
8504,,,,,,,-11.787627,30.585417,-72.86229,
8514,0.38686943,-0.608811,7.691682,-0.032767285,0.35364535,-0.02722241,,,,
8524,,,,,,,-11.326338,31.753162,-74.10245,
8534,-0.1688816,-0.36207673,7.8042693,-0.16059889,0.48520538,-0.0623761,,,,
8544,,,,,,,-10.249431,31.479319,-73.762955,
8554,-0.56413555,-0.44831392,8.882235,-0.18456733,0.26842427,-0.083681375,,,,
8564,,,,,,,-9.32613,30.910639,-73.26912,
8574,-0.3677063,-0.61599743,9.593692,0.10039065,-0.017066339,-0.013906617,,,,
8584,,,,,,,-10.249019,32.052742,-74.85295,
8594,0.14732155,-0.43154564,8.848698,0.54620343,-0.21680324,0.057998672,,,,
8604,,,,,,,-9.32679,31.643051,-73.58714,
8614,0.5545529,0.05713202,7.1215577,0.7592561,-0.25834855,0.0484113,,,,
8624,,,,,,,-11.323591,30.992954,-75.64122,
8634,0.7725414,0.667979,7.3108006,0.5387466,-0.118799,-0.0027213492,,,,
8644,,,,,,,-10.400878,29.853168,-73.902664,
8654,0.65995395,0.9817867,8.901398,0.2537886,0.011163143,-0.064506635,,,,
8664,,,,,,,-9.786019,30.592604,-74.36023,
8674,0.36770558,1.0464647,9.63681,0.19786227,0.06762211,-0.18062037,,,,
8684,,,,,,,-11.16885,28.95704,-73.91139,
8694,-0.09222628,1.0776058,9.792516,0.18561174,-0.025055816,-0.31218037,,,,
8704,,,,,,,-10.398195,28.514904,-74.660934,
8714,-0.235955,0.5434141,10.408154,0.1515233,-0.06979688,-0.2605151,,,,
8724,,,,,,,-9.474299,29.385572,-76.50519,
8734,-0.116181076,0.09066872,10.978278,0.17016542,-0.0080116,-0.090605594,,,,
8744,,,,,,,-9.318101,27.909184,-76.79375,
8754,-0.35572892,0.39968544,11.076493,0.2031886,0.051110525,0.035095505,,,,
8764,,,,,,,-10.241549,28.335087,-76.97641,
8774,-0.57850844,0.9314817,11.138775,0.23088545,0.106504224,0.114990264,,,,
8784,,,,,,,-9.781542,28.94099,-76.35292,
8794,-0.33416963,0.9410635,11.1675205,0.21810228,0.13207056,0.16026396,,,,
8804,,,,,,,-9.008726,27.167542,-77.396515,
8814,0.027547628,0.957832,11.692131,0.26497388,0.1848011,0.22577767,,,,
8824,,,,,,,-9.776745,27.42984,-78.81154,
8834,0.99532104,0.70151573,11.725668,,,,,,,
8844,,,,0.33581388,0.0841337,0.22897346,-8.238191,26.437536,-77.67844,
8854,1.3019422,0.82368517,11.610684,,,,,,,
8864,,,,0.15684964,-0.08577583,-0.049592942,-8.087249,27.057304,-75.82468,
8874,0.7222364,0.227211,12.434729,,,,,,,
8884,,,,-0.21812312,0.05590421,-0.36810672,-9.46758,25.96737,-78.32262,
8894,0.6359992,-1.674799,13.857644,,,,,,,
8904,,,,-0.51000535,0.30943692,-0.45386043,-9.007454,26.861143,-78.16676,
8914,0.5976715,-3.2582104,14.679293,,,,,,,
8924,,,,-0.41945794,0.414898,-0.3862162,-7.1600113,25.857294,-78.10919,
8934,-0.1473223,-3.2558148,13.58935,,,,,,,
8944,,,,0.16377385,0.4346054,-0.121498235,-7.1600113,25.857294,-78.10919,
8954,0.104202926,-2.259296,10.995047,,,,,,,
8964,,,,0.8434119,0.31529588,0.39249143,-7.160533,25.864243,-77.64499,
8974,1.6588686,-1.0759294,7.854574,,,,,,,
8984,,,,1.1235763,0.07507896,0.76533365,-7.160533,25.864243,-77.64499,
8994,3.3213305,-0.18002033,5.5237737,,,,,,,
9004,,,,0.9142519,0.05643684,0.7578768,-7.771657,24.640888,-79.96748,
9014,3.489014,0.7134931,4.642237,,,,,,,
9024,,,,0.32409596,0.23060744,0.36745775,-5.9263744,24.968353,-79.615845,
9034,1.6109589,1.4656734,5.931005,,,,,,,
9044,,,,-0.40081584,0.46656328,-0.22429617,-4.079445,24.839695,-80.18747,
9054,-0.7390055,1.2908034,8.455839,,,,,,,
9064,,,,-0.8530202,0.47615066,-0.648271,-3.3124065,25.16935,-78.62456,
9074,-1.9511176,0.73265696,10.010505,,,,,,,
9084,,,,-0.85035706,0.12727687,-0.66584784,-5.3119736,26.292793,-80.389725,
9094,-1.6756376,0.2487703,9.799703,,,,,,,
9104,,,,-0.5217233,-0.25941378,-0.32656142,-3.6202164,25.890144,-79.41438,
9114,-0.49945763,0.15295115,8.83193,,,,,,,
9124,,,,-0.14408731,-0.3787233,0.097946055,-5.312092,26.004923,-79.922104,
9134,0.8012872,0.49071363,7.940811,,,,,,,
9144,,,,0.13607699,-0.2327822,0.3062051,-4.5439568,26.030495,-78.9747,
9154,1.4983715,0.8811766,7.0089703,,,,,,,
9164,,,,0.21543913,0.037794728,0.19808082,-3.4651356,25.73117,-80.33728,
9174,0.88752437,1.1877979,7.0281343,,,,,,,
9184,,,,0.14939278,0.2636306,-0.068235055,-4.080662,24.855907,-79.104355,
9194,0.0035928488,1.3674588,7.5192075,,,,,,,
9204,,,,0.05511695,0.1629632,-0.20192564,-3.311674,25.883232,-80.18045,
9214,-0.235955,1.4057864,7.9863253,,,,,,,
9224,,,,0.047127478,-0.0969611,-0.14386877,-3.6188068,24.85828,-79.402405,
9234,0.5473665,1.3291311,9.100223,,,,,,,
9244,,,,0.027952734,-0.37606016,-0.033081356,-3.3117294,26.173416,-80.49335,
9254,1.1270722,1.1973798,10.508765,,,,,,,
9264,,,,0.016767468,-0.5172075,-0.022961356,-3.7736778,25.738083,-79.57121,
9274,0.69828165,1.3147583,11.198662,,,,,,,
9284,,,,0.17602436,-0.5097507,-0.1241614,-4.851227,25.731007,-78.97888,
9294,0.07066625,1.4465095,11.201057,,,,,,,
9304,,,,0.35019493,-0.5491655,-0.22642669,-3.1559143,23.978512,-79.53548,
9314,-0.50664407,1.1806115,11.574752,,,,,,,
9324,,,,0.40292546,-0.5289254,-0.26530877,-6.0775013,23.482662,-80.22145,
9334,-1.0144855,0.65839714,12.255068,,,,,,,
9344,,,,0.47056973,-0.3281233,-0.17902248,-4.8477097,23.658012,-79.57385,
9354,-1.1630051,0.893154,11.668176,,,,,,,
9364,,,,0.5824224,-0.16407269,0.03030182,-5.0019207,23.805405,-79.42462,
9374,-0.6934914,1.7555263,10.822572,,,,,,,
9384,,,,0.5355508,-0.02931687,0.29075876,-5.770094,23.056686,-79.43506,
9394,0.12815776,2.0717294,10.882459,,,,,,,
9404,,,,0.24952756,0.05324105,0.3919588,-4.075123,22.177067,-80.77559,
9414,0.79410076,1.4273458,12.37005,,,,,,,
9424,,,,-0.16166416,0.031403154,0.23909345,-5.4595833,22.73411,-81.5903,
9434,0.8444058,0.45238596,13.677983,,,,,,,
9444,,,,-0.4221211,-0.0735253,-0.04266873,-3.769638,23.658142,-80.63039,
9454,0.6527675,-1.0040649,13.783383,,,,,,,1114.0
9464,,,,-0.3986853,-0.014935814,-0.2232309,-3.4631844,23.679024,-79.53966,
9474,-0.07545793,-2.1467083,12.918616,,,,,,,
9484,,,,-0.13876098,0.22528112,-0.20512143,-4.2338295,24.9894,-79.88353,
9494,-0.62162703,-2.2712731,10.884855,,,,,,,
9504,,,,0.2740286,0.4670959,0.09634815,-3.1550446,23.96693,-80.30914,
9514,-0.21439569,-1.5861663,8.312111,,,,,,,
9524,,,,0.4348834,0.4548454,0.40154618,-3.0001755,23.087128,-80.140335,
9534,0.03473407,-0.48185065,6.977829,,,,,,,
9544,,,,0.18401386,0.3680264,0.47717988,-2.9960995,21.730335,-82.13646,
9554,-0.14492682,0.48831815,7.706054,,,,,,,
9564,,,,-0.2628642,0.1848011,0.3615988,-2.3843632,23.379704,-80.90222,
9574,-0.13055395,0.5673689,9.009194,,,,,,,
9584,,,,-0.58776957,-0.15714848,0.1576008,-0.84537125,22.81573,-80.70265,
9594,0.40124232,-0.28302595,9.749398,,,,,,,
9604,,,,-0.6942959,-0.36221173,-0.00911293,-3.309166,24.547283,-80.78398,
9614,0.1880447,-0.5513195,10.300358,,,,,,,
9624,,,,-0.62984747,-0.18857376,-0.12096559,-2.0773888,23.393639,-80.275696,
9634,-0.5856949,-0.36926314,10.168607,,,,,,,
9644,,,,-0.39229372,0.14219056,-0.12096559,-0.99912643,22.378117,-80.23712,
9654,-0.9977172,-0.18002033,9.150528,,,,,,,
9664,,,,-0.11479258,0.2971864,0.0020723366,-0.84853935,24.884089,-80.417145,
9674,-0.681514,-0.15606555,8.091726,,,,,,,
9684,,,,0.060975906,0.23806429,0.1741124,-2.3846455,23.96239,-81.373276,
9694,0.09222555,-0.2087661,7.4305744,,,,,,,
9704,,,,0.09080328,0.03513157,0.26252928,-1.3077049,24.411694,-81.97075,
9714,0.57132125,-0.11294696,7.049693,,,,,,,
9724,,,,0.06896538,-0.09056952,0.23589766,-0.2327652,24.453516,-80.242096,
9734,0.59527606,0.08587776,6.963456,,,,,,,
9744,,,,0.06576959,-0.02931687,0.16399238,-2.0806656,26.042368,-80.61598,
9754,0.374892,0.5002955,7.0425067,,,,,,,
9764,,,,0.06310643,0.048447367,0.11232711,-0.23227882,23.72342,-79.76933,
9774,0.101807475,1.0967697,7.401829,,,,,,,
9784,,,,-0.01252728,0.058567367,0.064922884,0.07539368,23.728088,-79.761734,
9794,-0.19283639,1.4728599,8.051003,,,,,,,
9804,,,,-0.11639047,0.1310053,0.051074456,1.6149979,23.590128,-80.65042,
9814,-0.24553691,1.678871,9.057105,,,,,,,
9824,,,,-0.20853576,0.11662423,0.0904892,0.6923294,23.571487,-80.98268,
9834,0.18564922,1.6980348,10.120697,,,,,,,
9844,,,,-0.20800312,-0.050089512,0.13309973,-1.4621258,23.838255,-80.72983,
9854,0.7222364,1.6525208,10.79143,,,,,,,
9864,,,,-0.12757576,-0.28764328,0.08835868,1.4577026,25.3706,-79.74637,
9874,1.1103039,1.5063965,11.282504,,,,,,,
9884,,,,-0.035430446,-0.40642017,-0.063441366,1.9222412,24.034708,-80.80269,
9894,0.765355,1.2428938,11.270527,,,,,,,
9904,,,,0.06843275,-0.19283481,-0.23548144,1.4632053,21.968609,-80.48067,
9914,0.041920513,0.9722048,11.033374,,,,,,,
9924,,,,0.12222856,0.14698425,-0.26637405,0.23134232,23.557535,-81.45828,
9934,-0.626418,1.0680239,11.229804,,,,,,,
9944,,,,0.02582221,0.24818428,-0.18914248,1.3055134,24.91214,-80.67343,
9954,-0.80128795,0.94825006,12.235905,,,,,,,1192.0
9964,,,,-0.074845195,0.29186007,-0.03627715,2.3849926,23.880405,-81.71799,
9974,-0.37489277,0.5721599,13.397712,,,,,,,
9984,,,,-0.034365177,0.25191268,0.13469765,0.6927433,24.144909,-82.07268,
9994,0.209604,0.47634077,14.104378,,,,,,,
10004,,,,0.031148523,-0.025055816,0.14162184,1.3083878,22.558228,-80.33656,
10014,0.38926488,-0.08899215,14.401417,,,,,,,
10024,,,,0.010375887,-0.30841592,-0.08847506,2.0765057,23.597132,-80.63902,
10034,0.6240218,-1.6029346,14.882908,,,,,,,
10044,,,,0.016234836,-0.4271928,-0.29992983,2.3849926,23.880405,-81.71799,
10054,0.7318183,-3.1839507,13.941484,,,,,,,
10064,,,,0.2761591,-0.47672755,-0.36224777,0.69501305,22.233223,-81.74095,
10074,0.23116332,-3.5193176,11.517261,,,,,,,
10084,,,,0.6857529,-0.3547549,-0.22962248,1.4622517,22.41547,-80.17633,
10094,0.1880447,-2.3814652,8.566031,,,,,,,
10104,,,,0.93875307,-0.04689372,0.17624292,0.38843155,21.056232,-81.270645,
10114,1.5965861,-1.1597711,5.9932876,,,,,,,
10124,,,,0.77097404,0.2082369,0.5890326,0.3855915,21.383478,-79.1078,
10134,2.6362238,0.19846526,5.6315703,,,,,,,
10144,,,,0.18614438,0.27108744,0.6114031,2.3859005,21.842157,-79.99194,
10154,2.6841333,1.2261256,7.0353203,,,,,,,
10164,,,,-0.4274474,0.17201795,0.31259665,1.9273949,20.63735,-81.22752,
10174,1.9175804,1.3986,8.728924,,,,,,,
10184,,,,-0.7464938,0.0708179,-0.115639284,3.4668617,18.47504,-79.46178,
10194,0.60964894,1.1111425,9.905104,,,,,,,
10204,,,,-0.7198622,-0.0090768635,-0.46557832,3.4626331,21.57063,-79.49773,
10224,-0.24553691,0.7039112,9.876358,-0.4924285,-0.07459057,-0.53482044,2.2338486,20.658234,-80.13678,
10244,-0.7294235,0.5458096,8.915771,-0.24954839,0.007434721,-0.37130252,3.001152,21.418533,-79.35268,
10264,-0.5761129,0.4595724,8.297738,-0.113727316,0.17787689,-0.09113822,0.3847866,21.973114,-79.114655,
10284,0.154508,0.61288303,8.051003,-0.08017151,0.19545373,0.09901132,3.155016,21.275776,-79.19243,
10304,0.8491968,0.94585454,7.6964726,-0.052474663,0.16509373,0.10273974,4.2307167,21.886387,-78.86322,
10324,0.91147923,1.1327019,7.466507,0.03327905,0.21036743,-0.016569776,4.2307167,21.886387,-78.86322,
10344,0.6240218,1.1997752,7.1023936,0.120098025,0.12727687,-0.12842245,5.0002155,22.03852,-79.310135,
10364,0.5042479,1.2069616,6.7598405,0.07322644,-0.06553583,-0.16890246,5.0002155,22.03852,-79.310135,
10384,0.49706143,1.2093571,7.23175,-0.08603046,-0.098559,-0.14812984,4.2336254,20.255623,-79.46332,
10404,0.5210162,1.3123628,8.424698,-0.23143892,-0.10335268,-0.11297612,2.998314,21.74578,-77.189835,
10424,0.5593439,1.3746452,9.804494,-0.3294432,-0.17152955,-0.12096559,4.9979916,22.791779,-78.235565,
10444,0.7557731,1.0273008,11.833464,-0.35873792,-0.29669803,-0.16038036,3.465042,18.933481,-78.38377,
10464,0.6407901,0.6248604,13.41448,-0.21119891,-0.40109384,-0.26477614,4.38587,20.423897,-78.22337,
10484,0.020361215,0.15534665,13.424062,0.10944539,-0.2381085,-0.32336566,2.5403576,20.388931,-78.733154,
10504,-0.82045174,0.11941446,12.403588,0.38268548,0.05590421,-0.18541406,3.6185017,19.08554,-78.22696,
10524,-1.2492424,0.73505247,11.965215,0.4130455,0.2332706,0.13682817,4.234688,19.22839,-79.14186,
10544,-0.95459855,1.3602724,12.477848,0.38747916,0.23486848,0.4686578,5.7707977,20.15009,-78.185745,
10564,0.14013514,1.5878428,12.156854,0.44234022,0.089460015,0.59968513,3.7727146,18.93815,-78.376175,
10584,1.5295126,0.86680377,11.074097,0.3464665,-0.013337918,0.3520114,5.312952,18.21287,-79.10329,
10604,1.5127444,-0.16564748,11.550797,-0.08123677,-0.07831899,-0.17689195,3.7719631,19.2376,-78.070145,
10624,0.8947109,-1.7059401,13.606118,-0.47378638,-0.33824328,-0.5843552,5.6186543,18.533203,-77.70651,
10644,-0.27907363,-2.6737137,13.915134,-0.32571477,-0.646637,-0.75266683,4.5437145,18.491383,-79.43518,
10664,-1.5199316,-2.735996,11.296877,0.2351465,-0.30948117,-0.496471,3.620535,19.34793,-80.39665,
10684,-1.3905756,-2.084426,8.20671,0.57123715,0.4180938,0.18529764,4.2348824,18.212742,-78.04675,
10704,-0.40363848,-0.92501414,6.4795694,0.40239286,0.7877403,0.73444104,5.9275436,18.521658,-78.78206,
10724,0.17846277,0.45478147,6.8341002,-0.05886624,0.55977386,0.8159337,4.698292,17.326027,-78.64401,
10744,0.7006771,1.063233,8.23306,-0.510538,-0.15288743,0.5171273,6.390465,17.4968,-78.75867,
10764,1.1749818,0.35417137,9.172088,-0.73850435,-0.668475,0.053204987,6.0809956,17.805477,-77.531815,
10784,0.9066882,-0.4578959,9.761374,-0.7070791,-0.50389177,-0.2855488,5.002468,18.390354,-76.791595,
10804,-0.20960474,-0.6423477,9.703884,-0.5094727,0.09478633,-0.35212776,8.08003,18.570557,-77.64572,
10824,-1.0432312,-0.8172176,9.140945,-0.26659262,0.65777814,-0.19020773,6.539978,20.161762,-78.16675,
10844,-1.352248,-0.8315904,8.434279,-0.11798836,0.76856554,0.02391024,5.4630337,19.712458,-77.569275,
10864,-0.9713669,-0.71181655,8.364812,-0.041822027,0.4702917,0.24228925,6.8493156,18.696972,-77.832565,
10884,-0.28626004,-0.3141671,8.324088,0.10358644,-0.04103477,0.38130617,6.080538,18.390482,-77.84813,
10904,0.42998803,0.15295115,7.53358,0.35924968,-0.34783065,0.42817777,6.8473015,20.171062,-77.849686,1107.0
10924,0.88033795,0.7206795,6.378959,0.45246023,-0.31534013,0.41486198,7.771755,19.008114,-77.65846,
10944,1.1749818,1.1327019,6.5202928,0.20744964,-0.10974426,0.33603248,7.156641,18.706274,-77.51549,
10964,0.78451884,1.5495151,8.1564045,-0.13023888,0.048979998,0.17038396,6.388338,19.551262,-79.401566,
10984,0.29344577,1.7195941,9.790121,-0.17604521,0.06123053,0.0484113,6.694746,17.980755,-76.28047,
11004,0.2000221,1.6644982,10.024878,-0.033832546,-0.15288743,0.016986027,9.159393,17.250952,-78.22264,
11024,0.37968302,1.5878428,9.699093,-0.029571494,-0.27699062,0.014855499,7.6180286,18.42541,-77.03647,
11044,0.710259,1.3746452,11.1148205,-0.25221157,-0.19230218,-0.0048518754,8.232155,18.450962,-75.93814,
11064,0.71984094,0.9961597,13.124627,-0.26659262,-0.027718974,-0.053853996,7.157858,18.69006,-78.59863,
11084,0.47550213,0.7949394,13.364175,0.07855275,0.009565247,-0.08954033,7.772974,18.991901,-78.74159,
11104,0.47789764,0.62965137,11.775972,0.3794897,-0.022392657,-0.09806243,6.850523,17.81252,-77.822296,
11124,0.34135532,0.7566117,10.578233,0.3395423,0.088394746,-0.07675716,8.077652,18.3128,-75.166565,
11144,0.15690348,1.1877979,11.131589,,,,8.235304,17.395935,-77.473495,
11154,,,,0.023159048,0.1443211,-0.008580298,,,,
11164,0.36770558,1.0680239,12.803633,,,,9.155722,18.312927,-76.2231,
11174,,,,-0.28683263,0.03832736,0.0063333907,,,,
11184,1.2324734,-0.5896472,14.480468,,,,9.002764,19.167252,-78.09398,
11194,,,,-0.3816411,-0.12678847,-0.15558667,,,,
11204,1.840925,-2.7096457,14.973937,,,,10.079515,17.882391,-76.349915,
11214,,,,-0.25594002,-0.28391486,-0.43841413,,,,
11224,1.2468462,-3.75647,14.030118,,,,7.92885,17.375053,-78.564224,
11234,,,,0.052453794,-0.18324743,-0.5747678,,,,
11244,0.029943138,-3.2366512,12.319746,,,,8.850311,18.278147,-78.24223,
11254,,,,0.38694653,0.055371575,-0.33508354,,,,1030.0
11264,-0.02036193,-2.2018044,10.78664,,,,7.6155224,19.761356,-76.43295,
11274,,,,0.7011993,0.26096743,0.2279082,,,,
11284,1.1390496,-1.2388219,8.896607,,,,8.234297,18.13298,-77.482056,
11294,,,,0.9680478,0.2183569,0.6449589,,,,
11304,2.4158397,-0.29021236,6.740677,,,,8.691853,19.784647,-75.942154,
11314,,,,1.0181153,0.07614422,0.70408106,,,,
11324,2.5787323,0.4499905,5.665107,,,,11.005827,16.98415,-78.17363,
11334,,,,0.69853616,-0.018664235,0.41912302,,,,
11344,1.26601,1.1207244,6.366982,,,,9.312157,17.412277,-77.4469,
11354,,,,0.19253597,-0.018664235,0.001007073,,,,
11364,0.21679044,1.1446793,7.0999985,,,,8.388756,16.679754,-76.22327,
11374,,,,-0.12437994,0.05643684,-0.24613407,,,,
11384,-0.7677513,0.9626229,7.428179,,,,8.851309,16.672861,-77.140274,
11394,,,,-0.37365162,0.2082369,-0.32016987,,,,
11404,-1.1366549,0.36135778,8.66185,,,,9.155603,18.025057,-75.75548,
11414,,,,-0.4753843,0.32807904,-0.19020773,,,,
11424,-0.626418,0.035572723,9.0810585,,,,9.006241,16.371113,-77.75198,
11434,,,,-0.33050847,0.17255057,0.022312343,,,,
11444,0.29584128,0.093064204,8.865466,,,,11.31209,18.020681,-78.17801,
11454,,,,-0.09242204,-0.030914765,0.16825344,,,,
11464,0.65995395,0.61288303,8.240247,,,,9.001802,18.74587,-76.69623,
11474,,,,0.15365383,-0.10441794,0.1693187,,,,
11484,0.68869966,1.2021707,7.4425516,,,,9.15344,19.356373,-75.461426,
11494,,,,0.2708328,-0.048491616,0.097946055,,,,
11504,0.434779,1.6141931,7.071253,,,,11.772875,18.182045,-77.70413,938.0
11514,,,,0.19892754,0.1528432,0.07717341,,,,
11524,0.59048504,1.7962494,7.871342,,,,10.388891,17.14075,-76.95268,
11534,,,,0.03967063,0.13366845,0.124577634,,,,
11544,1.0839536,1.8705093,8.882235,,,,10.232733,19.340286,-77.60109,
11554,,,,-0.06845361,-0.1725948,0.14854605,,,,
11564,1.4241116,1.9950742,9.449963,,,,11.771658,18.198257,-76.621,
11574,,,,-0.01305991,-0.3046875,0.094750255,,,,
11584,1.3594338,2.035797,9.744607,,,,10.388353,18.161034,-77.73833,
11594,,,,0.092401184,-0.24130431,-0.024026617,,,,
11604,1.1845638,1.7243851,9.878754,,,,11.311644,16.724112,-76.15108,843.0
11614,,,,0.064171694,-0.18484534,-0.16251089,,,,
11624,0.82524204,1.2452893,10.731544,,,,11.770502,18.792526,-76.31839,
11634,,,,-0.059398875,-0.0751232,-0.25465617,,,,
11644,0.3557282,0.63923335,11.934073,,,,9.6188965,16.850473,-75.88512,
11654,,,,-0.07218204,-0.0634053,-0.29300565,,,,784.0
11664,-0.4898757,0.43082666,12.604808,,,,8.848745,18.298994,-76.84964,
11674,,,,0.056182217,-0.1944327,-0.24773198,,,,
11684,-1.1390504,1.1398883,12.504198,,,,9.005096,17.833622,-78.54277,
11694,,,,0.27828965,-0.22639062,0.028171293,,,,
11704,-0.48748025,1.7555263,11.421442,,,,10.541155,19.045506,-77.899536,725.0
11714,,,,0.42902443,-0.14809375,0.40474194,,,,
11724,0.17606732,2.294509,11.268131,,,,10.38957,18.14482,-78.82146,
11734,,,,0.31344336,-0.019729499,0.55654204,,,,
11744,0.9689708,1.8729048,11.828672,,,,11.31209,18.020681,-78.17801,
11754,,,,0.10411908,0.037794728,0.47132093,,,,675.0
11764,1.6349138,0.9674139,12.235905,,,,12.387789,18.631292,-77.848816,
11774,,,,-0.16379468,-0.118266374,0.10220711,,,,
11784,1.1438407,-0.10096955,13.031203,,,,11.768972,19.53652,-75.86273,
11794,,,,-0.4205232,-0.1459632,-0.35372564,,,,
11804,0.21199948,-1.2939179,13.215654,,,,10.543779,17.997427,-78.97067,608.0
11814,,,,-0.4072074,0.12727687,-0.567311,,,,
11824,-1.0072991,-1.8424824,11.9268875,,,,9.154659,19.340158,-76.544556,
11834,,,,-0.09561783,0.5741549,-0.51085204,,,,
11844,-1.6756376,-1.7730137,9.962595,,,,10.077993,19.494625,-76.98767,
11854,,,,0.24420123,0.8788203,-0.1561193,,,,543.0
11864,-1.4408808,-1.1597711,8.089332,,,,11.464994,17.456543,-76.62004,
11874,,,,0.37789178,0.7962624,0.2827693,,,,
11884,-0.96897143,0.04515463,7.241332,,,,13.309671,18.226236,-76.273544,
11894,,,,0.20478648,0.37228748,0.5405631,,,,
11904,-0.21679117,1.0249053,7.603049,,,,12.69486,19.07819,-77.846344,500.0
11914,,,,-0.15953363,-0.24290219,0.52458405,,,,
11924,0.5976715,1.0967697,8.666641,,,,11.614626,20.409376,-76.49574,
11934,,,,-0.4785801,-0.753696,0.29715034,,,,
11944,1.2588236,0.5218549,9.617647,,,,11.310682,19.052546,-78.19,
11954,,,,-0.546757,-0.7446413,0.0366934,,,,
11964,1.1079085,0.20565169,9.754189,,,,12.540899,18.787985,-77.38251,444.0
11974,,,,-0.36033583,-0.26420748,-0.18594667,,,,
11984,0.24074522,0.13857828,9.025963,,,,13.004286,18.046362,-78.136215,
11994,,,,-0.13077152,0.31689376,-0.33028984,,,,
12004,-0.72702813,0.10743706,8.194733,,,,12.691774,20.71127,-77.09152,
12014,,,,0.0023864107,0.68867075,-0.3510625,,,,383.0
12024,-1.1007228,0.03796819,7.7300096,,,,11.615732,20.973532,-78.20465,
12034,,,,0.090270646,0.70571494,-0.22802459,,,,
12044,-0.8252427,0.1601376,7.4305744,,,,13.460817,21.448406,-77.85475,
12054,,,,0.16643701,0.39252746,-0.075159274,,,,
12064,-0.34135604,0.2679341,7.2293544,,,,12.5378895,21.867363,-78.5016,340.0
12074,,,,0.20798229,-0.027718974,0.005268127,,,,
12084,-0.25990978,0.7039112,7.303614,,,,14.38352,22.190195,-78.45943,
12094,,,,0.18774228,-0.27539277,0.057998672,,,,
12104,-0.24314144,1.3147583,7.4545293,,,,12.690886,21.736183,-77.5677,
12114,,,,0.10997802,-0.23651062,0.13469765,,,,305.0
12124,-0.15690422,1.8106223,7.854574,,,,13.772993,19.656372,-79.683395,
12134,,,,-0.0279736,-0.042632665,0.18742818,,,,
12144,0.03712955,1.9735149,8.8894205,,,,14.844122,21.485634,-76.73741,
12154,,,,-0.21066628,0.045784205,0.17890607,,,,
12164,0.30781865,1.5998201,10.614166,,,,12.539392,21.26846,-79.11369,270.0
12174,,,,-0.33849794,-0.05222004,0.083565,,,,
12184,0.25990906,1.1710294,12.1856,,,,14.080004,20.393456,-79.99382,
12194,,,,-0.29748526,-0.2610117,-0.038407672,,,,
12204,0.24074522,0.9338771,13.172537,,,,13.458658,22.77972,-77.560684,
12214,,,,-0.051409397,-0.3803212,-0.04906031,,,,229.0
12224,0.5305981,0.8332671,13.203678,,,,13.612463,22.927149,-77.71332,
12234,,,,0.3794897,-0.27858853,0.040421825,,,,
12244,0.49227053,1.113538,11.7352495,,,,13.001532,20.688145,-78.940704,
12254,,,,0.7438098,-0.09536321,0.06066183,,,,
12264,0.08983007,1.5806564,10.400968,,,,12.53974,21.263828,-79.42316,200.0
12274,,,,0.74700564,0.063361056,0.08676079,,,,
12284,0.41082418,1.4704643,10.374618,,,,12.3851795,21.415852,-78.96446,
12294,,,,0.47270024,0.11023265,0.1863629,,,,
12304,1.0144848,1.3315266,11.361555,,,,14.999968,21.89545,-79.05975,
12314,,,,0.156317,0.003173667,0.18476503,,,,186.0
12324,1.3905749,1.113538,12.6335535,,,,13.9247875,21.27789,-79.853165,
12334,,,,-0.1504789,-0.18218218,0.008996549,,,,
12344,1.5558629,-0.03868714,13.979813,,,,14.077375,21.441532,-78.92267,
12354,,,,-0.3432916,-0.29882854,-0.2573193,,,,
12364,1.7546877,-1.7418724,14.252897,,,,13.000872,21.420557,-79.25873,162.0
12374,,,,-0.21759048,-0.28231695,-0.43788147,,,,
12384,1.1630045,-2.2113864,12.583249,,,,12.84701,21.563314,-79.41899,
12394,,,,0.17868753,-0.12146217,-0.41710883,,,,
12404,0.8491968,-1.5646069,10.094347,,,,11.615698,23.000198,-80.70436,
12414,,,,0.5344855,0.12141792,-0.077822424,,,,136.0
12424,1.8121791,-0.7333758,8.046212,,,,11.76956,22.85744,-80.54411,
12434,,,,0.607456,0.25883693,0.2561377,,,,
12444,2.6697605,0.10743706,6.8341002,,,,13.462538,22.438576,-80.65193,
12454,,,,0.44393814,0.2902622,0.24708293,,,,
12464,2.8542123,0.77817106,6.2783494,,,,12.695078,20.667261,-80.03143,123.0
12474,,,,0.13288121,0.24765165,-0.044266626,,,,
12484,1.7259419,1.6094022,6.4532194,,,,15.156664,21.425446,-81.06235,
12494,,,,-0.28363684,0.18959479,-0.46824148,,,,
12504,-0.1688816,1.7962494,7.8090606,,,,13.770517,21.715466,-80.01683,
12514,,,,-0.64103276,0.23273796,-0.7942121,,,,111.0
12524,,,,,,,13.614241,23.627132,-80.19763,
12534,-1.4863948,1.2237301,9.157715,-0.753418,0.21729164,-0.80646265,,,,
12544,,,,,,,13.307573,22.885418,-80.19667,
12554,-1.6971968,0.6488152,9.730234,-0.61812955,0.112363175,-0.54174465,,,,
12564,,,,,,,12.229658,23.896307,-80.54469,92.0
12574,-1.0839543,0.3158437,9.835635,-0.3076053,0.0356642,-0.19287089,,,,
12584,,,,,,,13.767996,24.064747,-80.66316,
12594,0.015570253,0.41645378,8.968472,0.036474843,-0.05381793,0.038291298,,,,
12604,,,,,,,14.69055,24.663757,-80.95668,
12614,0.6336037,0.81170774,7.643772,0.19573174,-0.07618846,0.032432348,,,,78.0
12624,,,,,,,13.459158,23.786106,-79.274734,
12634,0.434779,1.2213346,6.886801,0.15525174,0.10011265,-0.08048559,,,,
12644,,,,,,,12.998465,24.057705,-80.37268,
12654,0.21918592,1.3602724,7.387456,0.0119737815,0.24072744,-0.12682456,,,,
12664,,,,,,,14.074308,24.811092,-80.354645,72.0
12674,0.06587529,1.3195492,8.113286,-0.06365992,0.20237795,-0.13055299,,,,
12684,,,,,,,13.307783,23.60625,-81.288345,
12694,-0.111390114,1.2860125,8.642687,-0.06898624,0.032468412,-0.13694456,,,,
12704,,,,,,,12.846899,24.893501,-83.48143,
12714,-0.4898757,1.1398883,9.306233,-0.056203082,-0.1321148,-0.10232349,,,,66.0
12724,,,,,,,15.308466,23.915203,-82.325516,
12734,-0.65516376,1.1973798,10.147047,-0.015190437,-0.2061506,0.014855499,,,,
12744,,,,,,,13.30456,25.964794,-81.315735,
12754,-0.22397761,1.0009506,10.906414,-0.0029399067,-0.24396746,0.134165,,,,
12764,,,,,,,12.5379505,25.19523,-82.71878,61.0
12774,0.06347981,0.7733801,11.546007,0.052986424,-0.18804112,0.16718818,,,,
12784,,,,,,,12.077135,24.310722,-82.25571,
12794,-0.07545793,0.9266907,11.574752,0.1882749,-0.04689372,0.20926608,,,,
12804,,,,,,,13.308287,24.612635,-83.00241,
12814,0.0107792765,1.2860125,11.68734,0.31983492,0.10171054,0.3365651,,,,
12824,,,,,,,12.845976,25.195267,-83.020645,
12834,0.43717444,1.4560915,11.950843,0.4082518,0.107569486,0.4004809,,,,
12844,,,,,,,14.694689,23.88502,-83.73332,
12854,0.6791178,1.6549163,11.651408,0.435416,0.009032616,0.3094009,,,,
12864,,,,,,,15.769785,24.937859,-83.40924,57.0
12874,0.6455811,1.2189391,11.241781,0.30119282,-0.020794762,0.0819671,,,,
12884,,,,,,,13.618845,23.13163,-83.75136,
12894,0.154508,-0.079410255,11.581939,-0.034897815,-0.018664235,-0.23122038,,,,
12904,,,,,,,14.386076,25.19545,-84.52998,
12914,-0.5689265,-1.9814202,12.786865,-0.33743265,0.05004526,-0.4181741,,,,
12924,,,,,,,12.3883915,23.688694,-84.716995,
12934,-1.9654905,-2.33116,13.249192,-0.27511474,0.18267058,-0.322833,,,,
12944,,,,,,,14.541174,24.023144,-84.20302,
12954,-2.4517727,-1.5717933,12.123317,0.176557,0.277479,0.19808082,,,,
12964,,,,,,,13.618341,24.875061,-85.47395,
12974,-1.2875701,-0.24948928,9.814075,0.61224973,0.18906216,0.79516107,,,,
12984,,,,,,,13.925158,23.87798,-83.44284,
12994,0.324587,0.9793912,8.005489,0.6260982,-0.048491616,0.9911695,,,,
13004,,,,,,,12.847315,25.466923,-84.57141,
13014,2.3200204,1.3027809,7.916857,0.18880753,-0.3350475,0.7280494,,,,52.0
13024,,,,,,,14.387228,24.601181,-84.83261,
13034,2.5260317,0.787753,9.181669,-0.3704558,-0.4208012,0.061194465,,,,
13044,,,,,,,13.92808,23.115454,-85.13634,
13054,0.9474114,-0.16804296,11.016605,-0.6644686,-0.23171693,-0.5231026,,,,
13064,,,,,,,13.619749,23.843197,-85.461975,
13074,-0.7941015,-0.5968336,11.534029,-0.5547464,-0.010674759,-0.65572786,,,,
13084,,,,,,,13.619749,23.843197,-85.461975,
13094,-1.9175808,-0.41477725,11.007024,-0.2026768,0.307839,-0.3377467,,,,
13104,,,,,,,14.38648,24.900633,-84.526566,
13114,-1.5103496,0.033177227,9.581714,0.118500136,0.5027823,0.14961132,,,,
13124,,,,,,,14.388182,24.154322,-85.13693,
13134,-0.5809039,0.47634077,8.199524,0.18188332,0.36323273,0.4068725,,,,
13144,,,,,,,15.924501,25.796852,-85.27251,
13154,0.16648537,0.65839714,7.9671617,0.060975906,0.16562636,0.4239167,,,,
13164,,,,,,,13.463434,25.031717,-84.705795,
13174,0.4874795,0.85722184,7.9839296,0.014104309,0.06815474,0.32378194,,,,
13184,,,,,,,14.076551,25.794315,-83.61603,
13194,0.1880447,1.0392781,7.7156363,0.09932539,0.106504224,0.19009133,,,,
13204,,,,,,,13.925261,25.179182,-85.16031,
13214,-0.21200022,1.1806115,7.1838403,0.156317,0.17947479,0.10114184,,,,
13224,,,,,,,15.002115,25.195522,-85.13371,
13234,-0.3245877,1.3363175,6.740677,0.06949801,0.1981169,0.11552289,,,,
13244,,,,,,,13.925318,24.888996,-84.84743,
13254,-0.10899465,1.5614926,7.246123,-0.20214418,0.14538635,0.12511027,,,,
13264,,,,,,,14.08156,25.003994,-87.16635,
13274,-0.13534491,1.504001,9.457149,-0.43330637,0.12354844,0.028171293,,,,
13284,,,,,,,13.773424,24.71609,-86.39685,
13294,-0.47789833,1.4153684,10.908809,-0.32358423,0.015956828,-0.11723717,,,,
13304,,,,,,,14.541098,25.326664,-85.76576,
13314,-0.91387546,1.2860125,10.750708,-0.041822027,-0.18697587,-0.17635931,,,,59.0
13324,,,,,,,14.848303,25.048096,-84.98108,
13334,-1.2564288,1.5351423,10.029669,0.15684964,-0.31906855,-0.06610453,,,,
13344,,,,,,,14.848093,24.327265,-83.88937,
13354,-0.3701018,1.1614476,10.293171,0.217037,-0.3046875,0.19328713,,,,
13364,,,,,,,14.079336,25.757256,-86.09177,
13374,0.66714036,0.5745554,10.453669,0.2628433,-0.3132096,0.2795735,,,,
13384,,,,,,,14.5404415,26.059076,-86.0838,
13394,0.4204061,1.6309614,9.953013,0.34327072,-0.25408748,0.12777342,,,,
13404,,,,,,,13.466024,26.010307,-88.27664,
13414,0.29105026,2.3927233,9.488291,0.27456126,-0.16673586,0.016986027,,,,
13424,,,,,,,13.313696,23.527496,-86.549286,
13434,0.72702736,1.9399781,9.323003,,,,,,,
13444,,,,0.015169572,-0.14702848,0.008463917,13.312197,24.126398,-85.937195,
13454,1.7355238,1.0584421,10.396177,,,,,,,
13464,,,,-0.32731265,-0.20029165,-0.01177609,13.462721,26.054316,-85.33673,
13474,1.0935357,2.1723394,12.326933,,,,,,,
13484,,,,-0.4386327,-0.123060055,-0.17529404,12.389421,24.68813,-86.89525,
13494,0.051502436,2.4502149,13.452807,,,,,,,
13504,,,,-0.2127968,0.020217882,-0.19713195,12.0809765,25.996243,-87.84665,
13514,1.0815581,0.31105274,12.36526,,,,,,,64.0
13524,,,,0.12702225,0.030337887,-0.13055299,13.617865,26.473398,-87.040115,
13534,1.0096939,-0.5105964,11.318436,,,,,,,
13544,,,,0.16537173,-0.057013724,-0.29194036,12.390928,24.957468,-88.60072,
13554,0.49227053,-0.92022324,11.107634,,,,,,,
13564,,,,-0.025843073,-0.029849501,-0.4213699,12.692652,27.067558,-85.83191,
13574,0.27428192,-1.3993188,10.762685,,,,,,,
13584,,,,-0.053539924,0.17574637,-0.3862162,12.850496,25.135044,-87.04372,
13594,0.20720854,-1.2531947,9.612856,,,,,,,
13604,,,,0.16537173,0.44259486,-0.18860984,11.619871,25.694422,-87.854614,
13614,0.6240218,-0.8507544,8.429489,,,,,,,
13624,,,,0.26497388,0.43087694,0.016453395,12.541204,25.441406,-85.9716,
13634,0.6910952,-0.19918418,7.8282237,,,,,,,
13644,,,,0.15525174,0.19918217,0.04521551,12.69779,24.683533,-87.50658,
13654,0.7485867,0.19606978,7.492857,,,,,,,
13664,,,,0.023159048,0.063361056,-0.030418199,12.849573,25.43681,-86.58293,
13674,0.37968302,0.8763857,7.456925,,,,,,,
13684,,,,-0.18882838,-0.011740022,-0.13854246,13.001276,26.625366,-86.12863,
13694,-0.039525762,1.1758205,8.395952,,,,,,,
13704,,,,-0.4626011,-0.103885315,-0.19766457,12.081903,25.694477,-88.30742,
13714,-0.21439569,0.9362726,9.660765,,,,,,,
13724,,,,-0.6634033,-0.246098,-0.23441617,12.695169,26.59985,-87.528824,
13734,-0.37489277,0.5889282,10.856109,,,,,,,
13744,,,,-0.68470854,-0.32386225,-0.251993,11.000536,26.606598,-85.40436,
13754,-0.5377853,0.49071363,11.335205,,,,,,,
13764,,,,-0.46313375,-0.25035906,-0.18381615,12.233534,25.436737,-85.9792,69.0
13774,-0.46831644,0.85722184,10.695612,,,,,,,
13784,,,,-0.12331468,-0.10921163,-0.012841353,12.231874,27.774437,-87.3992,
13794,-0.056294113,1.3722497,9.660765,,,,,,,
13804,,,,0.08707486,0.007967353,0.17198187,11.155481,27.17309,-87.10947,
13814,0.82763755,1.5998201,8.879839,,,,,,,
13824,,,,0.14886016,0.029805256,0.2396261,9.921133,29.08463,-86.233734,
13834,1.4456708,1.7459444,7.9551845,,,,,,,
13844,,,,0.12595698,-0.005881073,0.15120922,10.383463,27.488663,-84.96564,
13854,1.4193206,1.899255,7.672518,,,,,,,
13864,,,,0.0625738,0.032468412,-0.014439248,11.310991,26.574207,-87.8725,
13874,0.92345667,1.8537409,7.9240427,,,,,,,
13884,,,,-0.06472518,0.0026410352,-0.17689195,12.231867,26.906197,-86.305786,
13894,0.4132197,1.8657182,8.470212,,,,,,,
13904,,,,-0.18137154,-0.0021526506,-0.221633,10.695784,25.839405,-87.10547,
13914,0.47550213,1.6022156,8.937331,,,,,,,
13924,,,,-0.2277105,0.002108403,-0.19766457,10.385843,27.746422,-87.44479,
13934,0.22637233,1.6046112,9.766166,,,,,,,
13944,,,,-0.2676579,0.026609464,-0.20725195,10.383966,28.495049,-86.67969,
13954,-0.13774037,1.6908484,10.944742,,,,,,,
13964,,,,-0.19841574,0.06762211,-0.1694351,9.923082,27.032484,-85.4361,
13974,-0.09222628,1.5614926,11.239386,,,,,,,
13984,,,,0.039138,0.011695775,-0.07675716,9.925169,27.004688,-87.29289,
13994,0.21199948,1.3962045,10.48481,,,,,,,
14004,,,,0.2607128,-0.057546355,-0.01763504,9.463661,26.997684,-87.30429,
14014,0.5234117,1.0967697,10.151838,,,,,,,
14024,,,,0.2537886,-0.061274774,-0.063441366,9.155373,26.567001,-86.22362,
14034,0.49706143,0.60330117,10.590211,,,,,,,
14044,,,,0.12222856,-0.028251607,-0.19020773,10.231569,27.315756,-86.51506,
14054,-0.17606804,0.64402425,11.308854,,,,,,,
14064,,,,0.02955063,0.042055782,-0.2583846,9.309328,26.857204,-86.68744,
14074,-0.93064374,0.95064545,11.754413,,,,,,,
14084,,,,0.11690224,0.2891969,-0.14173825,9.157049,25.965784,-86.99045,
14094,-1.0743725,1.2548712,11.632244,,,,,,,
14104,,,,0.40026233,0.52035916,0.10273974,8.385433,25.986538,-84.84317,
14114,-0.64558184,1.3530859,10.683634,,,,,,,
14124,,,,0.65858877,0.42182222,0.34881562,8.697729,24.482372,-87.13945,
14134,0.6934907,0.81889415,9.823658,,,,,,,
14144,,,,0.55951923,0.0473821,0.38823038,9.927523,24.657724,-86.49184,
14154,1.3330834,0.20086074,10.604584,,,,,,,
14164,,,,0.06683486,-0.2812517,0.06066183,11.314215,24.215662,-87.84509,
14174,0.6455811,-0.5010145,12.51378,,,,,,,
14184,,,,-0.24954839,-0.23331481,-0.3153762,9.004879,24.493992,-86.66765,
14194,0.015570253,-1.2124716,13.093486,,,,,,,
14204,,,,-0.13023888,-0.057013724,-0.40592358,9.315592,24.024006,-88.82118,
14214,-0.44436163,-1.3538048,11.816696,,,,,,,63.0
14224,,,,0.15951279,0.13526636,-0.2434709,9.927523,24.657724,-86.49184,
14234,-0.626418,-0.8531499,10.130279,,,,,,,
14244,,,,0.45246023,0.3882664,0.11339237,9.4656105,24.945538,-86.50667,
14254,-0.51143503,0.07150489,8.446258,,,,,,,
14264,,,,0.58029187,0.38027695,0.41273144,9.313265,23.476063,-86.02913,
14274,-0.2575143,1.2045662,7.468902,,,,,,,
14284,,,,0.42902443,0.13526636,0.5592052,8.392502,22.563702,-86.97006,
14294,0.8156601,1.6716845,7.6557493,,,,,,,
14304,,,,0.051388532,-0.2977633,0.5448241,9.931612,22.287598,-87.23811,
14314,1.9630942,1.3938091,8.784019,,,,,,,58.0
14324,,,,-0.33104107,-0.68605185,0.2545398,9.62426,22.42339,-87.711624,
14334,2.3200204,1.063233,9.986549,,,,,,,
14344,,,,-0.51426643,-0.7712729,-0.19606669,7.930498,22.418556,-86.36081,
14354,1.9487214,0.36135778,10.657284,,,,,,,
14364,,,,-0.49828744,-0.47353175,-0.64880365,7.7754803,23.155582,-86.218445,
14374,0.2814684,-0.060246438,10.38899,,,,,,,
14384,,,,-0.3363674,0.072948426,-0.9992754,8.082613,24.180534,-86.99649,
14394,-1.5582591,-0.06982833,9.531409,,,,,,,
14404,,,,-0.22185156,0.45857382,-1.0099281,7.6196594,24.482246,-86.0829,
14414,-1.9606996,-0.08899215,9.076268,,,,,,,53.0
14424,,,,-0.1808389,0.50651073,-0.6626521,7.7749405,24.175865,-87.00409,
14434,-1.016881,0.18888333,9.236765,,,,,,,
14444,,,,-0.15101153,0.20397584,-0.21737196,9.617155,25.123077,-84.647766,
14454,0.24553618,0.4499905,9.270302,,,,,,,
14464,,,,0.019963259,-0.107613735,-0.0123087205,9.617155,25.123077,-84.647766,
14474,0.56892574,0.87159467,8.510936,,,,,,,
14484,,,,0.28468123,-0.20402008,-0.11137823,6.081995,24.449635,-86.73984,
14494,0.62881273,1.2381029,7.176654,,,,,,,
14504,,,,0.37895706,-0.14649585,-0.24453616,5.311413,23.588251,-84.42757,
14514,0.49227053,1.448905,6.716722,,,,,,,48.0
14524,,,,0.15578435,-0.0021526506,-0.35372564,5.926216,24.61787,-85.19801,
14534,0.16408992,1.4752553,7.892902,,,,,,,
14544,,,,-0.17018627,0.06868737,-0.42722884,5.9282303,23.143782,-85.18089,
14554,0.12097132,1.2500803,9.349353,,,,,,,
14564,,,,-0.28044105,-0.027718974,-0.47463304,6.851486,23.733526,-86.09334,
14574,0.2000221,0.9769957,10.16142,,,,,,,
14584,,,,-0.16059889,-0.1992264,-0.5177762,6.0821495,22.710838,-84.70776,
14594,-0.07066698,1.2309165,10.202143,,,,,,,
14604,,,,0.017832732,-0.2647401,-0.5225699,5.004181,24.011911,-85.3687,
14614,-0.29823744,1.6357524,10.259635,,,,,,,46.0
14624,,,,0.0860096,-0.19656323,-0.43947935,4.39192,22.369492,-86.13873,
14634,-0.039525762,1.638148,10.568652,,,,,,,
14644,,,,0.07482433,-0.098559,-0.31697404,4.236841,22.528465,-85.21585,
14654,0.5545529,1.4608824,10.618957,,,,,,,
14664,,,,0.0844117,-0.04423056,-0.25412354,3.9283257,22.390284,-84.293335,
14674,0.96657526,1.2860125,10.499183,,,,,,,
14684,,,,0.07535696,-0.016001077,-0.33455092,3.7767963,21.199411,-84.90236,
14694,0.7725414,1.5351423,10.915996,,,,,,,
14704,,,,0.04180116,0.027674727,-0.46611094,3.621523,22.374033,-85.0746,
14714,0.58808964,1.7219896,11.390301,,,,,,,42.0
14724,,,,0.048725374,0.024478937,-0.5476036,3.6213303,23.389683,-86.16971,
14734,0.7581686,1.4776508,11.723271,,,,,,,
14744,,,,0.030615892,-0.05381793,-0.64667314,2.5439548,23.38029,-85.7321,
14754,1.0096939,0.86201286,12.353283,,,,,,,
14764,,,,-0.088160984,-0.17525797,-0.79314685,2.5430489,22.668724,-84.021484,
14774,1.1366543,-0.32614455,12.995271,,,,,,,
14784,,,,-0.13236941,-0.15768112,-0.9524038,2.0836391,20.75235,-83.54643,
14794,0.93064296,-1.5885618,12.748537,,,,,,,
14804,,,,-0.0061356975,0.016489461,-1.0541365,2.698618,21.779655,-84.47162,
14814,,,,,,,,,,38.0
14824,0.42759258,-1.9526745,11.826278,0.16057804,0.16083267,-0.9673174,1.4693661,20.58402,-84.33359,
14844,0.35093725,-1.50472,10.657284,0.30119282,0.21462847,-0.64241207,1.929985,21.61594,-84.79837,
14864,1.3594338,-0.96813273,9.670347,0.45246023,0.15870215,-0.24134038,1.9312782,20.296207,-84.318756,
14884,3.1656246,-0.6447432,8.520517,0.56431293,-0.04103477,-0.06770243,2.6993866,20.46687,-83.52782,
14904,4.641239,-0.5058055,7.011366,0.48654866,-0.23065168,-0.25678667,1.3146133,21.751694,-84.97,
14924,3.7165844,0.7805666,6.019638,0.15738226,-0.18324743,-0.7547974,1.6243458,19.123846,-83.539,
14944,1.711569,1.8106223,7.1886315,-0.39655477,-0.07618846,-1.2085997,0.85245514,20.59553,-82.95618,
14964,0.9018972,1.1518657,9.342167,-0.8631402,-0.2247927,-1.4056735,1.6211243,21.482391,-83.56639,35.0
14984,0.82524204,0.10025062,11.155544,-0.92812127,-0.39097384,-1.4461535,-0.83843994,20.118357,-83.61177,
15004,0.7605641,-0.43633655,11.56038,-0.704416,-0.46341175,-1.4259135,-1.7655239,22.329384,-82.73184,
15024,0.59288055,-0.3357264,10.997442,-0.46579692,-0.32173172,-1.3582692,-2.2274609,22.76229,-82.90312,
15044,0.7749369,-0.10096955,10.681239,-0.25647262,-0.047426354,-1.2378944,-0.8399048,21.440405,-83.93663,
15064,1.3474562,-0.1416927,10.405759,-0.011462016,0.119287394,-1.1872945,-1.9166012,22.435081,-85.36783,
15084,1.6971961,-0.07222381,9.251138,0.19946016,0.042055782,-1.2416228,-2.225647,21.435608,-82.88771,
15104,1.6516821,0.04036367,8.122869,0.24792965,-0.061807405,-1.335366,-2.5345383,21.447151,-81.81218,
15124,1.2588236,0.06431845,8.125263,0.12648962,-0.12199479,-1.4360335,-2.993473,20.682257,-83.207596,
15144,0.6791178,0.16971952,8.63071,0.08281381,-0.057546355,-1.4456209,-3.607088,19.781515,-83.67674,
15164,0.6216263,0.37333518,8.815161,0.17336121,0.024478937,-1.322583,-4.686777,20.09242,-81.54048,
15184,1.095931,0.64402425,8.795997,0.18614438,-0.07725373,-1.2629281,-4.6852303,18.335093,-80.74628,
15204,1.2037276,0.6200695,8.992427,0.090270646,-0.18804112,-1.3710524,-4.9909325,18.01476,-82.14305,
15214,,,,,,,,,,33.0
15224,0.82524204,0.2703296,9.6487875,-0.056735717,-0.23491272,-1.5548103,-5.2996407,18.892227,-82.31566,
15244,0.34135532,-0.12971532,10.76029,-0.13290204,-0.18324743,-1.6400313,-5.9154224,18.45456,-81.39732,
15264,0.09462103,-0.44831392,11.45977,-0.03170202,-0.047426354,-1.5750504,-5.4534473,18.7448,-82.16301,
15284,-0.00598906,-0.38363603,11.205849,0.18880753,0.06549159,-1.4285766,-6.069004,18.014631,-81.08652,
15304,-0.12097203,0.1481602,10.664471,0.34966233,0.119287394,-1.2900923,-5.4491005,15.93708,-82.59468,
15324,-0.111390114,0.5218549,10.159025,0.4519276,0.10703686,-1.1782397,-6.371458,15.190659,-82.29945,
15344,0.13534415,0.98657763,9.782935,0.5067887,0.011695775,-1.0690502,-5.75745,14.928341,-80.73349,
15364,0.9042927,1.1422838,9.263116,0.46790656,-0.13637584,-1.0344291,-5.9115067,16.08675,-81.98886,
15384,1.9822581,0.6320469,8.774438,0.2468644,-0.29190433,-1.2011428,-5.451187,15.964874,-80.737885,
15404,2.1643145,-0.5010145,9.246346,-0.24422207,-0.36434224,-1.6251177,-6.8295975,12.967888,-82.594635,
15424,0.68151325,-1.7322904,10.951928,-0.7379717,-0.23917377,-2.0762568,-6.677061,13.421713,-81.977036,
15444,-1.1725872,-2.3024144,12.008334,-0.80082226,0.031403154,-2.1577494,-7.1390095,12.986382,-81.0549,
15464,-2.3008575,-1.8496689,11.361555,-0.41306636,0.34512326,-1.6980883,-8.986597,13.847452,-80.8013,
15484,-1.7570839,-0.9920876,10.477623,-0.026908336,0.34618852,-0.95346904,-6.8308697,13.274286,-81.8244,
15504,-0.19283639,-0.12492433,9.900312,0.14513172,-0.11773374,-0.51617837,-7.906871,11.509882,-80.437836,
15524,1.2923603,0.5146684,9.28228,0.23461387,-0.64290863,-0.5028625,-6.5230055,12.263306,-80.72168,
15544,2.437399,1.0320917,9.339771,0.20105807,-0.9379866,-0.71485,-8.060936,11.800049,-80.59981,
15564,3.4195452,0.8332671,10.125488,0.023159048,-1.0919173,-1.0717133,-7.7536116,11.809351,-80.282745,
15584,3.043455,0.009222448,10.518346,-0.10786836,-0.9731403,-1.5612019,-9.290177,11.472656,-81.555176,
15604,1.1630045,-0.29739884,10.082369,-0.22078629,-0.6130812,-1.9931663,-10.522661,11.767328,-80.351135,
15624,-0.60964966,-0.388427,10.367431,-0.45887268,-0.18804112,-2.0853117,-10.676872,11.914719,-80.201904,
15644,-1.6301235,-0.4938281,11.6298485,-0.5707253,0.14059266,-1.8909009,-10.367187,10.445297,-80.177185,
15664,-1.7091743,-0.12252888,11.919701,-0.30813792,0.13899477,-1.540962,-9.75285,11.191681,-80.17055,
15684,-0.62162703,0.23918839,10.3554535,0.1078475,-0.12785374,-1.1947513,-11.1348095,9.544537,-80.49538,
15704,0.2215814,0.7661936,8.736111,0.28787702,-0.35315698,-1.0557344,-10.368056,10.456879,-79.40352,
15724,0.3772875,0.9171088,8.199524,0.25698438,-0.33398223,-1.0956818,-10.057353,9.11865,-80.46364,
15744,0.03712955,0.95304096,7.6988683,,,,-11.441529,9.093006,-80.80731,
15754,,,,0.18294859,-0.246098,-1.1643913,,,,
15764,-0.085039854,1.0895833,7.272473,,,,-10.518294,7.9462757,-79.53294,
15774,,,,0.050323267,-0.16886638,-1.1233785,,,,
15784,-0.015570968,1.108747,7.7228227,,,,-9.13039,6.6197567,-80.87593,
15794,,,,-0.14089152,-0.14383268,-1.0541365,,,,
15804,-0.013175502,1.1638432,8.273783,,,,-9.288639,8.847088,-79.66756,
15814,,,,-0.25221157,-0.15342006,-1.0136565,,,,
15824,-0.291051,1.2740351,8.434279,,,,-9.288639,8.847088,-79.66756,
15834,,,,-0.26712528,-0.12519057,-0.9753069,,,,
15844,-0.65516376,1.5399333,8.642687,,,,-10.517022,7.6398735,-80.30319,
15854,,,,-0.32038844,-0.17312744,-0.90713,,,,
15864,-0.6934914,1.8417635,8.839116,,,,-10.517022,7.6398735,-80.30319,
15874,,,,-0.40028322,-0.24077167,-0.80379945,,,,
15884,-0.74140096,2.1316164,9.172088,,,,-8.978962,6.509428,-78.54942,
15894,,,,-0.45834005,-0.23491272,-0.69141424,,,,
15904,-0.6288135,2.4238646,9.708674,,,,-9.439354,7.934822,-81.36316,
15914,,,,-0.4753843,-0.2546201,-0.5603868,,,,
15924,-0.22397761,2.6610172,10.561465,,,,-11.133959,7.7964745,-79.082245,
15934,,,,-0.40933797,-0.24077167,-0.44480568,,,,
15944,0.06827077,2.8263052,10.975883,,,,-9.90154,6.923748,-79.50577,
15954,,,,-0.23303682,-0.21200955,-0.41231516,,,,
15964,0.17127633,3.087412,10.300358,,,,-11.131853,6.7553463,-79.68918,
15974,,,,-0.050344136,-0.16247481,-0.41604358,,,,
15984,0.34854174,3.1209488,9.814075,,,,-9.902199,7.6561604,-79.82379,
15994,,,,-0.08283467,-0.120929524,-0.42243513,,,,
16004,0.42280155,2.807141,10.489601,,,,-9.286983,6.509392,-78.247574,
16014,,,,-0.2543421,-0.07831899,-0.4352183,,,,
16024,0.49466592,2.2465994,11.826278,,,,-10.981715,7.9647503,-77.84227,
16034,,,,-0.28470212,-0.06447057,-0.44427305,,,,
16044,0.32219148,1.9375826,12.33891,,,,-9.903087,8.681078,-80.29997,
16054,,,,-0.083367296,-0.06819899,-0.43575093,,,,
16064,0.29105026,1.959142,11.6034975,,,,-10.980461,8.671684,-79.86238,
16074,,,,0.15525174,-0.043165296,-0.35212776,,,,
16084,0.47310662,1.94956,11.093261,,,,-10.36368,7.5040646,-79.67874,
16094,,,,0.14619699,0.029805256,-0.24879724,,,,
16104,0.59048504,1.8130177,11.541216,,,,-10.670948,7.2045784,-79.68292,
16114,,,,-0.014125174,0.18267058,-0.15931511,,,,
16124,0.7342138,1.3027809,12.33891,,,,-9.132203,7.9464397,-80.89134,
16134,,,,-0.16059889,0.2657611,-0.15398878,,,,
16144,0.4659202,0.5002955,13.368966,,,,-9.748217,7.8012714,-80.131165,
16154,,,,-0.2809737,0.13686424,-0.3153762,,,,
16164,0.16408992,-0.92261875,14.286434,,,,-7.7488422,7.6934776,-79.461136,
16174,,,,-0.2628642,-0.16034427,-0.50446045,,,,
16184,-0.101808205,-2.1970134,13.996581,,,,-8.82639,7.6863995,-78.86879,
16194,,,,0.024224313,-0.36114645,-0.5135152,,,,
16204,-0.6719321,-1.5741888,11.773577,,,,-8.980775,7.8361073,-78.564835,
16214,,,,0.5003971,-0.26420748,-0.18221825,,,,
16224,0.4204061,-0.5249692,9.049918,,,,-10.367269,8.130762,-77.20987,
16234,,,,0.84447724,0.015956828,0.4686578,,,,
16244,2.538009,0.25595674,7.2892413,,,,-11.131743,6.1749744,-79.0634,
16254,,,,0.80879086,0.12301581,0.8244558,,,,
16264,3.972901,0.9290862,7.1335354,,,,-9.442604,7.6886425,-78.11032,
16274,,,,0.4801571,-2.2123684E-5,0.5980873,,,,30.0
16284,4.001646,1.3818316,7.504834,,,,-9.289611,7.5574684,-77.17642,
16294,,,,0.05778011,-0.21147692,-0.00911293,,,,
16304,1.9750717,1.5399333,8.012676,,,,-7.9034653,7.2674484,-78.22194,
16314,,,,-0.2143947,-0.11986426,-0.67383736,,,,
16324,-0.3389606,1.2165437,8.20671,,,,-7.9017076,6.2309494,-78.51941,
16334,,,,-0.29642,0.19225796,-0.9731764,,,,
16344,-1.6492873,0.6943293,8.177964,,,,-7.9012403,6.514189,-79.29649,
16354,,,,-0.34116107,0.36163482,-0.7968753,,,,
16364,-1.9750724,0.77817106,8.278574,,,,-8.209049,7.2349834,-80.08632,
16374,,,,-0.36566216,0.30091482,-0.31963724,,,,
16384,-0.64318633,0.91471326,8.642687,,,,-8.059352,8.016056,-77.30589,
16394,,,,-0.22238417,0.11875476,0.21565767,,,,
16404,0.95459783,1.1374928,8.072563,,,,-9.902547,7.6607933,-79.51433,
16414,,,,0.036474843,-0.14436533,0.4036767,,,,
16424,1.6349138,1.4704643,7.502439,,,,-8.367216,9.027035,-78.4086,
16434,,,,0.16430646,-0.2247927,0.21778819,,,,
16444,1.3402699,1.5303513,7.107185,,,,-7.7496557,7.414873,-78.37457,
16454,,,,0.14939278,-0.039436877,-0.032016095,,,,
16464,0.4659202,1.5878428,6.9442925,,,,-7.597871,8.168152,-77.45094,
16474,,,,0.05458432,0.21249795,-0.14493404,,,,
16484,-0.25990978,1.6764755,7.401829,,,,-8.367161,8.736851,-78.09572,
16494,,,,-0.08656309,0.28866428,-0.08954033,,,,
16504,-0.30781937,1.839368,8.381579,,,,-7.902651,7.546051,-79.30849,
16514,,,,-0.16805574,0.13899477,0.049476564,,,,
16524,0.19283566,2.0094469,9.332584,,,,-6.365883,7.7353344,-78.03433,
16534,,,,-0.12065152,-0.057546355,0.1607966,,,,
16544,0.8659651,1.9184189,9.766166,,,,-6.3672285,9.345255,-78.82683,
16554,,,,-0.024245178,-0.15235479,0.17837344,,,,
16564,1.1965411,1.5830519,10.398573,,,,-8.83008,9.761709,-78.119095,
16574,,,,-0.04501782,-0.23331481,0.10007658,,,,
16584,0.91866565,1.2141482,11.416651,,,,-6.830989,10.236605,-77.920105,
16594,,,,-0.11106415,-0.29403484,0.017518658,,,,
16604,0.5234117,0.9362726,12.753327,,,,-6.9849167,9.801306,-77.299835,
16614,,,,-0.065257825,-0.20934638,0.019649185,,,,
16624,0.17367181,0.6104876,12.856334,,,,-8.369165,11.07918,-79.20624,32.0
16634,,,,0.17229596,0.06123053,0.11339237,,,,
16644,-0.04192123,0.68714285,11.955634,,,,-7.44864,11.4158,-77.33006,
16654,,,,0.40505603,0.31369796,0.29661772,,,,
16664,0.10659844,0.9817867,11.414255,,,,-7.1391287,9.948696,-77.15062,
16674,,,,0.3864139,0.3126327,0.48623464,,,,
16684,0.4659202,0.85722184,12.794051,,,,-6.831996,10.97365,-77.928665,
16694,,,,0.12862015,0.04951263,0.5181925,,,,
16704,0.41801065,0.6224649,14.779902,,,,-7.140538,10.980562,-77.1626,
16714,,,,-0.034365177,-0.43784544,0.3195209,,,,
16724,0.70786357,-0.22313896,14.882908,,,,-8.676811,10.92942,-79.0574,
16734,,,,0.124359086,-0.7334561,0.14535028,,,,
16744,1.3426654,-1.339432,13.313869,,,,-7.9097185,10.968889,-77.181595,
16754,,,,0.27828965,-0.6354518,0.062259726,,,,
16764,1.0025073,-1.5262792,11.775972,,,,-6.8298903,9.932518,-78.535614,
16774,,,,0.31078017,-0.18164954,0.010594444,,,,
16784,0.49706143,-1.5286747,9.43559,,,,-8.373826,11.864868,-75.96541,
16794,,,,0.36084756,0.41063696,0.019116554,,,,
16804,-0.20960474,-0.96334183,7.7156363,,,,-8.3726635,12.138838,-77.36142,
16814,,,,0.2436686,0.85272133,0.12883869,,,,
16824,-0.61204517,-0.15606555,7.6940775,,,,-7.908656,9.941654,-76.86015,
16834,,,,0.05511695,0.92302877,0.3818388,,,,
16844,-0.24314144,0.86201286,8.029445,,,,-8.369376,10.358349,-78.11455,
16854,,,,-0.06738835,0.39838642,0.5661294,,,,
16864,1.1103039,1.0823969,8.606754,,,,-7.4497204,13.456366,-78.90137,
16874,,,,-0.24049366,-0.48098862,0.51499677,,,,
16884,2.16671,0.6919338,9.332584,,,,-7.141079,12.000843,-77.94826,
16894,,,,-0.3699232,-1.004033,0.21832082,,,,
16904,1.9583032,0.44280407,9.794911,,,,-8.376234,14.502018,-77.079346,
16914,,,,-0.28470212,-0.8064266,-0.16464141,,,,
16924,0.87075615,0.24158387,8.879839,,,,-7.910368,12.56954,-78.59302,
16934,,,,-0.05513782,-0.13957164,-0.40752146,,,,
16944,-0.13534491,0.15774211,7.492857,,,,-10.065025,12.983717,-78.3419,
16954,,,,0.10252118,0.5858728,-0.37183514,,,,
16964,-0.4922712,0.030781746,6.901174,,,,-9.142942,12.431252,-76.76492,
16974,,,,0.062041167,0.84846026,-0.16144563,,,,
16984,-0.52341247,0.17451046,6.901174,,,,-10.68058,12.253548,-77.265396,
16994,,,,-0.025843073,0.6268855,-0.00911293,,,,
17004,-0.19044091,0.39249903,7.1814446,,,,-8.0679035,13.774275,-76.75374,
17014,,,,-0.03170202,0.22048743,0.046813406,,,,
17024,0.21439496,0.56976444,7.224563,,,,-7.9121904,13.027983,-77.515045,36.0
17034,,,,0.0844117,-0.061807405,0.06439025,,,,
17044,0.15211254,1.0871878,7.23175,,,,-8.681307,13.594362,-78.314545,
17054,,,,0.19786227,-0.19123691,0.049476564,,,,
17064,0.09701651,1.7387581,7.337151,,,,-8.989848,13.6012745,-77.54848,
17074,,,,0.15684964,-0.31214434,0.052139726,,,,
17084,0.25990906,2.0549612,7.9240427,,,,-7.4537573,15.536306,-77.84219,
17094,,,,-0.023179915,-0.29563275,0.07983657,,,,
17104,,,,,,,-10.221708,15.190201,-78.52611,
17114,0.55694836,1.9998652,9.313421,-0.18350206,-0.14170216,0.07504288,,,,
17124,,,,,,,-10.065831,13.573351,-78.34874,
17134,1.0887446,1.6501253,10.616561,-0.16805574,-0.021327393,0.008463917,,,,
17144,,,,,,,-10.68253,14.305691,-78.063034,
17154,1.0599989,1.4273458,11.574752,-0.073779926,0.012228407,-0.12895508,,,,
17164,,,,,,,-10.529994,14.759518,-77.445435,
17174,0.33177346,1.4920237,12.027498,0.06949801,0.019152619,-0.22216564,,,,
17184,,,,,,,-10.223329,15.501232,-77.446396,
17194,0.041920513,1.3171538,12.31256,0.23088545,0.028207358,-0.17316352,,,,
17204,,,,,,,-10.223329,15.501232,-77.446396,
17214,-0.0682715,1.2812215,12.022707,0.3928055,0.12834214,-0.0623761,,,,
17224,,,,,,,-10.372688,13.847288,-79.44289,
17234,-0.180859,1.6070067,11.090866,0.36564127,0.2907948,0.042552352,,,,
17244,,,,,,,-10.220042,13.720743,-78.19951,
17254,0.16408992,1.7914585,12.020312,0.013571678,0.37068957,0.11232711,,,,
17264,,,,,,,-11.758165,14.273134,-79.17276,
17274,0.935434,1.7459444,15.395541,-0.32411686,0.036196835,0.085162885,,,,39.0
17284,,,,,,,-10.6789875,14.837421,-81.93822,
17294,1.9175804,0.81889415,17.376602,-0.13023888,-0.5843192,-5.8190548E-5,,,,
17304,,,,,,,-12.221604,15.304945,-78.73193,
17314,2.7200656,-1.0687429,15.709348,0.5472687,-0.90815926,-0.2589172,,,,
17324,,,,,,,-12.220735,15.293364,-79.5056,
17334,2.0397494,-2.1155672,10.872877,1.0234416,-0.5422412,-0.5625173,,,,
17344,,,,,,,-12.220195,14.273079,-78.719955,
17354,0.70546806,-1.7897819,7.0520887,0.8721741,0.33020955,-0.47942674,,,,
17364,,,,,,,-14.679228,13.770338,-80.32294,
17374,0.34135532,-0.9154322,5.7537394,0.34912968,0.9922709,-0.068235055,,,,
17384,,,,,,,-13.141773,13.082117,-78.574326,
17394,0.9018972,-0.11534244,6.321468,-0.16912101,0.8772224,0.23696293,,,,
17404,,,,,,,-11.756269,12.511175,-78.688,
17414,1.8481112,0.27751604,7.071253,-0.54356116,0.2098348,0.1863629,,,,
17424,,,,,,,-11.138435,12.197901,-80.526184,
17434,1.5438855,0.8811766,8.003094,-0.7859086,-0.19283481,-0.17369615,,,,
17444,,,,,,,-12.064803,13.386328,-79.01535,
17454,-0.07785343,1.7435489,9.174483,-0.8375738,-0.020794762,-0.5172436,,,,
17464,,,,,,,-13.29745,14.551558,-78.74997,
17474,-1.1031182,1.559097,9.639206,-0.8295844,0.23859692,-0.59554046,,,,
17484,,,,,,,-13.911055,14.519056,-80.3125,
17494,-1.5870049,0.9793912,10.005713,-0.8045507,0.4212896,-0.50339514,,,,
17504,,,,,,,-12.524964,14.51922,-81.67091,
17514,-1.5989822,0.33979848,9.931454,-0.59416115,0.57095915,-0.28821194,,,,
17524,,,,,,,-12.220479,14.855768,-79.19101,45.0
17534,-1.1079092,0.23918839,9.114595,-0.2783105,0.527816,-0.034679253,,,,
17544,,,,,,,-12.83391,14.82095,-80.908264,
17554,-0.346147,0.45238596,8.266597,-0.027440967,0.22741166,0.14002395,,,,
17564,,,,,,,-12.218822,15.267885,-81.20767,
17574,-0.12336751,0.8787811,7.162281,0.09293381,-0.05222004,0.12351238,,,,
17584,,,,,,,-12.681805,15.714687,-80.45055,
17594,-0.3605199,1.1662385,6.53227,0.052453794,-0.057013724,0.09155447,,,,
17604,,,,,,,-11.450182,16.299839,-81.974335,
17614,-0.2575143,1.0273008,7.0999985,-0.13769573,0.10117791,0.14535028,,,,
17624,,,,,,,-12.371971,14.388044,-80.737015,47.0
17634,-0.089830816,0.95064545,8.2881565,-0.29801792,0.21356322,0.2028745,,,,
17644,,,,,,,-12.371412,15.104242,-82.13815,
17654,-0.085039854,1.1758205,9.459545,-0.32145372,0.08626422,0.2497461,,,,
17664,,,,,,,-13.452705,17.462658,-81.10901,
17674,-0.010780022,1.4848373,10.432109,-0.20054628,-0.21200955,0.2960851,,,,
17684,,,,,,,-13.145244,16.746496,-80.009735,
17694,0.3964513,1.453696,11.122006,-0.078573614,-0.5065549,0.28117138,,,,
17704,,,,,,,-13.914122,17.888617,-81.74449,
17714,0.7773324,1.1614476,11.634639,0.04233379,-0.52999073,0.21352714,,,,
17724,,,,,,,-14.372215,14.50742,-80.63338,
17734,0.9426204,0.68714285,11.725668,0.25165805,-0.28231695,0.19062397,,,,
17744,,,,,,,-14.526985,16.688425,-82.51965,
17754,0.5425755,0.67277,11.191476,0.44234022,-0.031447396,0.20180924,,,,
17764,,,,,,,-14.83354,15.366339,-81.8929,
17774,-0.056294113,0.9769957,10.880064,0.38907707,0.06815474,0.20553765,,,,
17784,,,,,,,-14.987001,15.214281,-82.04973,
17794,-0.2575143,1.1374928,11.663384,0.16910015,0.07614422,0.29342192,,,,
17804,,,,,,,-15.9112625,15.361578,-81.14583,
17814,0.19044018,1.2045662,12.480243,0.101988554,0.03406631,0.43883038,,,,
17824,,,,,,,-16.064466,14.771923,-80.98805,
17834,0.8491968,0.89794505,12.832378,0.19732964,-0.001620019,0.46439674,,,,
17844,,,,,,,-15.447603,13.169027,-80.33508,
17854,1.6732414,-0.18960229,12.683859,0.18880753,-0.17046428,0.24015872,,,,
17864,,,,,,,-15.755175,14.465563,-82.060165,
17874,1.546281,-1.6484486,13.098277,-0.01252728,-0.31214434,-0.21311091,,,,
17884,,,,,,,-16.68276,15.6702,-79.4662,
17894,0.7821233,-2.8174424,12.784469,0.017832732,-0.19230218,-0.49061203,,,,
17904,,,,,,,-16.98655,15.3243885,-82.56503,
17914,-0.28626004,-2.556335,10.288381,0.29320332,0.095318966,-0.37076986,,,,
17924,,,,,,,-17.757992,15.342829,-80.57251,
17934,-0.38687015,-1.4424375,8.077354,0.41943708,0.2801422,0.08569552,,,,
17944,,,,,,,-17.137016,13.106287,-82.85263,
17954,0.6407901,-0.24709377,7.0161567,0.217037,0.09585159,0.40420932,,,,
17964,,,,,,,-16.984133,13.555481,-82.544495,
17974,1.4193206,0.8811766,7.600653,-0.26819053,-0.26047906,0.29874822,,,,
17984,,,,,,,-16.214146,12.977518,-82.51865,
17994,1.5582584,0.99376416,9.339771,-0.7225254,-0.47619492,-0.055984523,,,,
18004,,,,,,,-16.831972,14.159031,-81.77388,
18014,1.0049028,0.06910941,10.772266,-0.7672665,-0.34570014,-0.41284776,,,,
18024,,,,,,,-18.21439,13.096893,-82.41502,
18034,-0.10659915,-0.61839294,11.1411705,,,,,,,
18044,,,,-0.4892327,-0.098559,-0.57636577,-17.448122,14.73933,-81.79591,
18054,-1.0408357,-0.70223475,9.950618,,,,,,,
18064,,,,-0.06472518,0.1512453,-0.44001198,-18.52525,13.424101,-79.9503,
18074,-1.2157056,-0.41238174,8.2881565,,,,,,,
18084,,,,0.24792965,0.40318012,-0.1358793,-18.984322,13.38467,-82.127975,
18094,-0.74140096,-0.13211077,7.492857,,,,,,,
18104,,,,0.3043886,0.4548454,0.09528289,-17.136879,12.380823,-82.070404,
18114,-0.27428266,0.09785515,7.071253,,,,,,,
18124,,,,0.25591913,0.3259485,0.17784081,-18.061123,14.264603,-83.35332,
18134,0.08743459,0.4499905,6.8412867,,,,,,,
18144,,,,0.24473387,0.18906216,0.23589766,-18.062092,12.974983,-80.86218,
18154,0.3820784,0.9314817,6.7143264,,,,,,,
18164,,,,0.21330859,0.074013695,0.2497461,-17.137016,13.106287,-82.85263,
18174,0.49466592,1.1901934,7.6246085,,,,,,,
18184,,,,0.07482433,0.030337887,0.12670816,-18.363695,11.15276,-84.09863,
18194,-0.001198113,1.4369277,9.780539,,,,,,,
18204,,,,-0.10094415,0.020750513,-0.07835506,-17.441174,11.0286255,-83.455185,
18214,-0.61204517,1.5063965,11.584333,,,,,,,
18224,,,,-0.063127294,0.0015757716,-0.191273,-18.059658,12.942554,-83.02844,
18234,-1.2252877,1.6597072,11.91491,,,,,,,
18244,,,,0.23088545,-0.017066339,-0.1076498,-17.90552,11.348869,-81.30374,
18254,-0.9761579,1.6812665,10.856109,,,,,,,
18264,,,,0.5968035,-0.043165296,0.17677554,-18.366478,11.189821,-81.622894,
18274,0.34135532,1.8465545,9.50985,,,,,,,
18284,,,,0.65113187,-0.14969164,0.4185904,-17.290478,12.954227,-83.009445,
18294,1.3498517,2.0501702,9.806889,,,,,,,
18304,,,,0.41411075,-0.159279,0.41113356,-17.90378,11.3257065,-82.851074,
18314,1.6995916,2.0908933,10.7387295,,,,,,,
18324,,,,0.28521386,-0.03837161,0.2449524,-19.134752,11.889713,-83.35252,
18334,1.4336935,1.959142,10.489601,,,,,,,
18344,,,,0.31717178,0.19545373,0.0047354954,-18.364784,9.575272,-81.13986,
18354,0.3772875,1.7794812,10.147047,,,,,,,
18364,,,,0.25432122,0.42235485,-0.191273,-18.056297,9.858545,-82.21881,
18374,-0.20960474,1.4009955,10.683634,,,,,,,
18384,,,,0.12489171,0.42874643,-0.17529404,-19.130367,9.805143,-84.72116,
18394,-0.31021482,1.3746452,11.522052,,,,,,,
18404,,,,-0.034897815,0.07934001,-0.13747719,-18.978527,10.268234,-83.48462,
18414,-0.20720926,1.5016056,12.6072035,,,,,,,
18424,,,,-0.24581999,-0.42133385,-0.12735718,-17.28731,10.885866,-83.29494,
18434,1.2324734,0.22242004,13.951067,,,,,,,
18444,,,,-0.37791267,-0.6503655,-0.091670856,-18.51505,9.959574,-84.8624,
18454,2.2529473,-1.1765393,14.260084,,,,,,,
18464,,,,-0.23410209,-0.4069528,-0.20086038,-18.97894,9.694811,-82.39464,
18474,2.1858737,-2.3119962,12.401193,,,,,,,
18484,,,,0.2015907,0.08999265,-0.32230037,-20.825346,9.816523,-82.2872,
18494,1.4576483,-2.0221434,9.447568,,,,,,,
18504,,,,0.50945187,0.31742638,-0.3143109,-19.594282,9.6854725,-82.409836,
18514,1.3881794,-1.0376016,7.5551395,,,,,,,
18524,,,,0.39387074,0.19332321,-0.14386877,-21.438246,7.8931828,-82.12543,
18534,1.7451057,0.12899637,6.9945974,,,,,,,
18544,,,,0.043399055,0.029272621,-0.031483464,-19.750114,10.143896,-81.18089,
18554,1.4025522,1.3674588,7.0161567,,,,,,,
18564,,,,-0.26339686,0.16189793,-0.13055299,-20.052046,7.312977,-82.85805,
18574,1.0599989,1.2812215,7.785105,,,,,,,
18584,,,,-0.5419633,0.36642852,-0.39207512,-20.052046,7.312977,-82.85805,
18594,-0.10659915,0.8859676,9.1601095,,,,,,,
18604,,,,-0.7124054,0.2822727,-0.7031321,-18.820478,8.188311,-84.69472,
18614,-1.3211068,0.68474734,10.070392,,,,,,,
18624,,,,-0.546757,0.10330844,-0.7366879,-18.820478,8.188311,-84.69472,
18634,-1.907999,0.55299604,9.507455,,,,,,,
18644,,,,-0.15367469,-0.003750546,-0.55026674,-19.127895,7.74605,-84.38771,
18654,-1.7259426,0.5745554,8.23306,,,,,,,
18664,,,,0.13234857,-0.04689372,-0.23175302,-18.513796,7.9166927,-83.445816,
18674,-0.7030733,0.71109766,7.049693,,,,,,,
18684,,,,0.24047282,-0.03251266,0.09634815,-18.973335,7.5940228,-84.846405,
18694,0.27428192,0.9290862,6.3238635,,,,,,,
18704,,,,0.23994018,-0.02026213,0.20926608,-19.130175,8.789494,-83.62604,
18714,0.34375083,1.417764,6.000474,,,,,,,
18724,,,,0.18454647,-0.023990551,0.13629553,-21.282553,8.160221,-84.13658,
18734,0.29344577,1.7627128,6.1346207,,,,,,,
18744,,,,0.12702225,-0.060209513,0.0702492,-21.592302,9.05159,-83.38078,
18754,0.42519706,1.9878877,6.5083156,,,,,,,
18764,,,,0.023691682,-0.18537796,0.007931286,-20.358904,7.5869102,-83.95221,
18774,0.33895987,2.0669384,7.0401115,,,,,,,
18784,,,,-0.13023888,-0.2556854,-0.07302874,-21.129961,8.323866,-83.2061,
18794,0.044315994,2.1459892,8.475003,,,,,,,
18804,,,,-0.3619337,-0.2759254,-0.1342814,-21.89579,7.1097565,-84.75873,
18814,-0.039525762,2.069334,10.015296,,,,,,,
18824,,,,-0.46952534,-0.26154432,-0.14706457,-22.821371,8.721882,-84.49089,
18834,-0.15211326,1.9759103,11.078888,,,,,,,
18844,,,,-0.46632954,-0.24716325,-0.15824983,-21.439043,9.351059,-83.22568,
18854,0.020361215,1.4968146,12.724582,,,,,,,
18864,,,,-0.42584953,-0.22159693,-0.23228563,-20.513775,8.466715,-84.121,
18874,-0.52101696,0.5673689,14.578683,,,,,,,
18884,,,,-0.20533997,-0.14809375,-0.34413826,-22.667158,8.57449,-84.64011,
18894,-1.7810386,0.7542163,14.300807,,,,,,,
18904,,,,0.267637,-0.13158216,-0.17582668,-21.591955,9.046959,-83.69025,
18914,-1.8840443,1.844159,12.03708,,,,,,,
18924,,,,0.5781613,-0.0042831777,0.3935567,-21.281948,7.7179966,-84.13144,
18934,-0.25990978,2.3088818,12.269441,,,,,,,
18944,,,,0.3326181,0.19172531,0.8729253,-22.820024,7.1119633,-83.698395,
18954,1.8385293,1.5519106,14.813438,,,,,,,
18964,,,,0.0034516742,0.15337582,0.7972915,-21.742926,8.572283,-85.70044,
18974,2.3607438,0.06431845,15.932128,,,,,,,
18984,,,,0.05724748,-0.16780111,0.19435239,-22.357206,7.535713,-85.39418,
18994,1.3163152,-1.6580306,15.254207,,,,,,,
19004,,,,0.2809528,-0.36434224,-0.36863935,-22.668514,9.316168,-84.33919,
19014,-0.51862144,-2.7048547,13.613305,,,,,,,
19024,,,,0.5137129,-0.026653713,-0.48954675,-23.742949,7.530916,-84.345245,
19034,-1.9535131,-2.6234086,11.133984,,,,,,,
19044,,,,0.7858877,0.50597805,-0.06716979,-24.050676,7.816433,-84.66574,
19054,-1.1845645,-1.7490586,8.187546,,,,,,,
19064,,,,0.88389194,0.59492755,0.6167294,-22.97331,6.957588,-84.00995,
19074,0.49466592,-0.3141671,5.8926773,,,,,,,
19084,,,,0.58668345,0.13579898,0.96080947,-22.510878,6.6628227,-84.45932,
19094,1.3402699,1.5638881,6.072338,,,,,,,
19104,,,,-0.10946626,-0.47406438,0.83031476,-21.587303,7.3930283,-85.83768,
19114,1.9654899,1.7914585,7.703659,,,,,,,
19124,,,,-0.7683317,-0.749435,0.4542767,-22.514046,8.731182,-84.17381,
19134,1.951117,0.838058,9.876358,,,,,,,44.0
19144,,,,-0.9925697,-0.45275912,0.042552352,-23.744514,7.5517635,-82.95265,
19154,1.0288576,0.22960648,10.293171,,,,,,,
19164,,,,-0.7539507,0.08306843,-0.20512143,-24.359785,8.988722,-84.84178,
19174,-0.22876856,0.021199852,8.992427,,,,,,,
19184,,,,-0.44449165,0.44632328,-0.25305825,-25.897926,7.804632,-83.62819,41.0
19194,-1.4744173,0.124205425,8.601963,,,,,,,
19204,,,,-0.3363674,0.48307487,-0.17689195,-25.282537,9.405359,-85.64337,
19214,-1.7139653,0.23439743,8.204314,,,,,,,
19224,,,,-0.24315682,0.24072744,0.074510254,-22.513891,9.742201,-85.578415,
19234,-0.57850844,0.13378733,7.6533537,,,,,,,
19244,,,,-0.17338206,-0.0415674,0.3631967,-23.901793,11.068714,-84.23541,
19254,0.6455811,-0.029105216,7.7348003,,,,,,,
19264,,,,-0.08549783,-0.15182216,0.42924303,-23.436184,9.573833,-86.06369,
19274,1.495976,0.2367929,7.979139,,,,,,,
19284,,,,0.075889595,-0.11666848,0.30513984,-24.361279,10.455864,-85.32309,
19294,1.376202,0.89794505,7.562326,,,,,,,
19304,,,,0.19306858,-0.06873162,0.052672356,-22.822277,10.760128,-86.21692,
19314,-0.039525762,1.5974247,7.456925,,,,,,,
19324,,,,0.22982019,0.1310053,-0.17316352,-23.591494,10.025309,-85.298965,
19334,-0.7294235,1.5830519,7.262891,,,,,,,
19344,,,,0.2234286,0.31742638,-0.15931511,-25.898102,10.556765,-86.910126,
19354,-0.64797735,1.4345322,8.072563,,,,,,,
19364,,,,-0.025843073,0.2993169,-0.02189609,-24.511765,9.251093,-86.860535,
19374,0.0107792765,1.1854024,10.451273,,,,,,,
19384,,,,-0.26073366,0.015424198,0.07823867,-22.66619,9.864113,-87.131256,
19394,0.36770558,1.1590521,12.022707,,,,,,,
19404,,,,-0.1068031,-0.22372745,0.05746604,-22.82127,10.023083,-86.20836,
19424,0.3916604,1.2524759,11.78795,0.23408124,-0.20668325,0.03030182,-23.592207,11.047905,-85.92987,
19444,0.770146,1.1566567,10.496787,0.3528581,-0.15288743,0.053204987,-24.512514,9.550541,-86.55449,
19464,0.8515923,1.338713,10.226098,0.19732964,0.04099052,0.08303236,-23.89847,10.0113735,-85.925476,
19484,0.049106926,1.9902831,11.371137,0.014104309,0.2668264,0.09581552,-24.05085,10.568565,-87.94768,38.0
19504,-0.04910767,2.1915033,12.113735,0.08707486,0.2556411,0.16718818,-24.66765,9.999701,-85.94447,
19524,1.0983264,1.5063965,11.780764,0.18561174,-0.118799,0.16559027,-24.35693,10.397957,-89.19142,
19544,1.6804278,0.8691993,12.132899,0.003984306,-0.50282645,-0.035744514,-24.666168,10.414133,-87.80641,
19564,1.5366992,-0.24709377,13.256378,-0.23623261,-0.49164122,-0.28821194,-24.665682,9.684036,-87.333664,
19584,1.2564281,-1.545443,13.534254,-0.2143947,-0.14383268,-0.4330878,-23.43525,10.140308,-87.617874,
19604,0.6407901,-2.0149572,11.752018,0.08814012,0.26735902,-0.33242038,-25.282034,10.411743,-87.35742,
19624,0.8012872,-1.6053301,9.066686,0.3059865,0.48946646,0.022312343,-24.82059,9.8406925,-86.565506,
19634,,,,,,,,,,35.0
19644,1.6301228,-0.7381668,7.9264383,0.17176332,0.36376536,0.28117138,-26.049685,9.656076,-87.83205,
19664,2.0732863,0.29667988,8.137241,-0.057268348,0.05004526,0.21405976,-23.742575,10.131006,-87.93494,
19684,2.3296025,0.90513146,8.108495,-0.22877575,-0.10654847,-0.08208348,-24.508917,9.792088,-90.116776,
19704,1.1773773,0.8787811,7.9336247,-0.42957795,0.07827474,-0.5321573,-24.820837,11.146528,-87.973526,
19724,-1.4648355,0.90034044,8.879839,-0.6942959,0.43087694,-0.8123216,-24.355867,9.370724,-88.869965,
19744,-3.4027774,0.7566117,10.312335,-0.75448334,0.58427495,-0.6434773,-25.125597,9.511091,-88.58121,
19764,-3.3021674,0.3853126,10.915996,-0.43650216,0.41543064,-0.13641194,-23.282356,11.457743,-88.40315,
19784,-1.1031182,-0.17283392,10.336289,0.041268528,-0.035708454,0.37065354,-23.741613,10.552387,-89.33267,
19804,1.0264621,0.09545967,8.8894205,0.40452337,-0.38085383,0.5171273,-24.35658,10.393324,-89.5009,
19824,1.7451057,0.5601825,7.0544844,0.5169087,-0.29350224,0.33230406,-23.587053,10.400364,-89.79135,
19844,1.2612191,0.9123179,5.8830953,0.39706653,0.09159054,0.12617554,-23.740257,9.810709,-89.633575,
19864,0.46831566,1.1327019,5.9669375,0.13128331,0.4079738,0.059063938,-23.43299,10.110195,-89.629395,
19884,-0.085039854,1.1422838,7.2964277,-0.08656309,0.45431274,0.105402894,-22.66497,9.8478985,-88.21437,
19904,0.13773966,1.1398883,8.949307,-0.12704311,0.09958002,0.25187665,-23.432182,9.520557,-89.62256,
19924,1.0216713,1.2476848,9.948223,0.0034516742,-0.38724542,0.37118617,-24.507004,9.766609,-91.81885,
19934,,,,,,,,,,33.0
19944,1.1869593,1.8872776,10.194957,0.13820751,-0.61095077,0.31366193,-24.969646,9.34054,-90.27777,
19964,1.5678403,2.0214243,10.223702,0.13874015,-0.4474328,0.2231145,-24.969646,9.34054,-90.27777,
19984,2.0780773,1.2860125,10.676448,-0.011462016,-0.1321148,0.07344499,-25.281008,11.411179,-89.535675,
20004,1.1414452,0.5362277,12.001148,-0.06472518,0.1730832,-0.11457402,-24.663383,10.377073,-90.282166,
20024,-0.28865552,0.47634077,12.609599,0.13874015,0.20717163,-0.11936771,-24.354357,9.640064,-90.575455,
20044,-0.82045174,0.9410635,11.871792,0.35924968,0.051110525,0.10327237,-23.893599,9.946518,-90.258026,
20064,-0.7437964,1.4824418,11.378323,0.39014232,0.051110525,0.33443457,-24.661627,9.340576,-90.579636,
20084,-0.5976722,1.959142,11.493306,0.29746437,0.17255057,0.45587462,-26.813976,8.566214,-90.93373,
20104,0.0011973679,2.1124525,12.070617,0.16377385,0.15018004,0.49688724,-24.355574,9.656279,-89.49234,
20124,1.4193206,1.1949843,13.055158,0.07162854,-0.030914765,0.43403673,-25.123564,9.773485,-90.7509,
20144,2.051727,-0.01233685,13.280333,-0.004537802,-0.2679359,0.091021836,-26.19866,8.720644,-91.07498,
20164,0.88752437,-1.1933078,12.846752,-0.026375704,-0.16513795,-0.27809194,-26.813107,8.554632,-91.7074,
20184,-0.67672306,-1.9478835,11.675363,0.13714226,0.26948953,-0.2690372,-25.122694,9.761904,-91.52457,
20204,-1.1510278,-1.4663924,9.88594,0.43062234,0.55977386,0.09421763,-24.814026,8.161285,-90.41501,
20224,-0.49706215,-0.2566757,7.145512,0.5217024,0.4804117,0.39302406,-23.426983,7.71459,-92.07773,
20244,-0.26230526,0.9290862,6.2304397,0.14832753,0.19385585,0.34881562,-24.810701,7.103943,-92.10509,
20264,-0.14013585,1.3650633,8.3743925,-0.45248112,-0.30575275,0.08782605,-24.34957,7.2606697,-91.940674,
20284,0.33656436,0.6919338,10.674053,-0.7337107,-0.7116181,-0.2099151,-24.813421,7.719057,-90.40987,
20304,0.08983007,0.29188892,11.500493,-0.49349374,-0.55129594,-0.3846183,-23.430214,9.204895,-91.011734,
20324,-0.7509829,0.33261204,10.341081,,,,-25.584267,9.176844,-90.75546,
20334,,,,0.06736749,0.09744949,-0.24986249,,,,30.0
20344,-0.5545536,0.5817418,7.337151,,,,-27.273489,8.0984535,-92.17786,
20354,,,,0.4471339,0.6002539,0.035628136,,,,
20364,-0.25990978,0.8907585,5.8519545,,,,-24.350319,7.5601234,-91.63463,
20374,,,,0.33155283,0.7472603,0.14641553,,,,
20384,-0.04192123,0.8763857,6.280745,,,,-24.811516,6.8253403,-91.01854,
20394,,,,0.06949801,0.5145002,0.055335514,,,,
20404,0.06347981,0.8093122,6.386146,,,,-24.043215,8.7301655,-92.56912,
20414,,,,-0.033832546,0.0724158,-0.08954033,,,,
20424,0.08264366,0.8284761,6.177739,,,,-24.96505,7.976795,-92.7381,
20434,,,,-0.03116939,-0.15821375,-0.14333615,,,,
20444,-0.22397761,1.1063516,6.3047,,,,-24.03708,4.740856,-93.14183,
20454,,,,-0.15473995,-0.21254219,-0.17156562,,,,
20464,-0.52101696,1.4129729,7.4401565,,,,-23.57886,6.528349,-92.377304,
20474,,,,-0.44608954,-0.19869375,-0.20778458,,,,
20484,-0.8995026,1.6141931,8.817556,,,,-21.886314,6.5493965,-92.64499,
20494,,,,-0.5888348,-0.059676882,-0.20512143,,,,
20504,-1.0935364,1.8010404,9.627228,,,,-23.735954,8.161415,-91.47154,
20514,,,,-0.5094727,0.07348106,-0.07835506,,,,
20524,-0.61444056,1.6309614,10.432109,,,,-23.582548,8.603659,-91.62761,
20534,,,,-0.37418425,0.093188435,0.06758604,,,,
20544,-0.16409063,1.2908034,11.423837,,,,-23.73211,7.097122,-93.625824,
20554,,,,-0.30014843,-0.02612108,0.06545551,,,,
20564,-0.003593579,1.0416737,11.984379,,,,-22.507921,9.3732605,-90.52644,
20574,,,,-0.105737835,-0.13584322,0.021779712,,,,
20584,-0.20002282,1.4800463,11.351973,,,,-24.351189,7.571705,-90.86096,33.0
20594,,,,0.11530435,-0.15022427,0.016986027,,,,
20604,-0.5497627,1.67408,11.490911,,,,-23.888546,7.9977703,-92.40202,
20614,,,,0.2031886,0.119287394,0.08889131,,,,
20624,-0.14492682,1.4632779,11.431024,,,,-23.273413,7.286278,-91.295135,
20634,,,,0.15898016,0.1714853,0.21192923,,,,
20644,0.7509821,0.94825006,11.867001,,,,-23.734388,8.140568,-92.864136,
20654,,,,-0.022647282,0.107569486,0.26093137,,,,
20664,0.6695359,0.64162874,13.21326,,,,-23.884426,5.4825535,-92.99187,
20674,,,,-0.12331468,0.21409586,0.12724079,,,,
20684,-0.37489277,0.5649735,14.391835,,,,-25.57948,6.797453,-92.12065,
20694,,,,-0.09188941,0.14165793,-0.05332136,,,,
20704,-0.37728822,-0.32854,14.219361,,,,-25.882996,5.0007095,-93.655045,
20714,,,,-0.018386228,-0.2759254,-0.10179085,,,,
20724,0.56413484,-1.9790248,13.246796,,,,-22.655724,6.830229,-92.82213,
20734,,,,0.093466446,-0.5097507,-0.05758242,,,,36.0
20744,0.59288055,-2.4102108,11.634639,,,,-23.73406,6.399454,-90.9868,
20754,,,,0.3209002,-0.31747064,0.04628077,,,,
20764,0.8947109,-1.7107311,9.735024,,,,-23.580488,5.971142,-90.20421,
20774,,,,0.5680413,-0.051154774,0.32218403,,,,
20784,2.2098286,-0.66630244,7.8952975,,,,-25.886703,5.3395405,-90.71854,
20794,,,,0.51584345,-0.0868411,0.4723862,,,,
20804,3.1320877,0.40926737,7.7252183,,,,-24.959465,4.13953,-93.00305,
20814,,,,0.16004542,-0.19656323,0.27691033,,,,
20824,3.3644493,1.2620577,8.494166,,,,-25.732536,3.6007576,-88.8374,
20834,,,,-0.20747049,-0.23118429,-0.11031297,,,,
20844,2.1307778,1.729176,9.296652,,,,-26.347029,4.593174,-90.876114,
20854,,,,-0.4604706,-0.08950426,-0.68662053,,,,
20864,-0.6575592,1.4824418,10.408154,,,,-25.730679,3.865467,-90.852356,
20874,,,,-0.54036534,0.22634637,-1.1670543,,,,
20884,-2.4326088,0.5745554,10.602188,,,,-24.656052,4.635069,-89.751175,
20894,,,,-0.44182846,0.37867904,-1.1137912,,,,
20904,-2.7871394,0.124205425,10.252448,,,,-24.805876,2.6978855,-90.9706,
20914,,,,-0.20533997,0.3360685,-0.6413468,,,,
20924,-1.457649,0.07869133,9.4835,,,,-23.269842,4.9231014,-91.57721,
20934,,,,0.13874015,0.13846214,-0.094334014,,,,
20944,0.2718864,0.34219396,7.773128,,,,-22.962765,3.4884243,-89.23149,
20954,,,,0.40718654,-0.18857376,0.109131314,,,,
20964,0.6144399,0.73984337,6.069943,,,,-23.730589,2.735073,-89.55139,
20974,,,,0.39440337,-0.306818,-0.035744514,,,,
20984,0.13773966,0.94345903,5.650734,,,,-23.88102,1.2401199,-90.77594,38.0
20994,,,,0.17922017,-0.07565583,-0.16730458,,,,
21004,-0.058689594,0.98657763,6.2232533,,,,-23.727247,0.6643982,-89.99162,
21014,,,,0.03327905,0.24232534,-0.108182445,,,,
21024,0.020361215,1.3195492,7.126349,,,,-24.498552,2.7071877,-90.653534,
21034,,,,-0.041289393,0.2891969,0.013257603,,,,
21044,0.06587529,1.5662836,8.053399,,,,-23.421856,1.712513,-89.22235,
21054,,,,-0.053007293,0.08306843,0.06758604,,,,
21064,0.36770558,1.5662836,8.690597,,,,-24.344286,2.2696114,-90.48985,
21074,,,,-0.022114651,-0.20242219,0.05693341,,,,
21084,0.54976195,1.5902383,9.327794,,,,-22.959806,0.699234,-88.42529,41.0
21094,,,,-0.0732473,-0.47619492,-0.024559248,,,,
21104,0.24793166,1.6309614,10.753103,,,,-22.344444,2.445053,-90.59691,
21114,,,,-0.17391469,-0.45968336,-0.11830244,,,,
21124,-0.21679117,1.1638432,12.398797,,,,-23.728777,1.40839,-89.535995,
21134,,,,-0.11479258,-0.15981165,-0.10338876,,,,
21144,-0.5042486,0.4715498,12.643136,,,,-24.959942,0.23823929,-87.69589,
21154,,,,0.17762226,0.07614422,0.015920762,,,,
21164,-0.54257625,0.29907534,11.718481,,,,-23.5742,0.24303436,-88.74483,
21174,,,,0.4668413,0.102775805,0.21565767,,,,
21184,-0.6791185,1.1590521,10.990256,,,,-24.80497,0.65963745,-89.24455,
21194,,,,0.47110236,0.031935785,0.40261143,,,,
21204,-0.29344648,1.7555263,10.669262,,,,-26.035439,-0.519783,-88.02339,
21214,,,,0.3161065,0.067089476,0.5437588,,,,
21224,-0.24553691,2.1507802,10.963904,,,,-25.110426,-0.96653366,-89.23332,
21234,,,,0.0977275,0.045784205,0.5277799,,,,46.0
21244,0.14253059,1.6453342,11.811905,,,,-23.727577,-0.34429932,-88.43231,
21254,,,,-0.099878885,-0.081514776,0.37811038,,,,
21264,0.48029304,0.5649735,13.196491,,,,-23.574821,-1.0512161,-86.56314,
21274,,,,-0.28363684,-0.34623274,0.14961132,,,,
21284,0.43956995,-0.6423477,14.64336,,,,-23.725645,-1.3831139,-88.88452,
21294,,,,-0.3331716,-0.504957,-0.034679253,,,,
21304,-0.056294113,-1.7562453,14.346321,,,,-24.805035,0.08158493,-88.464035,
21314,,,,-0.036495708,-0.3334496,-0.1428035,,,,
21324,-0.92585284,-1.8472735,11.3376,,,,-25.884415,-0.33529282,-85.7003,
21334,,,,0.45565602,0.07507896,-0.025091883,,,,
21344,-0.9593895,-0.92501414,7.9456024,,,,-25.884415,-0.33529282,-85.7003,
21354,,,,0.64633816,0.4601717,0.32964087,,,,
21364,-0.43957067,0.25835222,6.211276,,,,-24.49761,-1.357727,-86.427795,
21374,,,,0.3475318,0.65671283,0.5730536,,,,
21384,-0.013175502,1.4441142,6.9395013,,,,-24.49761,-1.357727,-86.427795,
21394,,,,-0.23783049,0.46922645,0.53363883,,,,
21404,0.55694836,1.4632779,9.320607,,,,-26.189596,-0.66257477,-87.56128,
21414,,,,-0.66766435,-0.04050214,0.29928088,,,,
21424,0.8923154,0.6943293,10.61177,,,,-24.807213,-0.3235817,-85.983185,
21434,,,,-0.58350855,-0.47672755,-0.015504511,,,,49.0
21444,0.3916604,0.30147082,10.278799,,,,-26.345198,-0.4966545,-86.174194,
21454,,,,-0.19521996,-0.4522265,-0.24293828,,,,
21464,-0.07545793,0.13857828,8.46063,,,,-25.267477,-0.49189377,-86.921265,
21474,,,,0.11903276,-0.029849501,-0.25785196,,,,
21484,-0.3605199,0.32063466,6.755049,,,,-24.499834,-0.6044655,-85.35321,
21494,,,,0.06470433,0.50171703,-0.17902248,,,,
21504,-0.53299433,0.29188892,6.846078,,,,-25.114693,-1.3439026,-84.89566,
21514,,,,-0.24581999,0.72648764,-0.11990034,,,,
21524,-0.7581693,0.21762908,8.03184,,,,-22.962746,-0.27471924,-84.54498,
21534,,,,-0.47325376,0.46603066,-0.09007296,,,,
21544,-0.6863049,0.08827323,9.040336,,,,-24.495953,-0.94561386,-88.44446,
21554,,,,-0.3363674,0.036729466,-0.008047667,,,,
21564,-0.101808205,0.27272508,8.113286,,,,-23.42182,-0.31415176,-86.72266,
21574,,,,0.045529578,-0.25728327,0.10007658,,,,
21584,0.43717444,1.0895833,6.3047,,,,-24.034847,-0.6437874,-88.43648,54.0
21594,,,,0.11583698,-0.2647401,0.13150184,,,,
21604,0.40603328,1.5279559,6.992202,,,,-25.113823,-1.355484,-85.66933,
21614,,,,-0.25647262,-0.03837161,0.050541826,,,,
21624,-0.07066698,1.7124077,9.368517,,,,-24.346336,0.2707405,-86.13336,
21634,,,,-0.54888743,0.10810213,-0.031483464,,,,
21644,-0.19762734,1.7315716,10.947137,,,,-23.883492,0.5494003,-87.672714,
21654,,,,-0.39921793,0.112363175,-0.01177609,,,,
21664,0.13534415,1.5638881,10.836945,,,,-24.49846,0.39033508,-87.84094,
21674,,,,-0.010396751,-0.04689372,0.013790234,,,,
21684,0.23834974,1.3530859,10.295567,,,,-23.730307,-0.59742737,-85.64369,
21694,,,,0.20638438,-0.22266218,-0.07302874,,,,
21704,,,,,,,-23.421764,-0.6043396,-86.40976,
21714,-0.19283639,1.3291311,9.821261,0.16430646,-0.15342006,-0.13907509,,,,
21724,,,,,,,-22.964155,0.7571411,-84.55696,
21734,-0.61204517,1.2620577,10.336289,0.0045169373,0.09744949,-0.07462664,,,,
21744,,,,,,,-23.575628,-0.46158218,-86.56999,
21754,-0.37249726,0.8691993,11.213035,-0.09082415,0.1443211,0.02976919,,,,
21764,,,,,,,-23.419466,-2.6611176,-85.921585,
21774,-0.7006779,0.9817867,12.180809,-0.12065152,-0.050089512,0.06545551,,,,
21784,,,,,,,-23.73081,-1.603817,-83.92964,58.0
21794,-0.7605648,1.3051764,12.935384,-0.02531044,-0.23970641,0.17890607,,,,
21804,,,,,,,-25.881786,-1.3833694,-86.771454,
21814,0.08983007,1.3003854,13.486343,0.1376749,-0.29030642,0.30780298,,,,
21824,,,,,,,-24.652288,-1.493576,-85.50148,
21834,1.321106,0.6224649,13.577373,0.23674439,-0.34783065,0.27477983,,,,
21844,,,,,,,-23.729244,-1.6246605,-85.322235,
21854,2.157128,-0.43394104,14.173847,0.14513172,-0.58485174,0.053737618,,,,
21864,,,,,,,-24.8065,-1.34618,-85.35225,
21874,2.2505517,-1.5095109,15.409914,0.17708965,-0.81015503,-0.19659932,,,,
21884,,,,,,,-23.577414,-2.0298042,-82.992294,54.0
21894,1.5606539,-2.1730585,13.903158,0.69320977,-0.6226686,-0.32496357,,,,
21904,,,,,,,-24.040321,-2.8865204,-80.672424,
21914,0.9330385,-1.8089458,10.077578,1.2652563,-0.14702848,-0.1577172,,,,
21924,,,,,,,-26.036491,-4.1239395,-82.564926,
21934,1.7331284,-0.84596336,6.10827,1.2892247,0.14219056,0.20873345,,,,50.0
21944,,,,,,,-25.266598,-5.134865,-81.91501,
21954,2.8853536,0.004431486,4.424249,0.67296976,0.24072744,0.29395455,,,,
21964,,,,,,,-23.421755,-5.235729,-80.62984,
21974,2.8206756,0.74702984,5.602824,-0.24049366,0.17201795,-0.06770243,,,,
21984,,,,,,,-24.498663,-4.9618835,-80.96933,
21994,1.2037276,1.2812215,7.5216026,-0.862075,0.2199548,-0.56677836,,,,
22004,,,,,,,-22.806036,-5.376114,-80.76767,
22014,-0.681514,1.1949843,9.105014,-1.0815191,0.37228748,-0.7894184,,,,
22024,,,,,,,-22.189583,-4.80262,-82.46138,
22034,-1.9822589,0.95064545,10.307544,-1.0559529,0.39199483,-0.68182683,,,,
22044,,,,,,,-24.035479,-5.556099,-81.72475,
22054,-1.9846544,0.4955046,10.429714,-0.7379717,0.32435063,-0.3915425,,,,
22064,,,,,,,-22.805166,-5.3876953,-81.541336,
22074,-1.1127001,0.28709796,8.934935,-0.32251894,0.27215272,-0.107117176,,,,
22084,,,,,,,-22.651466,-4.659897,-82.31976,57.0
22094,-0.08264437,0.47394526,7.622213,-0.13396731,0.25990215,0.052139726,,,,
22104,,,,,,,-21.574724,-4.063183,-82.918945,
22114,0.42519706,0.6967248,6.6783943,-0.13290204,0.34991693,0.051074456,,,,
22124,,,,,,,-22.95827,-4.6761475,-83.10103,
22134,0.09462103,1.0296963,6.611321,-0.26233158,0.5097065,-0.056517158,,,,
22144,,,,,,,-21.882397,-4.067852,-82.926544,
22154,-0.23116404,1.0201144,7.361106,-0.36672738,0.44951907,-0.095399275,,,,
22164,,,,,,,-21.26751,-3.4735107,-83.22766,
22174,-0.14013585,0.98657763,8.082145,-0.3209211,0.18426847,-0.025091883,,,,
22184,,,,,,,-19.726713,-3.4825935,-85.35594,64.0
22194,0.5425755,0.90992236,8.362416,-0.1755126,-0.098559,0.048943933,,,,
22204,,,,,,,-21.11133,-3.9365654,-84.76605,
22214,0.7773324,1.1997752,8.752879,-0.11905363,-0.21307482,0.0031376001,,,,
22224,,,,,,,-17.879307,-5.209591,-84.36139,
22234,0.44436085,1.4393232,9.720652,-0.14461994,-0.10228742,-0.04266873,,,,
22244,,,,,,,-18.18935,-4.603775,-82.983246,
22254,0.34854174,1.3698543,11.054934,-0.13503256,-0.038904242,-0.018700302,,,,
22264,,,,,,,-20.3442,-3.1739502,-83.827225,
22274,0.43238348,0.90752685,11.855022,0.03967063,-0.10282005,-0.026157144,,,,
22284,,,,,,,-20.189695,-3.0357933,-84.5988,
22294,0.041920513,0.49790007,11.46456,0.26124546,-0.15501796,-0.07835506,,,,
22304,,,,,,,-19.72828,-3.4617462,-83.96333,
22314,-0.13774037,0.13618281,10.712379,0.28148544,-0.14915901,-0.035744514,,,,
22324,,,,,,,-19.727942,-4.3346214,-83.1794,
22334,-0.42519778,0.53383225,10.856109,0.06044327,-0.08950426,0.07983657,,,,69.0
22344,,,,,,,-19.727337,-4.776848,-83.174255,
22354,-0.4347797,1.0919788,12.5545025,-0.08389993,0.040457886,0.22737555,,,,
22364,,,,,,,-18.805134,-5.041443,-82.064896,
22374,0.025152147,1.1877979,13.311474,0.07535696,0.0063694576,0.27211663,,,,
22384,,,,,,,-18.95778,-4.914898,-83.30827,
22394,0.07066625,1.2404984,12.341306,0.27988753,-0.0735253,0.174645,,,,
22404,,,,,,,-20.19041,-4.7630043,-81.793045,
22414,0.3820784,0.4619679,11.105239,0.15844752,-0.02612108,0.0020723366,,,,
22424,,,,,,,-19.575039,-4.898758,-81.621414,
22434,0.044315994,-0.8675227,12.566481,-0.35714,-0.039436877,-0.25092775,,,,
22444,,,,,,,-19.113348,-4.0258293,-82.858154,
22454,-0.6048587,-2.2065954,14.796671,-0.61173797,-0.15235479,-0.37875935,,,,
22464,,,,,,,-20.190474,-5.341057,-81.01253,
22474,-1.2300786,-2.7982783,14.703247,-0.23356944,-0.16354007,-0.27862456,,,,
22484,,,,,,,-19.729773,-4.744419,-81.00798,
22494,-1.2851746,-2.4940526,11.548402,0.5030603,0.030870518,0.12138185,,,,
22504,,,,,,,-19.727474,-4.051384,-83.95648,
22514,-0.68870044,-1.2388219,7.7946873,0.8806962,0.16988742,0.5613357,,,,
22524,,,,,,,-19.420269,-4.3299522,-83.1718,
22534,0.25751355,-0.031500697,5.3848357,0.5877487,0.13579898,0.74775684,,,,
22544,,,,,,,-18.497837,-4.887047,-81.90428,
22554,0.7725414,1.1350974,6.1609707,-0.105737835,0.024478937,0.61246836,,,,
22564,,,,,,,-19.113623,-5.3247147,-80.98593,
22574,1.1965411,1.1830069,8.594777,-0.5978896,-0.15821375,0.29235667,,,,
22584,,,,,,,-20.34312,-5.2145195,-82.25592,
22594,1.3570383,0.41166285,9.71107,-0.5803127,-0.31054646,-0.09380139,,,,
22604,,,,,,,-18.34479,-5.3084106,-80.657486,
22614,0.52820265,-0.108155996,9.3517475,-0.3230516,-0.24716325,-0.4229678,,,,
22624,,,,,,,-19.112806,-5.046112,-82.072495,
22634,-0.5832994,-0.38603148,8.340857,,,,,,,
22644,,,,-0.13130416,0.067089476,-0.5337552,-18.807697,-3.41531,-81.77426,
22654,-1.2492424,-0.53215563,7.6150265,,,,,,,
22664,,,,-0.13769573,0.43620327,-0.41551095,-18.345852,-4.2811813,-80.97893,
22674,-1.2731972,-0.46987328,7.892902,,,,,,,
22684,,,,-0.26712528,0.5496539,-0.19553405,-17.728943,-4.2926903,-82.35634,
22694,-1.1342595,-0.5082009,8.601963,,,,,,,
22704,,,,-0.29535475,0.32807904,-0.04586452,-16.960447,-3.4035072,-82.8118,
22714,-0.84201103,-0.43154564,8.867862,,,,,,,
22724,,,,-0.094019935,0.0037062988,0.05640078,-16.960447,-3.4035072,-82.8118,
22734,-0.09222628,-0.03868714,8.11089,,,,,,,74.0
22744,,,,0.19679701,-0.2077485,0.16132921,-17.11594,-3.8179588,-80.798935,
22754,0.59527606,0.56257796,7.078439,,,,,,,
22764,,,,0.29533386,-0.22212957,0.20766819,-17.11594,-3.8179588,-80.798935,
22774,0.5114343,1.4081819,6.5825753,,,,,,,
22784,,,,0.13394646,-0.05594846,0.13363236,-16.344196,-5.432419,-81.07057,
22794,0.14253059,1.6573117,7.011366,,,,,,,
22804,,,,-0.1621968,0.23912954,0.064922884,-15.732515,-3.4928665,-80.14923,
22814,-0.034734815,1.4369277,8.815161,,,,,,,
22824,,,,-0.42105585,0.3861359,0.029236559,-15.8864975,-3.6379814,-79.84186,
22834,-0.07545793,1.127911,10.920787,,,,,,,
22844,,,,-0.4359695,0.17361583,-0.020830829,-16.192741,-2.9380302,-82.02428,
22854,-0.24314144,1.113538,11.723271,,,,,,,
22864,,,,-0.20054628,-0.24450009,-0.077822424,-15.576335,-3.9559212,-81.68762,
22874,-0.13774037,1.1614476,11.435815,,,,,,,
22884,,,,-0.008798856,-0.4980328,-0.10498665,-14.654757,-2.7649574,-81.83327,
22894,0.19523114,0.8308716,11.617871,,,,,,,
22904,,,,-0.0034725387,-0.34783065,-0.08794243,-16.196276,-2.6015167,-79.24251,
22914,0.17846277,0.48831815,12.080198,,,,,,,
22924,,,,7.8851543E-4,-0.008544232,-0.06610453,-15.578148,-2.6292381,-81.70303,
22934,-0.3605199,0.7134931,11.677758,,,,,,,
22944,,,,0.044996947,0.26842427,-0.023493987,-15.885528,-2.3483543,-82.33299,
22954,-0.4275933,0.7949394,11.68734,,,,,,,
22964,,,,-2.767481E-4,0.37175483,0.11925132,-14.348356,-2.453888,-81.05542,
22974,0.23355877,0.30865726,12.801237,,,,,,,
22984,,,,-0.08709572,0.12567896,0.18902607,-14.34573,-3.5019684,-82.12657,
22994,0.45873374,-0.09617859,14.303203,,,,,,,
23004,,,,-0.16326205,-0.43464962,-0.018700302,-14.964306,-2.021,-81.07576,
23014,0.24553618,-1.1286298,14.602637,,,,,,,
23024,,,,-0.07910624,-0.80962235,-0.29779932,-14.966154,-1.417469,-80.154205,
23034,-0.02036193,-2.491657,13.347406,,,,,,,
23044,,,,0.112641186,-0.7398476,-0.3862162,-14.65733,-2.0070648,-80.44922,
23054,-0.4347797,-2.9899168,11.375928,,,,,,,
23064,,,,0.30119282,-0.2759254,-0.191273,-17.271809,-1.3328705,-82.0697,
23074,0.099411994,-2.5347757,9.423613,,,,,,,
23084,,,,0.43701392,0.20504111,0.3498809,-15.427122,-2.4447517,-79.379944,
23094,1.8864391,-1.6412622,7.6749134,,,,,,,69.0
23104,,,,0.39067495,0.27534848,0.7307126,-14.656725,-2.4492912,-80.44409,
23114,3.103342,-0.52976024,7.3467326,,,,,,,
23124,,,,0.03327905,0.0037062988,0.54961777,-17.891127,-1.4340324,-78.3696,
23134,3.0003364,0.36854422,8.527704,,,,,,,
23144,,,,-0.3954895,-0.21840113,0.028703924,-14.349209,-3.4556427,-79.031906,
23154,1.5846087,0.50269103,9.327794,,,,,,,
23164,,,,-0.5158643,-0.028251607,-0.4767636,-16.658901,-1.2911072,-79.888245,
23174,-0.6407909,0.4499905,9.354144,,,,,,,
23184,,,,-0.4860369,0.36323273,-0.71751314,-16.042202,-2.0234451,-80.17395,
23194,-1.9439311,-3.594756E-4,9.88594,,,,,,,
23204,,,,-0.4556769,0.53047913,-0.5838226,-13.426512,-0.8322754,-81.97986,
23214,-1.9487221,-0.5920427,10.005713,,,,,,,
23224,,,,-0.27618,0.33979693,-0.27649406,-13.119591,-0.5281601,-81.666214,
23234,-1.2109147,-0.66151154,9.205624,,,,,,,
23244,,,,-0.021049386,0.016489461,0.02976919,-13.430642,0.8147011,-80.29663,
23254,-0.053898618,-0.32374904,8.010281,,,,,,,
23264,,,,0.15205595,-0.06234004,0.24921347,-12.659703,-0.21012497,-80.57512,
23274,0.434779,0.10504159,7.0904164,,,,,,,
23284,,,,0.22555913,0.13739689,0.29235667,-12.040926,-1.8384972,-81.62421,
23294,0.49466592,0.4260357,6.4148917,,,,,,,
23304,,,,0.21117806,0.22741166,0.2694535,-13.582399,-0.083667755,-81.06383,
23314,0.5832986,0.7374479,6.2687674,,,,,,,
23324,,,,0.06790012,0.08040527,0.22737555,-11.736971,0.3865738,-81.02336,
23334,0.96657526,0.77817106,7.155094,,,,,,,
23344,,,,-0.13290204,-0.16993164,0.15973133,-13.582692,-0.36922073,-80.44145,
23354,0.9090837,0.73984337,8.731319,,,,,,,
23364,,,,-0.20427471,-0.32972118,0.043084983,-14.662977,1.2521477,-79.40375,
23374,0.46831566,0.8093122,9.984155,,,,,,,
23384,,,,-0.0934873,-0.39150646,-0.017102407,-13.122566,0.5245514,-80.2856,
23394,0.44915187,0.8907585,10.120697,,,,,,,
23404,,,,0.06576959,-0.3787233,0.053204987,-13.740647,2.1436615,-79.85544,
23414,0.9066882,0.957832,9.943432,,,,,,,
23424,,,,0.05351906,-0.24982642,0.12138185,-15.741377,2.9931335,-80.22456,
23434,0.9522023,0.5050865,11.071702,,,,,,,
23444,,,,-0.13609785,-0.0042831777,0.040421825,-15.895361,2.8480225,-79.91719,
23454,0.30542314,-0.17043844,12.726978,,,,,,,
23464,,,,-0.16166416,0.23114006,-0.05172347,-13.739375,1.8372612,-80.62569,
23474,-0.13774037,-0.39561346,12.829983,,,,,,,
23484,,,,0.11210856,0.22261797,0.031367086,-14.04691,1.1071281,-79.85106,
23494,-0.02036193,-0.057850927,11.356764,,,,,,,74.0
23504,,,,0.39014232,0.09585159,0.2161903,-13.122154,1.0979729,-81.375595,
23514,-0.13055395,0.68714285,10.630934,,,,,,,
23524,,,,0.34220546,0.07028527,0.32218403,-14.509023,1.5423508,-79.867584,
23534,-0.16409063,1.0680239,11.205849,,,,,,,
23544,,,,0.11636961,0.13739689,0.37597984,-15.125776,2.5648766,-79.894775,
23554,0.7533776,0.26553866,11.821486,,,,,,,
23564,,,,-0.10413994,0.13739689,0.2726493,-13.58586,1.6991348,-80.15596,
23574,0.6359992,-0.93459606,12.180809,,,,,,,
23584,,,,-0.31186634,0.052708417,-0.16464141,-15.43593,3.7510624,-79.142395,
23594,-1.0072991,-1.9143468,13.009644,,,,,,,
23604,,,,-0.4072074,0.05324105,-0.49167728,-14.9702835,2.9793282,-81.90764,
23614,-2.1307786,-2.4557252,13.203678,,,,,,,
23624,,,,-0.16645785,0.07561159,-0.38035724,-14.512337,3.4679356,-79.270905,
23634,-1.5462817,-2.6641316,11.078888,,,,,,,
23644,,,,0.31450862,0.01329367,0.031367086,-14.511375,3.8893147,-80.66864,79.0
23654,-0.20720926,-1.9263242,7.9959073,,,,,,,
23664,,,,0.44660127,-0.031447396,0.37225145,-13.7420025,2.8853397,-79.554535,
23674,0.5473665,-1.1765393,6.8388915,,,,,,,
23684,,,,0.08707486,0.20876953,0.4031441,-13.897212,4.638014,-80.50726,
23694,0.5258072,-0.5656924,7.9767437,,,,,,,
23704,,,,-0.3970874,0.41223484,0.25986612,-14.35569,3.2881145,-81.586395,
23714,0.41801065,-0.47466418,9.945827,,,,,,,
23724,,,,-0.67991483,0.2641632,0.010594444,-13.433461,2.8784275,-80.3206,
23734,-0.39884752,-0.9010594,11.474142,,,,,,,
23744,,,,-0.63144535,-0.0751232,-0.30365825,-13.740025,3.4379158,-82.03711,
23754,-1.5319089,-1.1789348,11.775972,,,,,,,
23764,,,,-0.3853695,-0.39044118,-0.3979341,-12.35995,4.9654465,-79.853775,
23774,-1.797807,-1.1957033,11.306458,,,,,,,
23784,,,,-0.12544522,-0.46980333,-0.2099151,-14.664827,4.6054955,-81.91887,
23794,-1.1558187,-1.0974886,9.756584,,,,,,,
23804,,,,0.1813507,-0.26740324,0.11285974,-13.901909,7.450369,-79.76613,
23814,-0.20960474,-0.7333758,7.916857,,,,,,,
23824,,,,0.34380338,0.047914732,0.368523,-13.437141,5.8219757,-80.66431,
23834,0.40124232,-0.37884507,7.1503034,,,,,,,
23844,,,,0.28042018,0.26735902,0.4052746,-14.514698,4.946659,-78.97856,
23854,0.7366092,-0.12492433,6.9466877,,,,,,,
23864,,,,0.19839491,0.25191268,0.2960851,-14.361,5.6744576,-79.75699,
23874,0.655163,0.06671393,6.7622356,,,,,,,
23884,,,,0.21117806,0.08786211,0.14268711,-14.668966,5.3842335,-79.14223,
23894,0.37968302,0.3158437,6.7047443,,,,,,,
23904,,,,0.19573174,-0.10441794,0.039889194,-14.973717,4.6170387,-80.84334,
23914,0.19762662,0.5745554,7.1335354,,,,,,,
23924,,,,0.11583698,-0.15342006,0.022844978,-13.741572,5.195242,-82.831314,
23934,0.12815776,0.9698093,7.9815345,,,,,,,
