Timestamp,acc_x,acc_y,acc_z,gyro_x,gyro_y,gyro_z,mag_x,mag_y,mag_z,light
3173,-0.37728822,0.8763857,10.077578,,,,,,,
3179,,,,0.009310624,-0.0080116,0.1911566,,,,
3186,,,,,,,-3.1718998,25.928091,-67.48683,
3193,0.24793166,1.0201144,9.215206,,,,,,,
3199,,,,-8.0937985E-4,-0.2295864,0.2044724,,,,
3206,,,,,,,-3.3271732,27.102715,-67.65906,
3213,0.57850766,1.0009506,9.790121,,,,,,,
3219,,,,-0.10999889,-0.14649585,0.17144923,,,,
3226,,,,,,,-4.40086,25.018013,-67.971146,
3233,0.61683536,0.94345903,10.08716,,,,,,,
3239,,,,-0.038093604,-0.02345792,0.08782605,,,,
3246,,,,,,,-2.7121506,26.971592,-67.17795,
3253,0.43717444,0.9722048,9.852403,,,,,,,
3259,,,,0.11690224,0.011163143,-0.0027213492,,,,
3266,,,,,,,-2.5562363,26.07789,-67.937546,
3273,0.21199948,0.9266907,9.55776,,,,,,,
3279,,,,0.15578435,-0.07831899,-0.046397153,,,,
3286,,,,,,,-1.4811401,27.13073,-67.613464,
3293,0.09462103,0.90992236,9.215206,,,,,,,
3299,,,,0.13181593,-0.12838636,-0.03627715,,,,
3306,,,,,,,-3.1733646,27.250141,-67.81169,
3313,0.19523114,0.95543647,9.198438,,,,,,,
3319,,,,0.058312744,-0.1725948,-0.0027213492,,,,
3326,,,,,,,-3.4777584,24.59674,-67.47902,
3333,0.30781865,1.0368828,9.30863,,,,,,,
3339,,,,-0.04235466,-0.17898639,0.022312343,,,,
3346,,,,,,,-4.866661,27.528543,-67.23799,
3354,0.2718864,1.0991652,9.852403,,,,,,,
3360,,,,-0.10041152,-0.054350566,0.050541826,,,,
3366,,,,,,,-4.866661,27.528543,-67.23799,
3374,0.32698244,1.072815,10.056019,,,,,,,
3380,,,,-0.07218204,0.016489461,0.07983657,,,,
3386,,,,,,,-3.0191898,26.379602,-67.02396,
3394,0.34614623,1.1997752,9.718257,,,,,,,
3400,,,,-0.05886624,0.008499985,0.06758604,,,,
3406,,,,,,,-3.789524,26.962198,-66.74034,
3414,0.34614623,1.2524759,9.591296,,,,,,,
3420,,,,-0.12384731,0.019685252,0.043617614,,,,
3426,,,,,,,-2.2481613,25.787743,-67.92651,
3434,0.3820784,1.0584421,9.703884,,,,,,,
3440,,,,-0.18456733,0.03513157,0.005800759,,,,
3446,,,,,,,-3.3267078,27.38595,-68.43614,
3454,0.17127633,0.90992236,10.175793,,,,,,,
3460,,,,-0.18030627,0.07561159,-0.028820302,,,,
3466,,,,,,,-3.3269196,26.66512,-67.34445,
3474,0.101807475,0.74463433,10.137465,,,,,,,
3480,,,,-0.046615712,0.10810213,-0.011243457,,,,
3486,,,,,,,-3.1723576,26.513096,-67.80313,
3494,0.16888088,0.73505247,9.313421,,,,,,,
3500,,,,0.064171694,0.0724158,-5.8190548E-5,,,,
3506,,,,,,,-3.6372814,27.130472,-65.50038,
3514,0.1880447,0.8404535,8.781625,,,,,,,
3520,,,,0.010908518,0.011695775,-0.014439248,,,,
3526,,,,,,,-2.712204,27.261778,-67.490845,
3534,-0.00598906,1.0201144,9.0547085,,,,,,,
3540,,,,-0.11905363,-0.014403181,-0.05758242,,,,
3546,,,,,,,-3.481247,26.52464,-66.727615,
3554,-0.31500578,1.1422838,9.548178,,,,,,,
3560,,,,-0.18350206,-0.02026213,-0.07409401,,,,
3566,,,,,,,-3.7899265,27.257017,-66.743774,
3575,-0.29823744,1.2452893,9.73263,,,,,,,
3581,,,,-0.16432732,-0.015468445,-0.050125573,,,,
3586,,,,,,,-1.4811974,27.420914,-67.926346,
3591,,,,,,,,,,705.0
3595,-0.06587604,1.2213346,9.751793,,,,,,,
3601,,,,-0.12171678,0.05696947,-0.05545189,,,,
3606,,,,,,,-3.171835,26.506145,-68.26735,
3615,-0.10659915,1.063233,9.533805,,,,,,,
3621,,,,-0.10946626,0.15231057,-0.110845596,,,,
3626,,,,,,,-2.4056854,27.860716,-67.18062,
3635,-0.56174004,1.0464647,9.593692,,,,,,,
3641,,,,-0.12917362,0.2114327,-0.17582668,,,,
3646,,,,,,,-2.5587463,27.413837,-67.334015,
3655,-0.91627085,1.0392781,9.948223,,,,,,,
3661,,,,-0.13982625,0.13899477,-0.17209826,,,,
3666,,,,,,,-3.3259563,27.0865,-68.74219,
3675,-0.94980764,1.0153234,9.806889,,,,,,,
3681,,,,-0.128641,-0.020794762,-0.12842245,,,,
3686,,,,,,,-3.0195007,27.107384,-67.65146,
3695,-0.7246326,1.0416737,9.58411,,,,,,,
3701,,,,-0.18456733,-0.11507058,-0.07143085,,,,
3706,,,,,,,-3.3272305,27.392899,-67.97194,
3715,-0.56413555,0.9290862,9.763771,,,,,,,
3721,,,,-0.28896317,-0.08737373,-0.03414662,,,,
3726,,,,,,,-3.1756802,27.570438,-66.11305,
3735,-0.8180562,0.787753,10.070392,,,,,,,
3741,,,,-0.31239897,0.0042389305,-0.022428725,,,,
3746,,,,,,,-3.4819794,28.560572,-68.60837,
3755,-0.94022566,0.893154,10.09195,,,,,,,
3761,,,,-0.23676524,0.011695775,0.074510254,,,,
3766,,,,,,,-3.0215073,29.449715,-68.76198,
3775,-0.46352547,1.0991652,10.113511,,,,,,,
3781,,,,-0.10094415,-0.071927406,0.23057136,,,,
3786,,,,,,,-3.17688,29.323133,-67.216736,
3791,,,,,,,,,,772.0
3796,0.041920513,1.4704643,9.821261,,,,,,,
3802,,,,0.048725374,-0.20828113,0.27211663,,,,
3806,,,,,,,-3.0164719,25.764488,-68.71918,
3816,0.11618033,1.8202043,9.457149,,,,,,,
3822,,,,0.12329382,-0.32226434,0.20713556,,,,
3826,,,,,,,-2.7126064,27.556595,-67.49426,
3836,0.077852696,1.9783058,9.349353,,,,,,,
3842,,,,0.064171694,-0.38085383,0.1357629,,,,
3846,,,,,,,-2.2499104,27.692478,-68.72244,
3856,0.077852696,2.02382,9.725443,,,,,,,
3862,,,,7.8851543E-4,-0.30948117,0.10114184,,,,
3866,,,,,,,-4.0971603,27.680676,-67.68489,
3876,0.08743459,2.1531758,9.802098,,,,,,,
3882,,,,0.024224313,-0.2077485,0.06705341,,,,
3886,,,,,,,-4.0937805,26.333149,-69.06209,
3896,-0.029943839,2.2561812,9.5362,,,,,,,
3902,,,,0.043399055,-0.11613585,0.022312343,,,,
3906,,,,,,,-4.096758,27.385859,-67.68147,
3916,-0.04192123,2.3112772,9.574528,,,,,,,
3922,,,,0.005582201,-0.022392657,0.019649185,,,,
3926,,,,,,,-3.635809,26.676662,-66.268906,
3936,0.06827077,2.2322264,9.9602,,,,,,,
3942,,,,-0.017853595,0.032468412,0.0073986542,,,,832.0
3946,,,,,,,-2.5600185,27.720238,-66.56377,
3956,0.15211254,2.0813112,9.85959,,,,,,,
3962,,,,0.051921163,0.054838944,-0.054386627,,,,
3966,,,,,,,-4.7142067,28.417648,-67.08972,
3976,-0.008384541,1.9615375,9.600878,,,,,,,
3982,,,,0.09186855,0.05004526,-0.13747719,,,,
3986,,,,,,,-4.251627,28.265663,-67.850266,
3996,-0.35093796,2.0621474,9.847611,,,,,,,
4002,,,,0.03221379,0.0037062988,-0.18008773,,,,
4006,,,,,,,-3.023018,29.180374,-67.05649,
4016,-0.35093796,2.0549612,10.379409,,,,,,,
4022,,,,0.010375887,-0.07938425,-0.15452142,,,,
4026,,,,,,,-5.7907124,28.396675,-67.42578,
4037,0.11138937,1.9184189,10.894437,,,,,,,
4043,,,,0.040735893,-0.2295864,-0.11990034,,,,
4046,,,,,,,-4.251316,27.537882,-67.22279,
4057,0.4132197,1.7459444,10.865691,,,,,,,
4063,,,,0.11636961,-0.2210643,-0.13321613,,,,
4066,,,,,,,-3.7921429,28.878517,-66.7626,
4077,0.33656436,1.5255604,11.023792,,,,,,,
4083,,,,0.17495911,-0.033577926,-0.1694351,,,,
4086,,,,,,,-3.6308098,25.018105,-68.725815,
4092,,,,,,,,,,904.0
4097,0.025152147,1.108747,11.186685,,,,,,,
4103,,,,0.21970017,0.13633162,-0.13055299,,,,
4106,,,,,,,-3.636715,28.714912,-67.99495,
4117,0.05868885,1.0704194,11.222617,,,,,,,
4123,,,,0.2687023,0.21356322,-0.01816767,,,,
4126,,,,,,,-4.555208,25.890865,-68.60414,
4137,0.37249655,1.618984,11.083679,,,,,,,
4143,,,,0.26603913,0.14645162,0.026573397,,,,
4146,,,,,,,-3.7877026,26.503757,-67.81833,
4157,0.600067,1.5351423,10.688425,,,,,,,
4163,,,,0.17495911,0.05963263,-0.059180308,,,,
4166,,,,,,,-5.7870865,25.74331,-67.39496,
4177,0.3820784,0.9746003,10.721962,,,,,,,
4183,,,,-0.022114651,-0.013870549,-0.18754458,,,,
4186,,,,,,,-2.2507248,27.413874,-67.63588,
4197,0.0059883296,0.35177588,11.500493,,,,,,,
4203,,,,-0.18456733,-0.048491616,-0.18381615,,,,
4206,,,,,,,-4.556288,25.181616,-66.7388,
4217,0.14732155,-0.16085654,12.096967,,,,,,,
4223,,,,-0.16539258,-0.10601584,-0.050658204,,,,
4226,,,,,,,-2.2529507,28.167133,-66.56131,
4238,0.8971064,-0.388427,11.737645,,,,,,,
4242,,,,,,,,,,985.0
4244,,,,-0.026375704,-0.23651062,0.080369204,,,,
4246,,,,,,,-3.7884636,25.934967,-66.418884,
4258,1.5175352,-0.30458525,10.48481,,,,,,,
4264,,,,0.12755488,-0.13850638,0.10859869,,,,
4266,,,,,,,-3.4803238,26.222874,-67.188385,
4278,1.7451057,-0.2399073,9.490685,,,,,,,
4284,,,,0.19999279,0.20397584,0.07770605,,,,
4286,,,,,,,-3.7875938,25.923386,-67.19255,
4298,1.7690606,-0.23272088,9.021172,,,,,,,
4304,,,,0.21490648,0.44259486,0.014322867,,,,
4306,,,,,,,-4.095484,27.07946,-68.45172,
4318,1.6085635,-0.06503737,8.498958,,,,,,,
4324,,,,0.27669176,0.48094434,-0.07143085,,,,
4326,,,,,,,-2.403471,26.239216,-67.16179,
4338,1.380993,0.06910941,7.5599303,,,,,,,
4344,,,,0.30225807,0.31636116,-0.17742456,,,,
4346,,,,,,,-3.7877846,26.939035,-68.287674,
4358,0.9258522,0.35656685,6.886801,,,,,,,
4364,,,,0.15418647,0.102775805,-0.2871467,,,,
4366,,,,,,,-2.4010906,26.496973,-69.64093,
4378,0.073061705,0.89794505,6.884405,,,,,,,
4384,,,,-0.1403589,-0.02345792,-0.37076986,,,,
4386,,,,,,,-2.4032593,26.960047,-68.25348,
4393,,,,,,,,,,1053.0
4398,-0.56174004,1.2740351,7.8402014,,,,,,,
4404,,,,-0.4892327,-0.070862144,-0.33028984,,,,
4406,,,,,,,-3.0149975,25.310678,-69.48772,
4418,-0.516226,1.3458996,9.301443,,,,,,,
4424,,,,-0.7646033,-0.16620322,-0.19340353,,,,
4426,,,,,,,-4.248808,26.201935,-67.82631,
4438,0.015570253,1.0871878,10.444087,,,,,,,
4444,,,,-0.7571465,-0.15235479,-0.079952955,,,,
4446,,,,,,,-3.4809818,26.955286,-67.50641,
4458,0.5186207,0.90752685,10.580628,,,,,,,
4464,,,,-0.4604706,-0.081514776,-0.008580298,,,,
4466,,,,,,,-3.0195942,26.67442,-67.027374,
4478,0.8659651,1.0776058,9.617647,,,,,,,
4484,,,,-0.12491258,-0.031447396,-0.022428725,,,,
4486,,,,,,,-3.1693287,25.1702,-68.870865,
4499,0.5305981,1.3698543,8.673828,,,,,,,
4505,,,,0.06736749,0.09744949,-0.1428035,,,,
4506,,,,,,,-6.7111273,27.479683,-68.67616,
4519,0.09222555,1.4417187,8.189941,,,,,,,
4525,,,,0.07056327,0.12780951,-0.22110038,,,,
4526,,,,,,,-3.6353054,27.683048,-67.98297,
4539,0.16648537,1.2261256,7.847388,,,,,,,
4545,,,,-0.0013420116,0.08679685,-0.21524143,,,,
4546,,,,,,,-4.2504997,27.816486,-68.30934,
4559,-0.08024889,1.1446793,8.2091055,,,,,,,
4565,,,,-0.0732473,0.10224317,-0.21896985,,,,
4566,,,,,,,-2.4038734,26.534035,-67.16521,
4579,-0.35333344,1.3842272,8.542076,,,,,,,
4585,,,,-0.06365992,0.058034733,-0.15026036,,,,
4586,,,,,,,-4.7125034,27.671337,-67.70009,
4599,-0.14492682,1.7627128,8.83193,,,,,,,
4605,,,,-0.05407256,-0.094297945,-0.009645563,,,,
4606,,,,,,,-3.7895145,27.830439,-67.83374,
4619,0.49227053,2.0884976,9.574528,,,,,,,
4625,,,,-0.036495708,-0.24556535,0.089956574,,,,
4626,,,,,,,-4.558695,27.818766,-67.85274,
4639,1.0935357,2.3232546,10.063206,,,,,,,
4645,,,,0.013039045,-0.29083908,0.036160767,,,,
4646,,,,,,,-4.5586395,27.52858,-67.539856,
4659,1.2013321,2.2442038,10.681239,,,,,,,
4665,,,,0.027952734,-0.1843127,-0.13641194,,,,
4666,,,,,,,-4.560398,28.565077,-67.24237,
4679,0.6527675,1.7579218,11.3376,,,,,,,
4685,,,,0.04819274,-0.088438995,-0.29886457,,,,
4686,,,,,,,-4.098984,28.139118,-66.6069,
4699,-0.12815847,1.3770406,11.8478365,,,,,,,
4705,,,,0.1547191,-0.056481093,-0.31857195,,,,
4706,,,,,,,-3.7864304,26.197357,-68.58858,
4720,-0.68870044,1.118329,12.43952,,,,,,,
4726,,,,0.31344336,-0.17792113,-0.19926247,-3.6345348,26.370264,-67.039154,
4740,-0.13055395,0.7925439,11.428628,,,,,,,
4746,,,,0.48921183,-0.38564754,-0.020830829,-4.5589886,27.533213,-67.23039,
4760,1.0528125,0.7087022,10.403364,,,,,,,
4766,,,,0.37842444,-0.4490307,0.07610814,-4.5589886,27.533213,-67.23039,
4780,1.6157498,0.48113173,11.375928,,,,,,,
4786,,,,-0.059398875,-0.2977633,-0.013373984,-5.0166874,25.73877,-68.45911,
4800,0.6503721,0.33261204,13.131814,,,,,,,
4806,,,,-0.37684742,0.033533674,-0.21151301,-5.0166874,25.73877,-68.45911,
4820,-0.8707568,0.5458096,14.034909,,,,,,,
4826,,,,-0.40614215,0.21090005,-0.3105825,-5.324791,26.174011,-68.62657,
4840,-1.1677961,0.028386295,14.219361,,,,,,,
4844,,,,,,,,,,1125.0
4846,,,,-0.26073366,0.16828953,-0.19180563,-6.404893,25.911493,-65.400345,
4860,-0.5904858,-0.7860763,13.723496,,,,,,,
4866,,,,0.027952734,0.02501157,0.011127076,-4.0985165,28.422356,-67.38399,
4880,0.20720854,-1.3106862,12.221532,,,,,,,
4886,,,,0.36404335,-0.1709969,0.14961132,-7.481471,27.194038,-67.29915,
4900,0.2647,-1.3442229,9.8931265,,,,,,,
4906,,,,0.5206371,-0.24343483,0.13469765,-6.095564,26.328278,-67.40941,
4920,-0.34854248,-0.9130367,8.082145,,,,,,,
4926,,,,0.46151498,0.030337887,0.13203448,-6.5577316,27.053688,-67.738846,
4941,-0.41801137,-0.5082009,7.234145,,,,,,,
4946,,,,,,,-5.017557,25.75035,-67.68544,
4947,,,,0.29373598,0.31636116,0.28010616,,,,
4961,0.2814684,-0.31177166,7.2053995,,,,,,,
4966,,,,,,,-3.7866402,25.476526,-67.49689,
4967,,,,0.058312744,0.2231506,0.40847036,,,,
4981,0.9258522,-0.10096955,7.9671617,,,,,,,
4986,,,,,,,-5.4794044,26.61622,-68.480774,
4987,,,,-0.18723048,-0.10282005,0.32111877,,,,
5001,0.9042927,0.2703296,8.690597,,,,,,,
5006,,,,,,,-5.3256607,26.185593,-67.852905,
5007,,,,-0.31452948,-0.22266218,0.051074456,,,,
5021,-0.27188718,0.68235195,9.114595,,,,,,,
5026,,,,,,,-5.3251934,26.46883,-68.62999,
5027,,,,-0.33690003,-0.038904242,-0.23707932,,,,
5041,-1.622937,0.7590072,9.344562,,,,,,,
5046,,,,,,,-4.556673,27.212915,-68.929016,
5047,,,,-0.28363684,0.196519,-0.3238983,,,,
5061,-1.9343493,0.5314368,9.236765,,,,,,,
5066,,,,,,,-5.478718,25.738716,-68.0063,
5067,,,,-0.179241,0.21090005,-0.13161825,,,,
5081,-1.2708018,0.34219396,8.872653,,,,,,,
5086,,,,,,,-5.9422207,26.192469,-66.78497,
5087,,,,-0.032767285,0.051643156,0.14375237,,,,
5101,-0.04192123,0.33979848,8.041422,,,,,,,
5106,,,,,,,-5.4816303,27.36948,-67.406204,
5107,,,,0.0742917,-0.2210643,0.28756297,,,,
5121,0.6431856,0.4595724,7.0904164,,,,,,,
5126,,,,,,,-5.9422207,26.192469,-66.78497,
5127,,,,0.06683486,-0.38298437,0.25720295,,,,
5141,0.42519706,0.78296196,6.8436823,,,,,,,
5145,,,,,,,,,,1207.0
5146,,,,,,,-4.2513695,27.828068,-67.535675,
5147,,,,0.047127478,-0.10282005,0.20340712,,,,
5162,0.08264366,1.1854024,7.409015,,,,,,,
5166,,,,,,,-4.094881,26.637232,-68.44658,
5168,,,,0.036474843,0.2417927,0.23536505,,,,
5182,0.2862593,1.288408,8.324088,,,,,,,
5186,,,,,,,-3.4810371,27.245472,-67.81929,
5188,,,,0.005582201,0.16189793,0.25880086,,,,
5202,0.31500506,1.3267356,8.70976,,,,,,,
5206,,,,,,,-4.7094727,26.328444,-68.76782,
5208,,,,0.089205384,-0.03783898,0.21405976,,,,
5222,0.28386384,1.618984,8.30732,,,,,,,
5226,,,,,,,-4.249815,26.93898,-67.83487,
5228,,,,0.16750227,-0.11720111,0.15440501,,,,
5242,0.6910952,1.5447241,8.364812,,,,,,,
5246,,,,,,,-4.5552635,26.181053,-68.91704,
5248,,,,0.037007473,-0.08737373,0.097946055,,,,
5262,0.96417975,1.2716396,9.854799,,,,,,,
5266,,,,,,,-3.326826,27.098082,-67.96852,
5268,,,,-0.17977364,-0.05275267,-0.008047667,,,,
5282,0.43956995,1.3195492,11.488515,,,,,,,
5286,,,,,,,-5.325798,26.911057,-68.63513,
5288,,,,-0.24155892,-0.066068456,-0.12788983,,,,
5302,0.03233859,1.3818316,12.202368,,,,,,,
5306,,,,,,,-5.326357,26.194859,-67.23398,
5308,,,,-0.13609785,-0.09749374,-0.14919509,,,,
5322,-0.003593579,1.3458996,12.76291,,,,,,,
5326,,,,,,,-5.7885494,27.065361,-67.71985,
5328,,,,-0.008798856,-0.0032179141,-0.08314874,,,,
5342,0.42519706,0.6607926,12.887475,,,,,,,
5346,,,,,,,-3.4798203,27.229258,-68.90242,
5348,,,,0.25006017,0.39891908,0.07610814,,,,
5362,1.721151,-0.28302595,11.742435,,,,,,,
5366,,,,,,,-5.480934,27.360214,-68.02513,
5368,,,,0.44447076,0.6279507,0.22258186,,,,
5382,2.276902,-0.0051504374,11.047747,,,,,,,
5386,,,,,,,-3.7882423,27.52404,-68.60397,
5388,,,,0.13554436,0.46443278,0.15387239,,,,
5403,1.4169251,0.42364025,12.779677,,,,,,,
5406,,,,,,,-3.7873726,27.512459,-69.37764,
5409,,,,-0.48017794,0.19119269,-0.13694456,,,,
5423,0.374892,-0.53215563,14.949982,,,,,,,
5426,,,,,,,-4.092911,26.321568,-69.835754,
5429,,,,-0.7704623,-0.19549797,-0.42243513,,,,
5443,0.41082418,-1.991002,15.548851,,,,,,,
5446,,,,,,,-3.0209122,28.139246,-67.66344,
5449,,,,-0.5227885,-0.4660749,-0.4133804,,,,
5463,0.88752437,-2.764742,13.81692,,,,,,,
5466,,,,,,,-4.4013996,26.038294,-68.756805,
5469,,,,0.07375907,-0.31054646,-0.05119084,,,,
5483,1.5343037,-1.9718381,10.990256,,,,,,,
5486,,,,,,,-3.4807262,26.517693,-67.1918,
5489,,,,0.6229024,0.11555897,0.45800513,,,,
5503,2.5499866,-0.6830708,8.201919,,,,,,,
5506,,,,,,,-3.634243,26.655817,-67.661514,
5509,,,,0.8727067,0.44419274,0.7014178,,,,
5523,3.2949803,0.17930141,6.3837504,,,,,,,
5526,,,,,,,-3.7870789,27.798012,-70.000015,
5529,,,,0.7368856,0.45111698,0.5086052,,,,
5543,3.512969,0.45717692,5.633966,,,,,,,
5546,,,,,,,-4.555666,26.47587,-68.920456,
5549,,,,0.28148544,0.11396108,0.03349761,,,,
5563,2.0589135,0.7542163,6.436451,,,,,,,
5566,,,,,,,-4.8643456,27.208246,-68.936615,
5569,,,,-0.2894958,-0.19017164,-0.5305594,,,,
5583,-0.31740126,0.9674139,8.355229,,,,,,,
5586,,,,,,,-3.016819,25.76912,-68.40971,
5589,,,,-0.6026833,-0.1406369,-0.84641004,,,,
5603,-2.0397503,1.063233,9.672743,,,,,,,
5606,,,,,,,-3.3231907,25.312958,-69.03111,
5609,,,,-0.58084536,-5.5475545E-4,-0.7334921,,,,
5623,-1.8864398,0.6967248,9.852403,,,,,,,
5626,,,,,,,-4.5570755,27.507734,-68.93245,
5629,,,,-0.42105585,-0.014403181,-0.32176775,,,,
5644,-0.84440655,0.29907534,9.699093,,,,,,,
5646,,,,,,,-2.7102375,26.946114,-68.880005,
5650,,,,-0.24155892,-0.10335268,0.039356563,,,,
5664,0.17367181,0.15295115,9.102619,,,,,,,
5666,,,,,,,-4.402672,26.344694,-67.98656,
5670,,,,-0.05407256,-0.17845374,0.18156922,,,,
5684,0.70546806,0.124205425,8.66185,,,,,,,
5686,,,,,,,-4.0960064,27.086409,-67.98752,
5690,,,,0.07908539,-0.1406369,0.094750255,,,,
5704,0.35812366,0.3709397,7.9743485,,,,,,,
5706,,,,,,,-4.095484,27.07946,-68.45172,
5710,,,,0.23727702,0.063361056,-0.09380139,,,,
5724,-0.45633903,0.68235195,6.814936,,,,,,,
5726,,,,,,,-4.400337,25.011063,-68.43535,
5730,,,,0.30651912,0.16243057,-0.1662393,,,,
5744,-1.0671861,1.0536511,6.340632,,,,,,,
5746,,,,,,,-3.632082,25.324503,-67.95558,
5750,,,,0.18348122,0.16882215,-0.05278873,,,,
5764,-0.8252427,1.3243401,7.4521337,,,,,,,
5766,,,,,,,-3.4780083,25.902576,-68.887024,
5770,,,,-0.010929383,0.11023265,0.17624292,,,,
5784,0.104202926,1.3890182,8.431885,,,,,,,
5786,,,,,,,-3.4796276,26.213608,-67.80731,
5790,,,,-0.067920975,-0.07831899,0.40154618,,,,
5804,1.2228913,1.338713,8.51333,,,,,,,
5806,,,,,,,-4.4022064,26.62793,-68.76364,
5810,,,,-0.09295467,-0.3686033,0.47877777,,,,
5824,1.8600888,1.2692441,9.445172,,,,,,,
5826,,,,,,,-2.5543594,25.329264,-68.70265,
5830,,,,-0.29375684,-0.57419914,0.37970826,,,,
5844,2.0900548,1.1207244,11.701713,,,,,,,
5846,,,,,,,-3.7880497,26.508389,-67.50888,
5850,,,,-0.4151969,-0.48471704,0.19914608,,,,
5865,1.7427102,0.86680377,13.031203,,,,,,,
5866,,,,,,,-3.7868328,26.492176,-68.591995,
5871,,,,-0.2628642,-0.21840113,0.012724971,,,,
5885,0.68869966,0.56976444,12.992876,,,,,,,
5886,,,,,,,-4.8643456,27.208246,-68.936615,
5891,,,,0.015702203,0.07720948,-0.0890077,,,,
5905,-0.52101696,0.59851015,12.614389,,,,,,,
5906,,,,,,,-3.4772472,26.471367,-70.28647,
5911,,,,0.24739702,0.166159,0.047878668,,,,
5925,-0.25272334,0.8093122,12.161645,,,,,,,
5926,,,,,,,-5.478718,25.738716,-68.0063,
5931,,,,0.3928055,0.05057789,0.368523,,,,
5945,0.65995395,0.89794505,11.950843,,,,,,,
5946,,,,,,,-5.4777107,25.00167,-67.99774,
5951,,,,0.3794897,-0.11507058,0.45853776,,,,
5965,1.3474562,0.18409237,11.6561985,,,,,,,
5966,,,,,,,-3.6336842,27.372015,-69.06268,
5971,,,,0.17975278,-0.2881759,0.23856083,,,,
5985,1.0264621,-0.7669126,11.974797,,,,,,,
5986,,,,,,,-5.323784,25.436966,-68.61801,
5991,,,,-0.21759048,-0.40269175,-0.063974,,,,
6005,0.34854174,-2.0916123,13.083904,,,,,,,
6006,,,,,,,-5.7858677,25.727097,-68.4781,
6011,,,,-0.46686217,-0.25195694,-0.21204562,,,,
6025,-0.34135604,-2.9923124,12.961735,,,,,,,
6026,,,,,,,-5.01276,24.2392,-70.14404,
6031,,,,-0.18137154,0.1043737,-0.08261611,,,,
6045,-0.42280233,-2.5683126,10.963904,,,,,,,
6046,,,,,,,-5.0159264,26.30756,-69.85855,
6051,,,,0.3693697,0.3190243,0.26465982,,,,
6065,0.3772875,-1.4927425,8.314507,,,,,,,
6066,,,,,,,-3.0150623,24.732624,-68.7072,
6071,,,,0.58188975,0.2556411,0.50061566,,,,
6085,0.68869966,-0.16804296,6.951479,,,,,,,
6086,,,,,,,-2.2480965,26.365797,-68.70703,
6091,,,,0.36404335,0.1879969,0.50753987,,,,
6106,0.56413484,0.6967248,7.3443375,,,,-4.708603,26.316862,-69.54149,
6112,,,,-0.07218204,0.08786211,0.36479458,,,,
6126,0.43956995,0.6104876,8.740901,,,,-3.62994,25.006523,-69.49948,
6132,,,,-0.45834005,-0.09749374,0.1607966,,,,
6146,0.6048579,-0.24709377,9.981759,,,,-3.7848644,26.17651,-69.98117,
6152,,,,-0.5861717,-0.19816113,0.018051289,,,,
6166,0.31500506,-0.4794552,10.343477,,,,-3.7848644,26.17651,-69.98117,
6172,,,,-0.44236112,-0.11560321,-0.04852768,,,,
6186,-0.2503279,-0.33333102,9.85959,,,,-4.400997,25.743477,-68.75337,
6192,,,,-0.13769573,0.10011265,0.018051289,,,,
6206,-0.180859,-0.2423028,8.611546,,,,-4.400997,25.743477,-68.75337,
6212,,,,0.1430012,0.24711902,0.1677208,,,,
6226,0.13773966,0.04036367,7.4808793,,,,-3.7814846,24.828983,-71.35837,
6232,,,,0.20744964,0.2114327,0.25187665,,,,
6246,0.6240218,0.15295115,7.2940326,,,,-4.553734,25.437057,-69.37268,
6252,,,,0.09826013,0.064426325,0.2529419,,,,
6266,0.82524204,0.27272508,7.3922467,,,,-3.4765415,24.580528,-68.56213,
6272,,,,0.014104309,-0.015468445,0.16452502,,,,
6286,0.8060781,0.36375326,7.222168,,,,-3.3214512,25.289795,-70.578445,
6292,,,,-0.0056030657,0.009032616,0.10273974,,,,
6306,0.92106116,0.5649735,7.4449472,,,,-3.1676426,25.437222,-70.73108,
6312,,,,-0.07058414,-0.0064137047,0.100609206,,,,
6326,,,,,,,-2.0901966,24.143097,-69.60594,
6327,1.2061231,0.9769957,8.285761,,,,,,,
6333,,,,-0.13609785,-0.080449514,0.100609206,,,,
6346,,,,,,,-1.4785137,26.082651,-68.684616,
6347,1.6157498,1.568679,9.275093,,,,,,,
6353,,,,-0.18882838,-0.13158216,0.06385762,,,,
6366,,,,,,,-4.4001274,25.731895,-69.52704,
6367,1.9822581,1.348295,10.369827,,,,,,,
6373,,,,-0.2777779,-0.092167415,-0.07089822,,,,
6386,,,,,,,-4.0909977,26.29609,-71.53783,
6387,1.3115242,0.9793912,12.094571,,,,,,,
6393,,,,-0.36726004,-0.07565583,-0.27809194,,,,
6406,,,,,,,-4.859684,26.422558,-72.177475,
6407,0.33656436,0.727866,13.994185,,,,,,,
6413,,,,-0.14781573,-0.08364531,-0.32016987,,,,
6426,,,,,,,-4.708603,26.316862,-69.54149,
6427,0.03473407,0.80691683,13.287519,,,,,,,
6433,,,,0.49453816,-0.0735253,-0.15984772,,,,
6446,,,,,,,-3.6301308,26.022171,-70.594604,
6447,0.655163,0.95543647,10.192561,,,,,,,
6453,,,,1.06765,-0.010674759,0.008463917,,,,
6466,,,,,,,-5.4728584,23.200333,-70.14346,
6467,1.1031175,1.2404984,7.0401115,,,,,,,
6473,,,,0.96538466,0.28067482,-0.01497188,,,,
6486,,,,,,,-4.8555546,24.775581,-73.8607,
6487,0.5114343,1.417764,7.516812,,,,,,,
6493,,,,0.2873444,0.83780766,-0.14173825,,,,
6506,,,,,,,-4.3982143,25.706415,-71.229095,
6507,-0.5377853,1.5375378,10.300358,,,,,,,
6513,,,,-0.17497995,1.0711002,-0.1662393,,,,
6526,,,,,,,-3.4722843,24.089657,-71.80641,
6527,-0.62402254,1.6525208,12.084989,,,,,,,
6533,,,,-0.22504734,0.48254225,-0.15558667,,,,
6546,,,,,,,-4.2417755,24.805765,-72.452896,
6548,0.08264366,0.9650184,12.058639,,,,,,,
6554,,,,-0.16912101,-0.28391486,-0.28022248,,,,
6566,,,,,,,-4.087446,24.946243,-73.06975,
6568,0.27907288,-0.21595255,11.996357,,,,,,,
6574,,,,-0.30867052,-0.4639444,-0.48475307,,,,
6586,,,,,,,-4.3959885,24.953156,-72.30368,
6588,0.19044018,-1.5646069,13.632469,,,,,,,
6594,,,,-0.6490222,-0.30202433,-0.51617837,,,,
6606,,,,,,,-5.011387,25.234003,-72.631775,
6608,0.37968302,-2.6785047,14.724807,,,,,,,
6614,,,,-0.6261191,-0.14809375,-0.32176775,,,,
6626,,,,,,,-4.857277,23.785408,-71.06352,
6628,0.7964963,-2.6138265,13.347406,,,,,,,
6634,,,,-0.007200961,0.17201795,0.07078183,,,,
6646,,,,,,,-5.3196926,25.816654,-72.80095,
6648,1.8241565,-1.610121,10.374618,,,,,,,
6654,,,,0.70226455,0.5736223,0.5011483,,,,
6666,,,,,,,-3.3204079,25.275898,-71.506836,
6668,3.1105285,-0.5992291,7.878529,,,,,,,
6674,,,,0.9701783,0.5453928,0.62791467,,,,
6686,,,,,,,-5.6248913,23.75289,-72.4751,
6688,3.769285,0.20086074,6.2639766,,,,,,,
6694,,,,0.7235698,0.042588413,0.27318192,,,,
6706,,,,,,,-4.700281,23.600958,-73.68848,
6708,2.782348,0.5865328,6.1992984,,,,,,,
6714,,,,0.19946016,-0.32492748,-0.399532,,,,
6726,,,,,,,-3.0104027,23.946938,-71.94803,
6728,0.2647,0.7805666,6.9850154,,,,,,,
6734,,,,-0.27138633,-0.29403484,-0.9428164,,,,
6746,,,,,,,-4.085478,24.630579,-74.45892,
6748,-1.8265527,0.59851015,8.343252,,,,,,,
6754,,,,-0.63623905,-0.080449514,-1.0163196,,,,
6766,,,,,,,-4.8537426,23.448898,-73.84529,
6768,-2.8015125,0.4955046,10.674053,,,,,,,
6774,,,,-0.8311823,0.0026410352,-0.7265679,,,,
6786,,,,,,,-5.0107727,25.660015,-73.72005,
6789,-2.518846,0.25835222,12.08978,,,,,,,
6795,,,,-0.5329085,-0.042100035,-0.2855488,,,,
6806,,,,,,,-5.010929,24.648998,-72.315445,
6809,-0.9881353,0.10504159,10.709985,,,,,,,
6815,,,,0.09985802,-0.21467271,0.11658817,,,,
6826,,,,,,,-4.240906,24.794184,-73.22656,
6829,0.48029304,0.27991152,8.326484,,,,,,,
6835,,,,0.48601604,-0.306818,0.23429976,,,,
6846,,,,,,,-4.8510513,22.978874,-75.69696,
6849,0.82763755,0.67995644,6.7837954,,,,,,,
6855,,,,0.4721676,-0.18644322,0.10806605,,,,
6866,,,,,,,-5.9336987,26.078972,-74.3669,
6869,0.2503271,1.1470747,5.9621463,,,,,,,
6875,,,,0.2905402,0.11982002,-0.063441366,,,,
6886,,,,,,,-7.0094156,23.731878,-72.50929,
6889,-0.32937866,1.3411086,6.110666,,,,,,,
6895,,,,0.051388532,0.32008958,-0.10232349,,,,
6906,,,,,,,-6.3946123,24.7615,-73.279755,
6909,-0.4491526,1.2764306,7.1790495,,,,,,,
6915,,,,-0.17604521,0.15816951,-0.03095083,,,,
6926,,,,,,,-6.0867558,25.632092,-74.52031,
6929,-0.1688816,1.1806115,8.623523,,,,,,,
6935,,,,-0.25380945,-0.12519057,0.07344499,,,,
6946,,,,,,,-6.0879745,25.648308,-73.437164,
6949,0.15929896,1.4153684,9.303839,,,,,,,
6955,,,,-0.1542073,-0.34729803,0.19275449,,,,
6966,,,,,,,-7.0095444,25.325584,-74.38493,
6969,0.710259,1.7770857,9.5362,,,,,,,
6975,,,,-0.06365992,-0.4202686,0.2827693,,,,
6986,,,,,,,-7.1629133,25.606485,-75.16582,
6989,1.2923603,1.4824418,9.902708,,,,,,,
6995,,,,-0.115325205,-0.26900116,0.22204925,,,,
7006,,,,,,,-6.0873146,24.915894,-73.11914,
7010,1.1079085,0.6943293,11.203453,,,,,,,
7016,,,,-0.25966844,-0.014403181,0.03349761,,,,
7026,,,,,,,-6.6999674,24.436533,-74.98601,
7030,0.33656436,-0.09378314,12.281419,,,,,,,
7036,,,,-0.23037367,0.104906335,-0.076224536,,,,
7046,,,,,,,-8.089894,26.3689,-72.56671,
7050,-0.83722013,0.22960648,11.977193,,,,,,,
7056,,,,-0.006668329,0.07561159,0.02124708,,,,
7066,,,,,,,-7.6279545,25.935993,-72.39545,
7070,-1.1893554,1.1159335,11.462165,,,,,,,
7076,,,,0.11583698,0.057502102,0.38130617,,,,
7086,,,,,,,-8.395542,25.75838,-73.650604,
7090,0.0083838105,1.1350974,11.507679,,,,,,,
7096,,,,0.08281381,0.06655685,0.7019505,,,,
7106,,,,,,,-6.706376,27.126957,-72.54108,
7110,0.8132646,0.7614027,11.58673,,,,,,,
7116,,,,0.007180097,0.078807384,0.6556116,,,,
7126,,,,,,,-8.24395,27.527308,-73.82208,
7130,0.99053,0.30865726,11.797532,,,,,,,
7136,,,,-0.1675231,-0.0064137047,0.34561986,,,,
7146,,,,,,,-5.934101,26.373789,-74.370316,
7150,1.1079085,-0.3141671,13.21326,,,,,,,
7156,,,,-0.48656955,-0.2812517,0.040954456,,,,
7166,,,,,,,-8.398225,27.096643,-72.892334,
7170,1.4648348,-1.4544148,14.542749,,,,,,,
7176,,,,-0.581378,-0.30522013,-0.09699717,,,,
7186,,,,,,,-7.6307745,27.99972,-72.41942,
7190,1.1462362,-2.4796798,13.6109085,,,,,,,
7196,,,,-0.20640524,0.072948426,-0.11457402,,,,
7206,,,,,,,-8.396485,27.07348,-74.43967,
7210,0.6647449,-2.4461432,10.48481,,,,,,,
7216,,,,0.22662438,0.45218223,0.041487087,,,,
7226,,,,,,,-8.092366,28.427994,-72.90015,
7230,0.6264173,-1.7107311,7.931229,,,,,,,
7236,,,,0.29586652,0.67908335,0.2577356,,,,
7246,,,,,,,-9.939497,28.704063,-72.330246,
7251,0.45873374,-1.0232288,7.5216026,,,,,,,
7257,,,,-0.036495708,0.64819074,0.2950198,,,,
7266,,,,,,,-8.090489,27.679367,-73.66525,
7271,-0.23835048,-0.30458525,9.01159,,,,,,,
7277,,,,-0.44768745,0.2316727,0.113925,,,,
7286,,,,,,,-8.707216,28.5568,-73.535995,
7291,-0.346147,-0.29500332,10.324313,,,,,,,
7297,,,,-0.5888348,-0.36594015,-0.06290874,,,,
7306,,,,,,,-5.631996,29.202393,-72.847916,
7311,0.23595428,-0.7717035,10.669262,,,,,,,
7317,,,,-0.4402306,-0.601896,-0.10498665,,,,
7326,,,,,,,-8.401329,29.743057,-73.38736,
7331,0.5976715,-1.0376016,9.81168,,,,,,,
7337,,,,-0.14195679,-0.3803212,-0.13055299,,,,
7346,,,,,,,-9.480351,30.189789,-72.02649,
7351,0.14253059,-0.8267995,8.446258,,,,,,,
7357,,,,0.021028522,-0.017066339,-0.19500142,,,,
7366,,,,,,,-9.019832,29.920506,-70.7738,
7371,-0.7677513,-0.6495341,8.062981,,,,,,,
7377,,,,0.06044327,0.29771903,-0.20032774,,,,
7386,,,,,,,-7.634556,29.642067,-71.04564,
7391,-1.242056,-0.52976024,7.7587547,,,,,,,
7397,,,,0.18507911,0.26629376,-0.06290874,,,,
7406,,,,,,,-9.327137,31.647684,-73.27768,
7411,-0.31500578,-0.6806754,6.1585755,,,,,,,
7417,,,,0.36031494,0.018087355,0.16718818,,,,
7426,,,,,,,-9.788051,30.330214,-72.19054,
7431,0.3988468,-0.57766986,5.109356,,,,,,,
7437,,,,0.25591913,-0.10654847,0.24015872,,,,
7446,,,,,,,-11.326842,30.746778,-72.38841,
7451,0.05868885,0.07390037,5.8423724,,,,,,,
7457,,,,-0.04288729,0.07667685,0.19861344,,,,
7466,,,,,,,-8.246715,29.30085,-73.53316,
7472,-0.101808205,0.63923335,7.267682,,,,,,,
7478,,,,-0.26552737,0.31849167,0.24228925,,,,
7486,,,,,,,-9.325132,29.305353,-72.167145,
7492,0.16648537,0.9362726,8.496562,,,,,,,
7498,,,,-0.36939058,0.20450848,0.25240928,,,,
7506,,,,,,,-7.7868547,29.763977,-72.598495,
7512,0.31500506,0.9650184,9.035544,,,,,,,
7518,,,,-0.33263898,-0.16300742,0.12830606,,,,
7526,,,,,,,-9.786833,30.314,-73.27367,
7532,-0.034734815,0.90992236,9.713466,,,,,,,
7538,,,,-0.2649947,-0.5129465,-0.019765563,,,,
7546,,,,,,,-9.943324,31.504835,-72.36278,
7552,-0.22637309,0.7637982,10.53751,,,,,,,
7558,,,,-0.17977364,-0.64557177,-0.032016095,,,,
7566,,,,,,,-9.943324,31.504835,-72.36278,
7572,0.24553618,0.6703745,10.674053,,,,,,,
7578,,,,-0.088160984,-0.5417086,0.085162885,,,,
7586,,,,,,,-10.561506,31.822742,-70.21512,
7592,1.0360441,0.5649735,10.530324,,,,,,,
7598,,,,-0.113727316,-0.1944327,0.1623945,,,,
7606,,,,,,,-10.561506,31.822742,-70.21512,
7612,1.1414452,0.5961147,11.184289,,,,,,,
7618,,,,-0.1808389,0.26043478,0.13523026,,,,
7626,,,,,,,-9.944807,31.090403,-70.50084,
7632,0.33895987,0.7422389,12.202368,,,,,,,
7638,,,,-0.113727316,0.4766833,0.06332499,,,,
7646,,,,,,,-11.176412,32.241734,-71.16385,
7652,0.029943138,0.6560017,12.394006,,,,,,,
7658,,,,0.05778011,0.24658638,0.051074456,,,,
7666,,,,,,,-10.406481,31.953957,-71.4509,
7672,0.7222364,0.14336924,12.298187,,,,,,,
7678,,,,0.156317,-0.13264741,0.06758604,,,,
7686,,,,,,,-11.175551,31.361912,-70.84412,
7692,1.1749818,-0.3357264,12.621577,,,,,,,
7698,,,,0.059910636,-0.3265254,-0.031483464,,,,
7706,,,,,,,-10.716175,32.555138,-70.3822,
7713,0.5545529,-0.69983923,13.565394,,,,,,,
7719,,,,-0.07218204,-0.15874638,-0.15398878,,,,
7726,,,,,,,-12.404857,30.456465,-71.01897,
7733,0.14013514,-1.6388667,14.363089,,,,,,,
7739,,,,-0.10094415,-0.057546355,-0.16570668,,,,
7746,,,,,,,-10.562258,32.122192,-69.90907,
7753,0.6503721,-3.076154,14.334344,,,,,,,
7759,,,,-0.011462016,-0.25728327,-0.09220348,,,,
7766,,,,,,,-11.79333,31.385002,-68.693054,
7773,1.3450608,-3.75647,13.081508,,,,,,,
7779,,,,0.17229596,-0.37392962,-0.005384508,,,,
7786,,,,,,,-11.331786,32.115154,-69.61861,
7793,1.5295126,-3.2630014,11.126798,,,,,,,
7799,,,,0.40878442,-0.043165296,0.17517765,,,,
7806,,,,,,,-12.254481,32.241604,-70.10733,
7813,1.9343486,-2.2569003,9.1337595,,,,,,,
7819,,,,0.63035923,0.4633675,0.52138835,,,,
7826,,,,,,,-11.331502,31.532465,-69.14755,
7833,3.112924,-1.0783247,7.416202,,,,,,,
7839,,,,0.65059924,0.6210266,0.73390836,,,,
7846,,,,,,,-12.408756,31.810942,-69.17758,
7853,4.119025,-0.03629166,6.7358856,,,,,,,
7859,,,,0.37043494,0.36323273,0.5267146,,,,
7866,,,,,,,-11.788377,30.884867,-72.556244,
7873,3.8435452,0.5410187,7.2868457,,,,,,,
7879,,,,-0.064192556,-0.04955688,-0.02722241,,,,
7886,,,,,,,-11.483333,31.937614,-71.47749,
7893,1.9487214,0.7973349,8.340857,,,,,,,
7899,,,,-0.39389163,-0.20561796,-0.60672575,,,,
7906,,,,,,,-11.175596,32.520336,-72.25041,
7913,-0.15211326,0.63923335,9.392472,,,,,,,
7919,,,,-0.546757,-0.09642847,-0.85546476,,,,
7926,,,,,,,-11.331438,32.11052,-69.92807,
7934,-1.2037283,0.34458944,10.1901655,,,,,,,
7940,,,,-0.49615693,0.04099052,-0.69727314,,,,
7946,,,,,,,-12.252458,31.635756,-71.18359,
7954,-0.901898,0.06910941,10.056019,,,,,,,
7960,,,,-0.25221157,0.06495895,-0.3382793,,,,
7966,,,,,,,-11.638706,31.811033,-69.93225,
7974,0.24074522,0.09066872,9.423613,,,,,,,
7980,,,,0.0119737815,-0.016533708,-0.04320136,,,,
7986,,,,,,,-12.866045,30.58992,-71.49628,
7994,1.0623944,0.2942844,8.721737,,,,,,,
8000,,,,0.21277596,-0.035175823,-0.0069824033,,,,
8003,,,,,,,,,,1285.0
8006,,,,,,,-13.332488,32.81953,-69.8313,
8014,0.9498069,0.6703745,7.60784,,,,,,,
8020,,,,0.37469602,0.12567896,-0.14866245,,,,
8026,,,,,,,-12.254133,32.236973,-70.41678,
8034,0.6695359,0.8524308,6.400519,,,,,,,
8040,,,,0.38960966,0.3259485,-0.2706351,,,,
8046,,,,,,,-11.791298,31.647392,-70.86275,
8054,0.2814684,0.74702984,5.885491,,,,,,,
8060,,,,0.20531912,0.40051693,-0.31004986,,,,
8066,,,,,,,-12.556092,29.551146,-72.25037,
8074,-0.025152892,0.8524308,6.814936,,,,,,,
8080,,,,-0.06951887,0.2891969,-0.26690668,,,,
8086,,,,,,,-12.405259,30.751282,-71.0224,
8094,0.044315994,1.0584421,9.009194,,,,,,,
8100,,,,-0.22877575,-0.010674759,-0.19340353,,,,
8106,,,,,,,-12.250352,30.594627,-71.79056,
8114,0.044315994,0.9961597,10.056019,,,,,,,
8120,,,,-0.082302034,-0.28284958,-0.17902248,,,,
8126,,,,,,,-12.7125845,30.741982,-71.33946,
8134,0.20720854,0.64402425,10.041646,,,,,,,
8140,,,,-0.0082662245,-0.4692707,-0.18488142,,,,
8146,,,,,,,-13.173223,30.723396,-72.12453,
8155,0.47550213,-0.03868714,10.81299,,,,,,,
8161,,,,-0.16858837,-0.27965382,-0.19180563,,,,
8166,,,,,,,-14.559889,31.020365,-70.61482,
8175,-0.053898618,-0.498619,12.465871,,,,,,,
8181,,,,-0.19308944,0.1981169,-0.1428035,,,,
8186,,,,,,,-12.559938,30.615437,-70.096085,
8195,-0.65276825,-0.6375568,13.117441,,,,,,,
8201,,,,0.14353384,0.4431275,0.043617614,,,,
8206,,,,,,,-13.171529,29.108845,-71.641495,
8215,-1.0791634,-0.19918418,11.732854,,,,,,,
8221,,,,0.5563234,0.3690917,0.24388714,,,,
8226,,,,,,,-12.712236,30.737349,-71.64894,
8235,-1.2085192,0.59371924,10.1901655,,,,,,,
8241,,,,0.62236977,0.18852952,0.40900302,,,,
8246,,,,,,,-13.172938,30.140709,-71.65349,
8255,-0.7054688,0.8524308,9.924268,,,,,,,
8261,,,,0.344336,0.01329367,0.5357694,,,,
8266,,,,,,,-12.555534,30.267344,-73.651535,
8275,0.05629337,0.50269103,10.904018,,,,,,,
8281,,,,-0.063127294,-0.11613585,0.5528136,,,,
8286,,,,,,,-12.861137,28.498398,-73.32912,
8295,0.6431856,-0.4842461,12.377238,,,,,,,
8301,,,,-0.52491903,-0.31214434,0.3365651,,,,
8303,,,,,,,,,,1198.0
8306,,,,,,,-11.63335,31.01608,-73.79202,
8315,0.6144399,-1.8161322,13.836083,,,,,,,
8321,,,,-0.8642054,-0.46341175,-0.06077821,,,,
8326,,,,,,,-12.097084,31.762337,-72.728836,
8335,0.09462103,-2.565917,14.379858,,,,,,,
8341,,,,-0.7219928,-0.23544535,-0.2605151,,,,
8346,,,,,,,-12.251698,32.204544,-72.58305,
8355,-0.5305989,-2.5515442,12.626368,,,,,,,
8361,,,,-0.041289393,0.2923927,-0.02136346,,,,
8366,,,,,,,-12.097304,30.173264,-70.54375,
8376,-0.3916611,-2.0053751,9.691906,,,,,,,
8382,,,,0.5403445,0.59332967,0.35627246,,,,
8386,,,,,,,-11.634357,31.753126,-73.80058,
8396,0.31260955,-1.3633868,7.097603,,,,,,,
8402,,,,0.49933183,0.39359275,0.485702,,,,
8406,,,,,,,-11.786354,30.279016,-73.63254,
8416,0.3916604,-0.6495341,6.846078,,,,,,,
8422,,,,-0.04501782,0.020750513,0.3195209,,,,
8426,,,,,,,-10.708687,30.573963,-74.69249,
8436,-0.13534491,0.112228036,8.879839,,,,,,,
8442,,,,-0.59575903,-0.38831067,0.081434466,,,,
8446,,,,,,,-10.709437,30.873413,-74.386444,
8456,0.22397688,-0.3453084,10.451273,,,,,,,
8462,,,,-0.7283843,-0.7041612,-0.023493987,,,,
8466,,,,,,,-9.786541,30.599552,-73.89603,
8476,0.5976715,-0.74774873,10.362639,,,,,,,
8482,,,,-0.49455902,-0.66101813,-0.09007296,,,,
8486,,,,,,,-12.71046,31.437332,-74.133224,
8496,0.52820265,-0.67588437,8.927749,,,,,,,
8502,,,,-0.15846837,-0.17525797,-0.08208348,,,,
8506,,,,,,,-11.787627,30.585417,-72.86229,
8516,0.38686943,-0.608811,7.691682,,,,,,,
8522,,,,-0.032767285,0.35364535,-0.02722241,,,,
8526,,,,,,,-11.326338,31.753162,-74.10245,
8536,-0.1688816,-0.36207673,7.8042693,,,,,,,
8542,,,,-0.16059889,0.48520538,-0.0623761,,,,
8546,,,,,,,-10.249431,31.479319,-73.762955,
8556,-0.56413555,-0.44831392,8.882235,,,,,,,
8562,,,,-0.18456733,0.26842427,-0.083681375,,,,
8566,,,,,,,-9.32613,30.910639,-73.26912,
8576,-0.3677063,-0.61599743,9.593692,,,,,,,
8582,,,,0.10039065,-0.017066339,-0.013906617,,,,
8586,,,,,,,-10.249019,32.052742,-74.85295,
8596,0.14732155,-0.43154564,8.848698,,,,,,,
8602,,,,0.54620343,-0.21680324,0.057998672,,,,
8606,,,,,,,-9.32679,31.643051,-73.58714,
8617,0.5545529,0.05713202,7.1215577,,,,,,,
8623,,,,0.7592561,-0.25834855,0.0484113,,,,
8626,,,,,,,-11.323591,30.992954,-75.64122,
8637,0.7725414,0.667979,7.3108006,,,,,,,
8643,,,,0.5387466,-0.118799,-0.0027213492,,,,
8646,,,,,,,-10.400878,29.853168,-73.902664,
8657,0.65995395,0.9817867,8.901398,,,,,,,
8663,,,,0.2537886,0.011163143,-0.064506635,,,,
8666,,,,,,,-9.786019,30.592604,-74.36023,
8677,0.36770558,1.0464647,9.63681,,,,,,,
8683,,,,0.19786227,0.06762211,-0.18062037,,,,
8686,,,,,,,-11.16885,28.95704,-73.91139,
8697,-0.09222628,1.0776058,9.792516,,,,,,,
8703,,,,0.18561174,-0.025055816,-0.31218037,,,,
8706,,,,,,,-10.398195,28.514904,-74.660934,
8717,-0.235955,0.5434141,10.408154,,,,,,,
8723,,,,0.1515233,-0.06979688,-0.2605151,,,,
8726,,,,,,,-9.474299,29.385572,-76.50519,
8737,-0.116181076,0.09066872,10.978278,,,,,,,
8743,,,,0.17016542,-0.0080116,-0.090605594,,,,
8746,,,,,,,-9.318101,27.909184,-76.79375,
8757,-0.35572892,0.39968544,11.076493,,,,,,,
8763,,,,0.2031886,0.051110525,0.035095505,,,,
8766,,,,,,,-10.241549,28.335087,-76.97641,
8777,-0.57850844,0.9314817,11.138775,,,,,,,
8783,,,,0.23088545,0.106504224,0.114990264,,,,
8786,,,,,,,-9.781542,28.94099,-76.35292,
8797,-0.33416963,0.9410635,11.1675205,,,,,,,
8803,,,,0.21810228,0.13207056,0.16026396,,,,
8806,,,,,,,-9.008726,27.167542,-77.396515,
8817,0.027547628,0.957832,11.692131,,,,,,,
8823,,,,0.26497388,0.1848011,0.22577767,,,,
8826,,,,,,,-9.776745,27.42984,-78.81154,
8838,0.99532104,0.70151573,11.725668,,,,,,,
8844,,,,0.33581388,0.0841337,0.22897346,,,,
8846,,,,,,,-8.238191,26.437536,-77.67844,
8858,1.3019422,0.82368517,11.610684,,,,,,,
8864,,,,0.15684964,-0.08577583,-0.049592942,,,,
8866,,,,,,,-8.087249,27.057304,-75.82468,
8878,0.7222364,0.227211,12.434729,,,,,,,
8884,,,,-0.21812312,0.05590421,-0.36810672,,,,
8886,,,,,,,-9.46758,25.96737,-78.32262,
8898,0.6359992,-1.674799,13.857644,,,,,,,
8904,,,,-0.51000535,0.30943692,-0.45386043,,,,
8906,,,,,,,-9.007454,26.861143,-78.16676,
8918,0.5976715,-3.2582104,14.679293,,,,,,,
8924,,,,-0.41945794,0.414898,-0.3862162,,,,
8926,,,,,,,-7.1600113,25.857294,-78.10919,
8938,-0.1473223,-3.2558148,13.58935,,,,,,,
8944,,,,0.16377385,0.4346054,-0.121498235,,,,
8946,,,,,,,-7.1600113,25.857294,-78.10919,
8958,0.104202926,-2.259296,10.995047,,,,,,,
8964,,,,0.8434119,0.31529588,0.39249143,,,,
8966,,,,,,,-7.160533,25.864243,-77.64499,
8978,1.6588686,-1.0759294,7.854574,,,,,,,
8984,,,,1.1235763,0.07507896,0.76533365,,,,
8986,,,,,,,-7.160533,25.864243,-77.64499,
8998,3.3213305,-0.18002033,5.5237737,,,,,,,
9004,,,,0.9142519,0.05643684,0.7578768,,,,
9006,,,,,,,-7.771657,24.640888,-79.96748,
9018,3.489014,0.7134931,4.642237,,,,,,,
9024,,,,0.32409596,0.23060744,0.36745775,,,,
9026,,,,,,,-5.9263744,24.968353,-79.615845,
9038,1.6109589,1.4656734,5.931005,,,,,,,
9044,,,,-0.40081584,0.46656328,-0.22429617,,,,
9046,,,,,,,-4.079445,24.839695,-80.18747,
9059,-0.7390055,1.2908034,8.455839,,,,,,,
9065,,,,-0.8530202,0.47615066,-0.648271,,,,
9066,,,,,,,-3.3124065,25.16935,-78.62456,
9079,-1.9511176,0.73265696,10.010505,,,,,,,
9085,,,,-0.85035706,0.12727687,-0.66584784,,,,
9086,,,,,,,-5.3119736,26.292793,-80.389725,
9099,-1.6756376,0.2487703,9.799703,,,,,,,
9105,,,,-0.5217233,-0.25941378,-0.32656142,,,,
9106,,,,,,,-3.6202164,25.890144,-79.41438,
9119,-0.49945763,0.15295115,8.83193,,,,,,,
9125,,,,-0.14408731,-0.3787233,0.097946055,,,,
9126,,,,,,,-5.312092,26.004923,-79.922104,
9139,0.8012872,0.49071363,7.940811,,,,,,,
9145,,,,0.13607699,-0.2327822,0.3062051,,,,
9146,,,,,,,-4.5439568,26.030495,-78.9747,
9159,1.4983715,0.8811766,7.0089703,,,,,,,
9165,,,,0.21543913,0.037794728,0.19808082,,,,
9166,,,,,,,-3.4651356,25.73117,-80.33728,
9179,0.88752437,1.1877979,7.0281343,,,,,,,
9185,,,,0.14939278,0.2636306,-0.068235055,,,,
9186,,,,,,,-4.080662,24.855907,-79.104355,
9199,0.0035928488,1.3674588,7.5192075,,,,,,,
9205,,,,0.05511695,0.1629632,-0.20192564,,,,
9206,,,,,,,-3.311674,25.883232,-80.18045,
9219,-0.235955,1.4057864,7.9863253,,,,,,,
9225,,,,0.047127478,-0.0969611,-0.14386877,,,,
9226,,,,,,,-3.6188068,24.85828,-79.402405,
9239,0.5473665,1.3291311,9.100223,,,,,,,
9245,,,,0.027952734,-0.37606016,-0.033081356,,,,
9246,,,,,,,-3.3117294,26.173416,-80.49335,
9259,1.1270722,1.1973798,10.508765,,,,,,,
9265,,,,0.016767468,-0.5172075,-0.022961356,,,,
9266,,,,,,,-3.7736778,25.738083,-79.57121,
9279,0.69828165,1.3147583,11.198662,,,,,,,
9285,,,,0.17602436,-0.5097507,-0.1241614,,,,
9286,,,,,,,-4.851227,25.731007,-78.97888,
9300,0.07066625,1.4465095,11.201057,,,,,,,
9306,,,,0.35019493,-0.5491655,-0.22642669,-3.1559143,23.978512,-79.53548,
9320,-0.50664407,1.1806115,11.574752,,,,,,,
9326,,,,0.40292546,-0.5289254,-0.26530877,-6.0775013,23.482662,-80.22145,
9340,-1.0144855,0.65839714,12.255068,,,,,,,
9346,,,,0.47056973,-0.3281233,-0.17902248,-4.8477097,23.658012,-79.57385,
9360,-1.1630051,0.893154,11.668176,,,,,,,
9366,,,,0.5824224,-0.16407269,0.03030182,-5.0019207,23.805405,-79.42462,
9380,-0.6934914,1.7555263,10.822572,,,,,,,
9386,,,,0.5355508,-0.02931687,0.29075876,-5.770094,23.056686,-79.43506,
9400,0.12815776,2.0717294,10.882459,,,,,,,
9406,,,,0.24952756,0.05324105,0.3919588,-4.075123,22.177067,-80.77559,
9420,0.79410076,1.4273458,12.37005,,,,,,,
9426,,,,-0.16166416,0.031403154,0.23909345,-5.4595833,22.73411,-81.5903,
9440,0.8444058,0.45238596,13.677983,,,,,,,
9446,,,,-0.4221211,-0.0735253,-0.04266873,-3.769638,23.658142,-80.63039,
9457,,,,,,,,,,1114.0
9460,0.6527675,-1.0040649,13.783383,,,,,,,
9466,,,,-0.3986853,-0.014935814,-0.2232309,-3.4631844,23.679024,-79.53966,
9480,-0.07545793,-2.1467083,12.918616,,,,,,,
9486,,,,-0.13876098,0.22528112,-0.20512143,-4.2338295,24.9894,-79.88353,
9500,-0.62162703,-2.2712731,10.884855,,,,,,,
9506,,,,0.2740286,0.4670959,0.09634815,-3.1550446,23.96693,-80.30914,
9521,-0.21439569,-1.5861663,8.312111,,,,,,,
9526,,,,,,,-3.0001755,23.087128,-80.140335,
9527,,,,0.4348834,0.4548454,0.40154618,,,,
9541,0.03473407,-0.48185065,6.977829,,,,,,,
9546,,,,,,,-2.9960995,21.730335,-82.13646,
9547,,,,0.18401386,0.3680264,0.47717988,,,,
9561,-0.14492682,0.48831815,7.706054,,,,,,,
9566,,,,,,,-2.3843632,23.379704,-80.90222,
9567,,,,-0.2628642,0.1848011,0.3615988,,,,
9581,-0.13055395,0.5673689,9.009194,,,,,,,
9586,,,,,,,-0.84537125,22.81573,-80.70265,
9587,,,,-0.58776957,-0.15714848,0.1576008,,,,
9601,0.40124232,-0.28302595,9.749398,,,,,,,
9606,,,,,,,-3.309166,24.547283,-80.78398,
9607,,,,-0.6942959,-0.36221173,-0.00911293,,,,
9621,0.1880447,-0.5513195,10.300358,,,,,,,
9626,,,,,,,-2.0773888,23.393639,-80.275696,
9627,,,,-0.62984747,-0.18857376,-0.12096559,,,,
9641,-0.5856949,-0.36926314,10.168607,,,,,,,
9646,,,,,,,-0.99912643,22.378117,-80.23712,
9647,,,,-0.39229372,0.14219056,-0.12096559,,,,
9661,-0.9977172,-0.18002033,9.150528,,,,,,,
9666,,,,,,,-0.84853935,24.884089,-80.417145,
9667,,,,-0.11479258,0.2971864,0.0020723366,,,,
9681,-0.681514,-0.15606555,8.091726,,,,,,,
9686,,,,,,,-2.3846455,23.96239,-81.373276,
9687,,,,0.060975906,0.23806429,0.1741124,,,,
9701,0.09222555,-0.2087661,7.4305744,,,,,,,
9706,,,,,,,-1.3077049,24.411694,-81.97075,
9707,,,,0.09080328,0.03513157,0.26252928,,,,
9721,0.57132125,-0.11294696,7.049693,,,,,,,
9726,,,,,,,-0.2327652,24.453516,-80.242096,
9727,,,,0.06896538,-0.09056952,0.23589766,,,,
9741,0.59527606,0.08587776,6.963456,,,,,,,
9746,,,,,,,-2.0806656,26.042368,-80.61598,
9747,,,,0.06576959,-0.02931687,0.16399238,,,,
9762,0.374892,0.5002955,7.0425067,,,,,,,
9766,,,,,,,-0.23227882,23.72342,-79.76933,
9768,,,,0.06310643,0.048447367,0.11232711,,,,
9782,0.101807475,1.0967697,7.401829,,,,,,,
9786,,,,,,,0.07539368,23.728088,-79.761734,
9788,,,,-0.01252728,0.058567367,0.064922884,,,,
9802,-0.19283639,1.4728599,8.051003,,,,,,,
9806,,,,,,,1.6149979,23.590128,-80.65042,
9808,,,,-0.11639047,0.1310053,0.051074456,,,,
9822,-0.24553691,1.678871,9.057105,,,,,,,
9826,,,,,,,0.6923294,23.571487,-80.98268,
9828,,,,-0.20853576,0.11662423,0.0904892,,,,
9842,0.18564922,1.6980348,10.120697,,,,,,,
9846,,,,,,,-1.4621258,23.838255,-80.72983,
9848,,,,-0.20800312,-0.050089512,0.13309973,,,,
9862,0.7222364,1.6525208,10.79143,,,,,,,
9866,,,,,,,1.4577026,25.3706,-79.74637,
9868,,,,-0.12757576,-0.28764328,0.08835868,,,,
9882,1.1103039,1.5063965,11.282504,,,,,,,
9886,,,,,,,1.9222412,24.034708,-80.80269,
9888,,,,-0.035430446,-0.40642017,-0.063441366,,,,
9902,0.765355,1.2428938,11.270527,,,,,,,
9906,,,,,,,1.4632053,21.968609,-80.48067,
9908,,,,0.06843275,-0.19283481,-0.23548144,,,,
9922,0.041920513,0.9722048,11.033374,,,,,,,
9926,,,,,,,0.23134232,23.557535,-81.45828,
9928,,,,0.12222856,0.14698425,-0.26637405,,,,
9942,-0.626418,1.0680239,11.229804,,,,,,,
9946,,,,,,,1.3055134,24.91214,-80.67343,
9948,,,,0.02582221,0.24818428,-0.18914248,,,,
9958,,,,,,,,,,1192.0
9962,-0.80128795,0.94825006,12.235905,,,,,,,
9966,,,,,,,2.3849926,23.880405,-81.71799,
9968,,,,-0.074845195,0.29186007,-0.03627715,,,,
9982,-0.37489277,0.5721599,13.397712,,,,,,,
9986,,,,,,,0.6927433,24.144909,-82.07268,
9988,,,,-0.034365177,0.25191268,0.13469765,,,,
10003,0.209604,0.47634077,14.104378,,,,,,,
10006,,,,,,,1.3083878,22.558228,-80.33656,
10009,,,,0.031148523,-0.025055816,0.14162184,,,,
10023,0.38926488,-0.08899215,14.401417,,,,,,,
10026,,,,,,,2.0765057,23.597132,-80.63902,
10029,,,,0.010375887,-0.30841592,-0.08847506,,,,
10043,0.6240218,-1.6029346,14.882908,,,,,,,
10046,,,,,,,2.3849926,23.880405,-81.71799,
10049,,,,0.016234836,-0.4271928,-0.29992983,,,,
10063,0.7318183,-3.1839507,13.941484,,,,,,,
10066,,,,,,,0.69501305,22.233223,-81.74095,
10069,,,,0.2761591,-0.47672755,-0.36224777,,,,
10083,0.23116332,-3.5193176,11.517261,,,,,,,
10086,,,,,,,1.4622517,22.41547,-80.17633,
10089,,,,0.6857529,-0.3547549,-0.22962248,,,,
10103,0.1880447,-2.3814652,8.566031,,,,,,,
10106,,,,,,,0.38843155,21.056232,-81.270645,
10109,,,,0.93875307,-0.04689372,0.17624292,,,,
10123,1.5965861,-1.1597711,5.9932876,,,,,,,
10126,,,,,,,0.3855915,21.383478,-79.1078,
10129,,,,0.77097404,0.2082369,0.5890326,,,,
10143,2.6362238,0.19846526,5.6315703,,,,,,,
10146,,,,,,,2.3859005,21.842157,-79.99194,
10149,,,,0.18614438,0.27108744,0.6114031,,,,
10163,2.6841333,1.2261256,7.0353203,,,,,,,
10166,,,,,,,1.9273949,20.63735,-81.22752,
10169,,,,-0.4274474,0.17201795,0.31259665,,,,
10183,1.9175804,1.3986,8.728924,,,,,,,
10186,,,,,,,3.4668617,18.47504,-79.46178,
10189,,,,-0.7464938,0.0708179,-0.115639284,,,,
10203,0.60964894,1.1111425,9.905104,,,,,,,
10206,,,,,,,3.4626331,21.57063,-79.49773,
10209,,,,-0.7198622,-0.0090768635,-0.46557832,,,,
10224,-0.24553691,0.7039112,9.876358,,,,,,,
10226,,,,,,,2.2338486,20.658234,-80.13678,
10230,,,,-0.4924285,-0.07459057,-0.53482044,,,,
10244,-0.7294235,0.5458096,8.915771,,,,,,,
10246,,,,,,,3.001152,21.418533,-79.35268,
10250,,,,-0.24954839,0.007434721,-0.37130252,,,,
10264,-0.5761129,0.4595724,8.297738,,,,,,,
10266,,,,,,,0.3847866,21.973114,-79.114655,
10270,,,,-0.113727316,0.17787689,-0.09113822,,,,
10284,0.154508,0.61288303,8.051003,,,,,,,
10286,,,,,,,3.155016,21.275776,-79.19243,
10290,,,,-0.08017151,0.19545373,0.09901132,,,,
10304,0.8491968,0.94585454,7.6964726,,,,,,,
10306,,,,,,,4.2307167,21.886387,-78.86322,
10310,,,,-0.052474663,0.16509373,0.10273974,,,,
10324,0.91147923,1.1327019,7.466507,,,,,,,
10326,,,,,,,4.2307167,21.886387,-78.86322,
10330,,,,0.03327905,0.21036743,-0.016569776,,,,
10344,0.6240218,1.1997752,7.1023936,,,,,,,
10346,,,,,,,5.0002155,22.03852,-79.310135,
10350,,,,0.120098025,0.12727687,-0.12842245,,,,
10364,0.5042479,1.2069616,6.7598405,,,,,,,
10366,,,,,,,5.0002155,22.03852,-79.310135,
10370,,,,0.07322644,-0.06553583,-0.16890246,,,,
10384,0.49706143,1.2093571,7.23175,,,,,,,
10386,,,,,,,4.2336254,20.255623,-79.46332,
10390,,,,-0.08603046,-0.098559,-0.14812984,,,,
10404,0.5210162,1.3123628,8.424698,,,,,,,
10406,,,,,,,2.998314,21.74578,-77.189835,
10410,,,,-0.23143892,-0.10335268,-0.11297612,,,,
10424,0.5593439,1.3746452,9.804494,,,,,,,
10426,,,,,,,4.9979916,22.791779,-78.235565,
10430,,,,-0.3294432,-0.17152955,-0.12096559,,,,
10444,0.7557731,1.0273008,11.833464,,,,,,,
10446,,,,,,,3.465042,18.933481,-78.38377,
10450,,,,-0.35873792,-0.29669803,-0.16038036,,,,
10465,0.6407901,0.6248604,13.41448,,,,,,,
10466,,,,,,,4.38587,20.423897,-78.22337,
10471,,,,-0.21119891,-0.40109384,-0.26477614,,,,
10485,0.020361215,0.15534665,13.424062,,,,,,,
10486,,,,,,,2.5403576,20.388931,-78.733154,
10491,,,,0.10944539,-0.2381085,-0.32336566,,,,
10505,-0.82045174,0.11941446,12.403588,,,,,,,
10506,,,,,,,3.6185017,19.08554,-78.22696,
10511,,,,0.38268548,0.05590421,-0.18541406,,,,
10525,-1.2492424,0.73505247,11.965215,,,,,,,
10526,,,,,,,4.234688,19.22839,-79.14186,
10531,,,,0.4130455,0.2332706,0.13682817,,,,
10545,-0.95459855,1.3602724,12.477848,,,,,,,
10546,,,,,,,5.7707977,20.15009,-78.185745,
10551,,,,0.38747916,0.23486848,0.4686578,,,,
10565,0.14013514,1.5878428,12.156854,,,,,,,
10566,,,,,,,3.7727146,18.93815,-78.376175,
10571,,,,0.44234022,0.089460015,0.59968513,,,,
10585,1.5295126,0.86680377,11.074097,,,,,,,
10586,,,,,,,5.312952,18.21287,-79.10329,
10591,,,,0.3464665,-0.013337918,0.3520114,,,,
10605,1.5127444,-0.16564748,11.550797,,,,,,,
10606,,,,,,,3.7719631,19.2376,-78.070145,
10611,,,,-0.08123677,-0.07831899,-0.17689195,,,,
10625,0.8947109,-1.7059401,13.606118,,,,,,,
10626,,,,,,,5.6186543,18.533203,-77.70651,
10631,,,,-0.47378638,-0.33824328,-0.5843552,,,,
10645,-0.27907363,-2.6737137,13.915134,,,,,,,
10646,,,,,,,4.5437145,18.491383,-79.43518,
10651,,,,-0.32571477,-0.646637,-0.75266683,,,,
10665,-1.5199316,-2.735996,11.296877,,,,,,,
10666,,,,,,,3.620535,19.34793,-80.39665,
10671,,,,0.2351465,-0.30948117,-0.496471,,,,
10686,-1.3905756,-2.084426,8.20671,,,,4.2348824,18.212742,-78.04675,
10692,,,,0.57123715,0.4180938,0.18529764,,,,
10706,-0.40363848,-0.92501414,6.4795694,,,,5.9275436,18.521658,-78.78206,
10712,,,,0.40239286,0.7877403,0.73444104,,,,
10726,0.17846277,0.45478147,6.8341002,,,,4.698292,17.326027,-78.64401,
10732,,,,-0.05886624,0.55977386,0.8159337,,,,
10746,0.7006771,1.063233,8.23306,,,,6.390465,17.4968,-78.75867,
10752,,,,-0.510538,-0.15288743,0.5171273,,,,
10766,1.1749818,0.35417137,9.172088,,,,6.0809956,17.805477,-77.531815,
10772,,,,-0.73850435,-0.668475,0.053204987,,,,
10786,0.9066882,-0.4578959,9.761374,,,,5.002468,18.390354,-76.791595,
10792,,,,-0.7070791,-0.50389177,-0.2855488,,,,
10806,-0.20960474,-0.6423477,9.703884,,,,8.08003,18.570557,-77.64572,
10812,,,,-0.5094727,0.09478633,-0.35212776,,,,
10826,-1.0432312,-0.8172176,9.140945,,,,6.539978,20.161762,-78.16675,
10832,,,,-0.26659262,0.65777814,-0.19020773,,,,
10846,-1.352248,-0.8315904,8.434279,,,,5.4630337,19.712458,-77.569275,
10852,,,,-0.11798836,0.76856554,0.02391024,,,,
10866,-0.9713669,-0.71181655,8.364812,,,,6.8493156,18.696972,-77.832565,
10872,,,,-0.041822027,0.4702917,0.24228925,,,,
10886,-0.28626004,-0.3141671,8.324088,,,,6.080538,18.390482,-77.84813,
10892,,,,0.10358644,-0.04103477,0.38130617,,,,
10906,0.42998803,0.15295115,7.53358,,,,6.8473015,20.171062,-77.849686,
10911,,,,,,,,,,1107.0
10912,,,,0.35924968,-0.34783065,0.42817777,,,,
10926,,,,,,,7.771755,19.008114,-77.65846,
10927,0.88033795,0.7206795,6.378959,,,,,,,
10933,,,,0.45246023,-0.31534013,0.41486198,,,,
10946,,,,,,,7.156641,18.706274,-77.51549,
10947,1.1749818,1.1327019,6.5202928,,,,,,,
10953,,,,0.20744964,-0.10974426,0.33603248,,,,
10966,,,,,,,6.388338,19.551262,-79.401566,
10967,0.78451884,1.5495151,8.1564045,,,,,,,
10973,,,,-0.13023888,0.048979998,0.17038396,,,,
10986,,,,,,,6.694746,17.980755,-76.28047,
10987,0.29344577,1.7195941,9.790121,,,,,,,
10993,,,,-0.17604521,0.06123053,0.0484113,,,,
11006,,,,,,,9.159393,17.250952,-78.22264,
11007,0.2000221,1.6644982,10.024878,,,,,,,
11013,,,,-0.033832546,-0.15288743,0.016986027,,,,
11026,,,,,,,7.6180286,18.42541,-77.03647,
11027,0.37968302,1.5878428,9.699093,,,,,,,
11033,,,,-0.029571494,-0.27699062,0.014855499,,,,
11046,,,,,,,8.232155,18.450962,-75.93814,
11047,0.710259,1.3746452,11.1148205,,,,,,,
11053,,,,-0.25221157,-0.19230218,-0.0048518754,,,,
11066,,,,,,,7.157858,18.69006,-78.59863,
11067,0.71984094,0.9961597,13.124627,,,,,,,
11073,,,,-0.26659262,-0.027718974,-0.053853996,,,,
11086,,,,,,,7.772974,18.991901,-78.74159,
11087,0.47550213,0.7949394,13.364175,,,,,,,
11093,,,,0.07855275,0.009565247,-0.08954033,,,,
11106,,,,,,,6.850523,17.81252,-77.822296,
11107,0.47789764,0.62965137,11.775972,,,,,,,
11113,,,,0.3794897,-0.022392657,-0.09806243,,,,
11126,,,,,,,8.077652,18.3128,-75.166565,
11127,0.34135532,0.7566117,10.578233,,,,,,,
11133,,,,0.3395423,0.088394746,-0.07675716,,,,
11146,,,,,,,8.235304,17.395935,-77.473495,
11148,0.15690348,1.1877979,11.131589,,,,,,,
11154,,,,0.023159048,0.1443211,-0.008580298,,,,
11166,,,,,,,9.155722,18.312927,-76.2231,
11168,0.36770558,1.0680239,12.803633,,,,,,,
11174,,,,-0.28683263,0.03832736,0.0063333907,,,,
11186,,,,,,,9.002764,19.167252,-78.09398,
11188,1.2324734,-0.5896472,14.480468,,,,,,,
11194,,,,-0.3816411,-0.12678847,-0.15558667,,,,
11206,,,,,,,10.079515,17.882391,-76.349915,
11208,1.840925,-2.7096457,14.973937,,,,,,,
11214,,,,-0.25594002,-0.28391486,-0.43841413,,,,
11226,,,,,,,7.92885,17.375053,-78.564224,
11228,1.2468462,-3.75647,14.030118,,,,,,,
11234,,,,0.052453794,-0.18324743,-0.5747678,,,,
11246,,,,,,,8.850311,18.278147,-78.24223,
11248,0.029943138,-3.2366512,12.319746,,,,,,,
11254,,,,0.38694653,0.055371575,-0.33508354,,,,
11262,,,,,,,,,,1030.0
11266,,,,,,,7.6155224,19.761356,-76.43295,
11268,-0.02036193,-2.2018044,10.78664,,,,,,,
11274,,,,0.7011993,0.26096743,0.2279082,,,,
11286,,,,,,,8.234297,18.13298,-77.482056,
11288,1.1390496,-1.2388219,8.896607,,,,,,,
11294,,,,0.9680478,0.2183569,0.6449589,,,,
11306,,,,,,,8.691853,19.784647,-75.942154,
11308,2.4158397,-0.29021236,6.740677,,,,,,,
11314,,,,1.0181153,0.07614422,0.70408106,,,,
11326,,,,,,,11.005827,16.98415,-78.17363,
11328,2.5787323,0.4499905,5.665107,,,,,,,
11334,,,,0.69853616,-0.018664235,0.41912302,,,,
11346,,,,,,,9.312157,17.412277,-77.4469,
11348,1.26601,1.1207244,6.366982,,,,,,,
11354,,,,0.19253597,-0.018664235,0.001007073,,,,
11366,,,,,,,8.388756,16.679754,-76.22327,
11368,0.21679044,1.1446793,7.0999985,,,,,,,
11374,,,,-0.12437994,0.05643684,-0.24613407,,,,
11386,,,,,,,8.851309,16.672861,-77.140274,
11389,-0.7677513,0.9626229,7.428179,,,,,,,
11395,,,,-0.37365162,0.2082369,-0.32016987,,,,
11406,,,,,,,9.155603,18.025057,-75.75548,
11409,-1.1366549,0.36135778,8.66185,,,,,,,
11415,,,,-0.4753843,0.32807904,-0.19020773,,,,
11426,,,,,,,9.006241,16.371113,-77.75198,
11429,-0.626418,0.035572723,9.0810585,,,,,,,
11435,,,,-0.33050847,0.17255057,0.022312343,,,,
11446,,,,,,,11.31209,18.020681,-78.17801,
11449,0.29584128,0.093064204,8.865466,,,,,,,
11455,,,,-0.09242204,-0.030914765,0.16825344,,,,
11466,,,,,,,9.001802,18.74587,-76.69623,
11469,0.65995395,0.61288303,8.240247,,,,,,,
11475,,,,0.15365383,-0.10441794,0.1693187,,,,
11486,,,,,,,9.15344,19.356373,-75.461426,
11489,0.68869966,1.2021707,7.4425516,,,,,,,
11495,,,,0.2708328,-0.048491616,0.097946055,,,,
11506,,,,,,,11.772875,18.182045,-77.70413,
11509,0.434779,1.6141931,7.071253,,,,,,,
11512,,,,,,,,,,938.0
11515,,,,0.19892754,0.1528432,0.07717341,,,,
11526,,,,,,,10.388891,17.14075,-76.95268,
11529,0.59048504,1.7962494,7.871342,,,,,,,
11535,,,,0.03967063,0.13366845,0.124577634,,,,
11546,,,,,,,10.232733,19.340286,-77.60109,
11549,1.0839536,1.8705093,8.882235,,,,,,,
11555,,,,-0.06845361,-0.1725948,0.14854605,,,,
11566,,,,,,,11.771658,18.198257,-76.621,
11569,1.4241116,1.9950742,9.449963,,,,,,,
11575,,,,-0.01305991,-0.3046875,0.094750255,,,,
11586,,,,,,,10.388353,18.161034,-77.73833,
11589,1.3594338,2.035797,9.744607,,,,,,,
11595,,,,0.092401184,-0.24130431,-0.024026617,,,,
11606,,,,,,,11.311644,16.724112,-76.15108,
11610,1.1845638,1.7243851,9.878754,,,,,,,
11613,,,,,,,,,,843.0
11616,,,,0.064171694,-0.18484534,-0.16251089,,,,
11626,,,,,,,11.770502,18.792526,-76.31839,
11630,0.82524204,1.2452893,10.731544,,,,,,,
11636,,,,-0.059398875,-0.0751232,-0.25465617,,,,
11646,,,,,,,9.6188965,16.850473,-75.88512,
11650,0.3557282,0.63923335,11.934073,,,,,,,
11656,,,,-0.07218204,-0.0634053,-0.29300565,,,,
11663,,,,,,,,,,784.0
11666,,,,,,,8.848745,18.298994,-76.84964,
11670,-0.4898757,0.43082666,12.604808,,,,,,,
11676,,,,0.056182217,-0.1944327,-0.24773198,,,,
11686,,,,,,,9.005096,17.833622,-78.54277,
11690,-1.1390504,1.1398883,12.504198,,,,,,,
11696,,,,0.27828965,-0.22639062,0.028171293,,,,
11706,,,,,,,10.541155,19.045506,-77.899536,
11710,-0.48748025,1.7555263,11.421442,,,,,,,
11713,,,,,,,,,,725.0
11716,,,,0.42902443,-0.14809375,0.40474194,,,,
11726,,,,,,,10.38957,18.14482,-78.82146,
11730,0.17606732,2.294509,11.268131,,,,,,,
11736,,,,0.31344336,-0.019729499,0.55654204,,,,
11746,,,,,,,11.31209,18.020681,-78.17801,
11750,0.9689708,1.8729048,11.828672,,,,,,,
11756,,,,0.10411908,0.037794728,0.47132093,,,,
11763,,,,,,,,,,675.0
11766,,,,,,,12.387789,18.631292,-77.848816,
11770,1.6349138,0.9674139,12.235905,,,,,,,
11776,,,,-0.16379468,-0.118266374,0.10220711,,,,
11786,,,,,,,11.768972,19.53652,-75.86273,
11790,1.1438407,-0.10096955,13.031203,,,,,,,
11796,,,,-0.4205232,-0.1459632,-0.35372564,,,,
11806,,,,,,,10.543779,17.997427,-78.97067,
11810,0.21199948,-1.2939179,13.215654,,,,,,,
11813,,,,,,,,,,608.0
11816,,,,-0.4072074,0.12727687,-0.567311,,,,
11826,,,,,,,9.154659,19.340158,-76.544556,
11831,-1.0072991,-1.8424824,11.9268875,,,,,,,
11837,,,,-0.09561783,0.5741549,-0.51085204,,,,
11846,,,,,,,10.077993,19.494625,-76.98767,
11851,-1.6756376,-1.7730137,9.962595,,,,,,,
11857,,,,0.24420123,0.8788203,-0.1561193,,,,
11863,,,,,,,,,,543.0
11866,,,,,,,11.464994,17.456543,-76.62004,
11871,-1.4408808,-1.1597711,8.089332,,,,,,,
11877,,,,0.37789178,0.7962624,0.2827693,,,,
11886,,,,,,,13.309671,18.226236,-76.273544,
11891,-0.96897143,0.04515463,7.241332,,,,,,,
11897,,,,0.20478648,0.37228748,0.5405631,,,,
11906,,,,,,,12.69486,19.07819,-77.846344,
11911,-0.21679117,1.0249053,7.603049,,,,,,,
11913,,,,,,,,,,500.0
11917,,,,-0.15953363,-0.24290219,0.52458405,,,,
11926,,,,,,,11.614626,20.409376,-76.49574,
11931,0.5976715,1.0967697,8.666641,,,,,,,
11937,,,,-0.4785801,-0.753696,0.29715034,,,,
11946,,,,,,,11.310682,19.052546,-78.19,
11951,1.2588236,0.5218549,9.617647,,,,,,,
11957,,,,-0.546757,-0.7446413,0.0366934,,,,
11964,,,,,,,,,,444.0
11966,,,,,,,12.540899,18.787985,-77.38251,
11971,1.1079085,0.20565169,9.754189,,,,,,,
11977,,,,-0.36033583,-0.26420748,-0.18594667,,,,
11986,,,,,,,13.004286,18.046362,-78.136215,
11991,0.24074522,0.13857828,9.025963,,,,,,,
11997,,,,-0.13077152,0.31689376,-0.33028984,,,,
12006,,,,,,,12.691774,20.71127,-77.09152,
12011,-0.72702813,0.10743706,8.194733,,,,,,,
12014,,,,,,,,,,383.0
12017,,,,0.0023864107,0.68867075,-0.3510625,,,,
12026,,,,,,,11.615732,20.973532,-78.20465,
12031,-1.1007228,0.03796819,7.7300096,,,,,,,
12037,,,,0.090270646,0.70571494,-0.22802459,,,,
12046,,,,,,,13.460817,21.448406,-77.85475,
12051,-0.8252427,0.1601376,7.4305744,,,,,,,
12057,,,,0.16643701,0.39252746,-0.075159274,,,,
12064,,,,,,,,,,340.0
12066,,,,,,,12.5378895,21.867363,-78.5016,
12072,-0.34135604,0.2679341,7.2293544,,,,,,,
12078,,,,0.20798229,-0.027718974,0.005268127,,,,
12086,,,,,,,14.38352,22.190195,-78.45943,
12092,-0.25990978,0.7039112,7.303614,,,,,,,
12098,,,,0.18774228,-0.27539277,0.057998672,,,,
12106,,,,,,,12.690886,21.736183,-77.5677,
12112,-0.24314144,1.3147583,7.4545293,,,,,,,
12114,,,,,,,,,,305.0
12118,,,,0.10997802,-0.23651062,0.13469765,,,,
12126,,,,,,,13.772993,19.656372,-79.683395,
12132,-0.15690422,1.8106223,7.854574,,,,,,,
12138,,,,-0.0279736,-0.042632665,0.18742818,,,,
12146,,,,,,,14.844122,21.485634,-76.73741,
12152,0.03712955,1.9735149,8.8894205,,,,,,,
12158,,,,-0.21066628,0.045784205,0.17890607,,,,
12164,,,,,,,,,,270.0
12166,,,,,,,12.539392,21.26846,-79.11369,
12172,0.30781865,1.5998201,10.614166,,,,,,,
12178,,,,-0.33849794,-0.05222004,0.083565,,,,
12186,,,,,,,14.080004,20.393456,-79.99382,
12192,0.25990906,1.1710294,12.1856,,,,,,,
12198,,,,-0.29748526,-0.2610117,-0.038407672,,,,
12206,,,,,,,13.458658,22.77972,-77.560684,
12212,0.24074522,0.9338771,13.172537,,,,,,,
12214,,,,,,,,,,229.0
12218,,,,-0.051409397,-0.3803212,-0.04906031,,,,
12226,,,,,,,13.612463,22.927149,-77.71332,
12232,0.5305981,0.8332671,13.203678,,,,,,,
12238,,,,0.3794897,-0.27858853,0.040421825,,,,
12246,,,,,,,13.001532,20.688145,-78.940704,
12252,0.49227053,1.113538,11.7352495,,,,,,,
12258,,,,0.7438098,-0.09536321,0.06066183,,,,
12264,,,,,,,,,,200.0
12266,,,,,,,12.53974,21.263828,-79.42316,
12272,0.08983007,1.5806564,10.400968,,,,,,,
12278,,,,0.74700564,0.063361056,0.08676079,,,,
12286,,,,,,,12.3851795,21.415852,-78.96446,
12293,0.41082418,1.4704643,10.374618,,,,,,,
12299,,,,0.47270024,0.11023265,0.1863629,,,,
12306,,,,,,,14.999968,21.89545,-79.05975,
12313,1.0144848,1.3315266,11.361555,,,,,,,
12315,,,,,,,,,,186.0
12319,,,,0.156317,0.003173667,0.18476503,,,,
12326,,,,,,,13.9247875,21.27789,-79.853165,
12333,1.3905749,1.113538,12.6335535,,,,,,,
12339,,,,-0.1504789,-0.18218218,0.008996549,,,,
12346,,,,,,,14.077375,21.441532,-78.92267,
12353,1.5558629,-0.03868714,13.979813,,,,,,,
12359,,,,-0.3432916,-0.29882854,-0.2573193,,,,
12365,,,,,,,,,,162.0
12366,,,,,,,13.000872,21.420557,-79.25873,
12373,1.7546877,-1.7418724,14.252897,,,,,,,
12379,,,,-0.21759048,-0.28231695,-0.43788147,,,,
12386,,,,,,,12.84701,21.563314,-79.41899,
12393,1.1630045,-2.2113864,12.583249,,,,,,,
12399,,,,0.17868753,-0.12146217,-0.41710883,,,,
12406,,,,,,,11.615698,23.000198,-80.70436,
12413,0.8491968,-1.5646069,10.094347,,,,,,,
12415,,,,,,,,,,136.0
12419,,,,0.5344855,0.12141792,-0.077822424,,,,
12426,,,,,,,11.76956,22.85744,-80.54411,
12433,1.8121791,-0.7333758,8.046212,,,,,,,
12439,,,,0.607456,0.25883693,0.2561377,,,,
12446,,,,,,,13.462538,22.438576,-80.65193,
12453,2.6697605,0.10743706,6.8341002,,,,,,,
12459,,,,0.44393814,0.2902622,0.24708293,,,,
12465,,,,,,,,,,123.0
12466,,,,,,,12.695078,20.667261,-80.03143,
12473,2.8542123,0.77817106,6.2783494,,,,,,,
12479,,,,0.13288121,0.24765165,-0.044266626,,,,
12486,,,,,,,15.156664,21.425446,-81.06235,
12493,1.7259419,1.6094022,6.4532194,,,,,,,
12499,,,,-0.28363684,0.18959479,-0.46824148,,,,
12506,,,,,,,13.770517,21.715466,-80.01683,
12513,-0.1688816,1.7962494,7.8090606,,,,,,,
12515,,,,,,,,,,111.0
12519,,,,-0.64103276,0.23273796,-0.7942121,,,,
12526,,,,,,,13.614241,23.627132,-80.19763,
12534,-1.4863948,1.2237301,9.157715,,,,,,,
12540,,,,-0.753418,0.21729164,-0.80646265,,,,
12546,,,,,,,13.307573,22.885418,-80.19667,
12554,-1.6971968,0.6488152,9.730234,,,,,,,
12560,,,,-0.61812955,0.112363175,-0.54174465,,,,
12565,,,,,,,,,,92.0
12566,,,,,,,12.229658,23.896307,-80.54469,
12574,-1.0839543,0.3158437,9.835635,,,,,,,
12580,,,,-0.3076053,0.0356642,-0.19287089,,,,
12586,,,,,,,13.767996,24.064747,-80.66316,
12594,0.015570253,0.41645378,8.968472,,,,,,,
12600,,,,0.036474843,-0.05381793,0.038291298,,,,
12606,,,,,,,14.69055,24.663757,-80.95668,
12614,0.6336037,0.81170774,7.643772,,,,,,,
12615,,,,,,,,,,78.0
12620,,,,0.19573174,-0.07618846,0.032432348,,,,
12626,,,,,,,13.459158,23.786106,-79.274734,
12634,0.434779,1.2213346,6.886801,,,,,,,
12640,,,,0.15525174,0.10011265,-0.08048559,,,,
12646,,,,,,,12.998465,24.057705,-80.37268,
12654,0.21918592,1.3602724,7.387456,,,,,,,
12660,,,,0.0119737815,0.24072744,-0.12682456,,,,
12665,,,,,,,,,,72.0
12666,,,,,,,14.074308,24.811092,-80.354645,
12674,0.06587529,1.3195492,8.113286,,,,,,,
12680,,,,-0.06365992,0.20237795,-0.13055299,,,,
12686,,,,,,,13.307783,23.60625,-81.288345,
12694,-0.111390114,1.2860125,8.642687,,,,,,,
12700,,,,-0.06898624,0.032468412,-0.13694456,,,,
12706,,,,,,,12.846899,24.893501,-83.48143,
12714,-0.4898757,1.1398883,9.306233,,,,,,,
12716,,,,,,,,,,66.0
12720,,,,-0.056203082,-0.1321148,-0.10232349,,,,
12726,,,,,,,15.308466,23.915203,-82.325516,
12734,-0.65516376,1.1973798,10.147047,,,,,,,
12740,,,,-0.015190437,-0.2061506,0.014855499,,,,
12746,,,,,,,13.30456,25.964794,-81.315735,
12755,-0.22397761,1.0009506,10.906414,,,,,,,
12761,,,,-0.0029399067,-0.24396746,0.134165,,,,
12766,,,,,,,12.5379505,25.19523,-82.71878,61.0
12775,0.06347981,0.7733801,11.546007,,,,,,,
12781,,,,0.052986424,-0.18804112,0.16718818,,,,
12786,,,,,,,12.077135,24.310722,-82.25571,
12795,-0.07545793,0.9266907,11.574752,,,,,,,
12801,,,,0.1882749,-0.04689372,0.20926608,,,,
12806,,,,,,,13.308287,24.612635,-83.00241,
12815,0.0107792765,1.2860125,11.68734,,,,,,,
12821,,,,0.31983492,0.10171054,0.3365651,,,,
12826,,,,,,,12.845976,25.195267,-83.020645,
12835,0.43717444,1.4560915,11.950843,,,,,,,
12841,,,,0.4082518,0.107569486,0.4004809,,,,
12846,,,,,,,14.694689,23.88502,-83.73332,
12855,0.6791178,1.6549163,11.651408,,,,,,,
12861,,,,0.435416,0.009032616,0.3094009,,,,
12866,,,,,,,15.769785,24.937859,-83.40924,57.0
12875,0.6455811,1.2189391,11.241781,,,,,,,
12881,,,,0.30119282,-0.020794762,0.0819671,,,,
12886,,,,,,,13.618845,23.13163,-83.75136,
12895,0.154508,-0.079410255,11.581939,,,,,,,
12901,,,,-0.034897815,-0.018664235,-0.23122038,,,,
12906,,,,,,,14.386076,25.19545,-84.52998,
12915,-0.5689265,-1.9814202,12.786865,,,,,,,
12921,,,,-0.33743265,0.05004526,-0.4181741,,,,
12926,,,,,,,12.3883915,23.688694,-84.716995,
12935,-1.9654905,-2.33116,13.249192,,,,,,,
12941,,,,-0.27511474,0.18267058,-0.322833,,,,
12946,,,,,,,14.541174,24.023144,-84.20302,
12955,-2.4517727,-1.5717933,12.123317,,,,,,,
12961,,,,0.176557,0.277479,0.19808082,,,,
12966,,,,,,,13.618341,24.875061,-85.47395,
12976,-1.2875701,-0.24948928,9.814075,,,,,,,
12982,,,,0.61224973,0.18906216,0.79516107,,,,
12986,,,,,,,13.925158,23.87798,-83.44284,
12996,0.324587,0.9793912,8.005489,,,,,,,
13002,,,,0.6260982,-0.048491616,0.9911695,,,,
13006,,,,,,,12.847315,25.466923,-84.57141,
13016,2.3200204,1.3027809,7.916857,,,,,,,52.0
13022,,,,0.18880753,-0.3350475,0.7280494,,,,
13026,,,,,,,14.387228,24.601181,-84.83261,
13036,2.5260317,0.787753,9.181669,,,,,,,
13042,,,,-0.3704558,-0.4208012,0.061194465,,,,
13046,,,,,,,13.92808,23.115454,-85.13634,
13056,0.9474114,-0.16804296,11.016605,,,,,,,
13062,,,,-0.6644686,-0.23171693,-0.5231026,,,,
13066,,,,,,,13.619749,23.843197,-85.461975,
13076,-0.7941015,-0.5968336,11.534029,,,,,,,
13082,,,,-0.5547464,-0.010674759,-0.65572786,,,,
13086,,,,,,,13.619749,23.843197,-85.461975,
13096,-1.9175808,-0.41477725,11.007024,,,,,,,
13102,,,,-0.2026768,0.307839,-0.3377467,,,,
13106,,,,,,,14.38648,24.900633,-84.526566,
13116,-1.5103496,0.033177227,9.581714,,,,,,,
13122,,,,0.118500136,0.5027823,0.14961132,,,,
13126,,,,,,,14.388182,24.154322,-85.13693,
13136,-0.5809039,0.47634077,8.199524,,,,,,,
13142,,,,0.18188332,0.36323273,0.4068725,,,,
13146,,,,,,,15.924501,25.796852,-85.27251,
13156,0.16648537,0.65839714,7.9671617,,,,,,,
13162,,,,0.060975906,0.16562636,0.4239167,,,,
13166,,,,,,,13.463434,25.031717,-84.705795,
13176,0.4874795,0.85722184,7.9839296,,,,,,,
13182,,,,0.014104309,0.06815474,0.32378194,,,,
13186,,,,,,,14.076551,25.794315,-83.61603,
13196,0.1880447,1.0392781,7.7156363,,,,,,,
13202,,,,0.09932539,0.106504224,0.19009133,,,,
13206,,,,,,,13.925261,25.179182,-85.16031,
13217,-0.21200022,1.1806115,7.1838403,,,,,,,
13223,,,,0.156317,0.17947479,0.10114184,,,,
13226,,,,,,,15.002115,25.195522,-85.13371,
13237,-0.3245877,1.3363175,6.740677,,,,,,,
13243,,,,0.06949801,0.1981169,0.11552289,,,,
13246,,,,,,,13.925318,24.888996,-84.84743,
13257,-0.10899465,1.5614926,7.246123,,,,,,,
13263,,,,-0.20214418,0.14538635,0.12511027,,,,
13266,,,,,,,14.08156,25.003994,-87.16635,
13277,-0.13534491,1.504001,9.457149,,,,,,,
13283,,,,-0.43330637,0.12354844,0.028171293,,,,
13286,,,,,,,13.773424,24.71609,-86.39685,
13297,-0.47789833,1.4153684,10.908809,,,,,,,
13303,,,,-0.32358423,0.015956828,-0.11723717,,,,
13306,,,,,,,14.541098,25.326664,-85.76576,
13317,-0.91387546,1.2860125,10.750708,,,,,,,59.0
13323,,,,-0.041822027,-0.18697587,-0.17635931,,,,
13326,,,,,,,14.848303,25.048096,-84.98108,
13337,-1.2564288,1.5351423,10.029669,,,,,,,
13343,,,,0.15684964,-0.31906855,-0.06610453,,,,
13346,,,,,,,14.848093,24.327265,-83.88937,
13357,-0.3701018,1.1614476,10.293171,,,,,,,
13363,,,,0.217037,-0.3046875,0.19328713,,,,
13366,,,,,,,14.079336,25.757256,-86.09177,
13377,0.66714036,0.5745554,10.453669,,,,,,,
13383,,,,0.2628433,-0.3132096,0.2795735,,,,
13386,,,,,,,14.5404415,26.059076,-86.0838,
13397,0.4204061,1.6309614,9.953013,,,,,,,
13403,,,,0.34327072,-0.25408748,0.12777342,,,,
13406,,,,,,,13.466024,26.010307,-88.27664,
13417,0.29105026,2.3927233,9.488291,,,,,,,
13423,,,,0.27456126,-0.16673586,0.016986027,,,,
13426,,,,,,,13.313696,23.527496,-86.549286,
13438,0.72702736,1.9399781,9.323003,,,,,,,
13444,,,,0.015169572,-0.14702848,0.008463917,,,,
13446,,,,,,,13.312197,24.126398,-85.937195,
13458,1.7355238,1.0584421,10.396177,,,,,,,
13464,,,,-0.32731265,-0.20029165,-0.01177609,,,,
13466,,,,,,,13.462721,26.054316,-85.33673,
13478,1.0935357,2.1723394,12.326933,,,,,,,
13484,,,,-0.4386327,-0.123060055,-0.17529404,,,,
13486,,,,,,,12.389421,24.68813,-86.89525,
13498,0.051502436,2.4502149,13.452807,,,,,,,
13504,,,,-0.2127968,0.020217882,-0.19713195,,,,
13506,,,,,,,12.0809765,25.996243,-87.84665,
13518,1.0815581,0.31105274,12.36526,,,,,,,64.0
13524,,,,0.12702225,0.030337887,-0.13055299,,,,
13526,,,,,,,13.617865,26.473398,-87.040115,
13538,1.0096939,-0.5105964,11.318436,,,,,,,
13544,,,,0.16537173,-0.057013724,-0.29194036,,,,
13546,,,,,,,12.390928,24.957468,-88.60072,
13558,0.49227053,-0.92022324,11.107634,,,,,,,
13564,,,,-0.025843073,-0.029849501,-0.4213699,,,,
13566,,,,,,,12.692652,27.067558,-85.83191,
13578,0.27428192,-1.3993188,10.762685,,,,,,,
13584,,,,-0.053539924,0.17574637,-0.3862162,,,,
13586,,,,,,,12.850496,25.135044,-87.04372,
13598,0.20720854,-1.2531947,9.612856,,,,,,,
13604,,,,0.16537173,0.44259486,-0.18860984,,,,
13606,,,,,,,11.619871,25.694422,-87.854614,
13618,0.6240218,-0.8507544,8.429489,,,,,,,
13624,,,,0.26497388,0.43087694,0.016453395,,,,
13626,,,,,,,12.541204,25.441406,-85.9716,
13638,0.6910952,-0.19918418,7.8282237,,,,,,,
13644,,,,0.15525174,0.19918217,0.04521551,,,,
13646,,,,,,,12.69779,24.683533,-87.50658,
13658,0.7485867,0.19606978,7.492857,,,,,,,
13664,,,,0.023159048,0.063361056,-0.030418199,,,,
13666,,,,,,,12.849573,25.43681,-86.58293,
13679,0.37968302,0.8763857,7.456925,,,,,,,
13685,,,,-0.18882838,-0.011740022,-0.13854246,,,,
13686,,,,,,,13.001276,26.625366,-86.12863,
13699,-0.039525762,1.1758205,8.395952,,,,,,,
13705,,,,-0.4626011,-0.103885315,-0.19766457,,,,
13706,,,,,,,12.081903,25.694477,-88.30742,
13719,-0.21439569,0.9362726,9.660765,,,,,,,
13725,,,,-0.6634033,-0.246098,-0.23441617,,,,
13726,,,,,,,12.695169,26.59985,-87.528824,
13739,-0.37489277,0.5889282,10.856109,,,,,,,
13745,,,,-0.68470854,-0.32386225,-0.251993,,,,
13746,,,,,,,11.000536,26.606598,-85.40436,
13759,-0.5377853,0.49071363,11.335205,,,,,,,
13765,,,,-0.46313375,-0.25035906,-0.18381615,,,,
13766,,,,,,,12.233534,25.436737,-85.9792,
13769,,,,,,,,,,69.0
13779,-0.46831644,0.85722184,10.695612,,,,,,,
13785,,,,-0.12331468,-0.10921163,-0.012841353,,,,
13786,,,,,,,12.231874,27.774437,-87.3992,
13799,-0.056294113,1.3722497,9.660765,,,,,,,
13805,,,,0.08707486,0.007967353,0.17198187,,,,
13806,,,,,,,11.155481,27.17309,-87.10947,
13819,0.82763755,1.5998201,8.879839,,,,,,,
13825,,,,0.14886016,0.029805256,0.2396261,,,,
13826,,,,,,,9.921133,29.08463,-86.233734,
13839,1.4456708,1.7459444,7.9551845,,,,,,,
13845,,,,0.12595698,-0.005881073,0.15120922,,,,
13846,,,,,,,10.383463,27.488663,-84.96564,
13859,1.4193206,1.899255,7.672518,,,,,,,
13865,,,,0.0625738,0.032468412,-0.014439248,,,,
13866,,,,,,,11.310991,26.574207,-87.8725,
13879,0.92345667,1.8537409,7.9240427,,,,,,,
13885,,,,-0.06472518,0.0026410352,-0.17689195,,,,
13886,,,,,,,12.231867,26.906197,-86.305786,
13900,0.4132197,1.8657182,8.470212,,,,,,,
13906,,,,-0.18137154,-0.0021526506,-0.221633,10.695784,25.839405,-87.10547,
13920,0.47550213,1.6022156,8.937331,,,,,,,
13926,,,,-0.2277105,0.002108403,-0.19766457,10.385843,27.746422,-87.44479,
13940,0.22637233,1.6046112,9.766166,,,,,,,
13946,,,,-0.2676579,0.026609464,-0.20725195,10.383966,28.495049,-86.67969,
13960,-0.13774037,1.6908484,10.944742,,,,,,,
13966,,,,-0.19841574,0.06762211,-0.1694351,9.923082,27.032484,-85.4361,
13980,-0.09222628,1.5614926,11.239386,,,,,,,
13986,,,,0.039138,0.011695775,-0.07675716,9.925169,27.004688,-87.29289,
14000,0.21199948,1.3962045,10.48481,,,,,,,
14006,,,,0.2607128,-0.057546355,-0.01763504,9.463661,26.997684,-87.30429,
14020,0.5234117,1.0967697,10.151838,,,,,,,
14026,,,,0.2537886,-0.061274774,-0.063441366,9.155373,26.567001,-86.22362,
14040,0.49706143,0.60330117,10.590211,,,,,,,
14046,,,,0.12222856,-0.028251607,-0.19020773,10.231569,27.315756,-86.51506,
14060,-0.17606804,0.64402425,11.308854,,,,,,,
14066,,,,0.02955063,0.042055782,-0.2583846,9.309328,26.857204,-86.68744,
14080,-0.93064374,0.95064545,11.754413,,,,,,,
14086,,,,0.11690224,0.2891969,-0.14173825,9.157049,25.965784,-86.99045,
14100,-1.0743725,1.2548712,11.632244,,,,,,,
14106,,,,0.40026233,0.52035916,0.10273974,8.385433,25.986538,-84.84317,
14121,-0.64558184,1.3530859,10.683634,,,,,,,
14126,,,,,,,8.697729,24.482372,-87.13945,
14127,,,,0.65858877,0.42182222,0.34881562,,,,
14141,0.6934907,0.81889415,9.823658,,,,,,,
14146,,,,,,,9.927523,24.657724,-86.49184,
14147,,,,0.55951923,0.0473821,0.38823038,,,,
14161,1.3330834,0.20086074,10.604584,,,,,,,
14166,,,,,,,11.314215,24.215662,-87.84509,
14167,,,,0.06683486,-0.2812517,0.06066183,,,,
14181,0.6455811,-0.5010145,12.51378,,,,,,,
14186,,,,,,,9.004879,24.493992,-86.66765,
14187,,,,-0.24954839,-0.23331481,-0.3153762,,,,
14201,0.015570253,-1.2124716,13.093486,,,,,,,
14206,,,,,,,9.315592,24.024006,-88.82118,
14207,,,,-0.13023888,-0.057013724,-0.40592358,,,,
14220,,,,,,,,,,63.0
14221,-0.44436163,-1.3538048,11.816696,,,,,,,
14226,,,,,,,9.927523,24.657724,-86.49184,
14227,,,,0.15951279,0.13526636,-0.2434709,,,,
14241,-0.626418,-0.8531499,10.130279,,,,,,,
14246,,,,,,,9.4656105,24.945538,-86.50667,
14247,,,,0.45246023,0.3882664,0.11339237,,,,
14261,-0.51143503,0.07150489,8.446258,,,,,,,
14266,,,,,,,9.313265,23.476063,-86.02913,
14267,,,,0.58029187,0.38027695,0.41273144,,,,
14281,-0.2575143,1.2045662,7.468902,,,,,,,
14286,,,,,,,8.392502,22.563702,-86.97006,
14287,,,,0.42902443,0.13526636,0.5592052,,,,
14301,0.8156601,1.6716845,7.6557493,,,,,,,
14306,,,,,,,9.931612,22.287598,-87.23811,
14307,,,,0.051388532,-0.2977633,0.5448241,,,,
14320,,,,,,,,,,58.0
14321,1.9630942,1.3938091,8.784019,,,,,,,
14326,,,,,,,9.62426,22.42339,-87.711624,
14327,,,,-0.33104107,-0.68605185,0.2545398,,,,
14341,2.3200204,1.063233,9.986549,,,,,,,
14346,,,,,,,7.930498,22.418556,-86.36081,
14347,,,,-0.51426643,-0.7712729,-0.19606669,,,,
14362,1.9487214,0.36135778,10.657284,,,,,,,
14366,,,,,,,7.7754803,23.155582,-86.218445,
14368,,,,-0.49828744,-0.47353175,-0.64880365,,,,
14382,0.2814684,-0.060246438,10.38899,,,,,,,
14386,,,,,,,8.082613,24.180534,-86.99649,
14388,,,,-0.3363674,0.072948426,-0.9992754,,,,
14402,-1.5582591,-0.06982833,9.531409,,,,,,,
14406,,,,,,,7.6196594,24.482246,-86.0829,
14408,,,,-0.22185156,0.45857382,-1.0099281,,,,
14420,,,,,,,,,,53.0
14422,-1.9606996,-0.08899215,9.076268,,,,,,,
14426,,,,,,,7.7749405,24.175865,-87.00409,
14428,,,,-0.1808389,0.50651073,-0.6626521,,,,
14442,-1.016881,0.18888333,9.236765,,,,,,,
14446,,,,,,,9.617155,25.123077,-84.647766,
14448,,,,-0.15101153,0.20397584,-0.21737196,,,,
14462,0.24553618,0.4499905,9.270302,,,,,,,
14466,,,,,,,9.617155,25.123077,-84.647766,
14468,,,,0.019963259,-0.107613735,-0.0123087205,,,,
14482,0.56892574,0.87159467,8.510936,,,,,,,
14486,,,,,,,6.081995,24.449635,-86.73984,
14488,,,,0.28468123,-0.20402008,-0.11137823,,,,
14502,0.62881273,1.2381029,7.176654,,,,,,,
14506,,,,,,,5.311413,23.588251,-84.42757,
14508,,,,0.37895706,-0.14649585,-0.24453616,,,,
14521,,,,,,,,,,48.0
14522,0.49227053,1.448905,6.716722,,,,,,,
14526,,,,,,,5.926216,24.61787,-85.19801,
14528,,,,0.15578435,-0.0021526506,-0.35372564,,,,
14542,0.16408992,1.4752553,7.892902,,,,,,,
14546,,,,,,,5.9282303,23.143782,-85.18089,
14548,,,,-0.17018627,0.06868737,-0.42722884,,,,
14562,0.12097132,1.2500803,9.349353,,,,,,,
14566,,,,,,,6.851486,23.733526,-86.09334,
14568,,,,-0.28044105,-0.027718974,-0.47463304,,,,
14583,0.2000221,0.9769957,10.16142,,,,,,,
14586,,,,,,,6.0821495,22.710838,-84.70776,
14589,,,,-0.16059889,-0.1992264,-0.5177762,,,,
14603,-0.07066698,1.2309165,10.202143,,,,,,,
14606,,,,,,,5.004181,24.011911,-85.3687,
14609,,,,0.017832732,-0.2647401,-0.5225699,,,,
14621,,,,,,,,,,46.0
14623,-0.29823744,1.6357524,10.259635,,,,,,,
14626,,,,,,,4.39192,22.369492,-86.13873,
14629,,,,0.0860096,-0.19656323,-0.43947935,,,,
14643,-0.039525762,1.638148,10.568652,,,,,,,
14646,,,,,,,4.236841,22.528465,-85.21585,
14649,,,,0.07482433,-0.098559,-0.31697404,,,,
14663,0.5545529,1.4608824,10.618957,,,,,,,
14666,,,,,,,3.9283257,22.390284,-84.293335,
14669,,,,0.0844117,-0.04423056,-0.25412354,,,,
14683,0.96657526,1.2860125,10.499183,,,,,,,
14686,,,,,,,3.7767963,21.199411,-84.90236,
14689,,,,0.07535696,-0.016001077,-0.33455092,,,,
14703,0.7725414,1.5351423,10.915996,,,,,,,
14706,,,,,,,3.621523,22.374033,-85.0746,
14709,,,,0.04180116,0.027674727,-0.46611094,,,,
14721,,,,,,,,,,42.0
14723,0.58808964,1.7219896,11.390301,,,,,,,
14726,,,,,,,3.6213303,23.389683,-86.16971,
14729,,,,0.048725374,0.024478937,-0.5476036,,,,
14743,0.7581686,1.4776508,11.723271,,,,,,,
14746,,,,,,,2.5439548,23.38029,-85.7321,
14749,,,,0.030615892,-0.05381793,-0.64667314,,,,
14763,1.0096939,0.86201286,12.353283,,,,,,,
14766,,,,,,,2.5430489,22.668724,-84.021484,
14769,,,,-0.088160984,-0.17525797,-0.79314685,,,,
14783,1.1366543,-0.32614455,12.995271,,,,,,,
14786,,,,,,,2.0836391,20.75235,-83.54643,
14789,,,,-0.13236941,-0.15768112,-0.9524038,,,,
14803,0.93064296,-1.5885618,12.748537,,,,,,,
14806,,,,,,,2.698618,21.779655,-84.47162,
14809,,,,-0.0061356975,0.016489461,-1.0541365,,,,
14822,,,,,,,,,,38.0
14824,0.42759258,-1.9526745,11.826278,,,,,,,
14826,,,,,,,1.4693661,20.58402,-84.33359,
14830,,,,0.16057804,0.16083267,-0.9673174,,,,
14844,0.35093725,-1.50472,10.657284,,,,,,,
14846,,,,,,,1.929985,21.61594,-84.79837,
14850,,,,0.30119282,0.21462847,-0.64241207,,,,
14864,1.3594338,-0.96813273,9.670347,,,,,,,
14866,,,,,,,1.9312782,20.296207,-84.318756,
14870,,,,0.45246023,0.15870215,-0.24134038,,,,
14884,3.1656246,-0.6447432,8.520517,,,,,,,
14886,,,,,,,2.6993866,20.46687,-83.52782,
14890,,,,0.56431293,-0.04103477,-0.06770243,,,,
14904,4.641239,-0.5058055,7.011366,,,,,,,
14906,,,,,,,1.3146133,21.751694,-84.97,
14910,,,,0.48654866,-0.23065168,-0.25678667,,,,
14924,3.7165844,0.7805666,6.019638,,,,,,,
14926,,,,,,,1.6243458,19.123846,-83.539,
14930,,,,0.15738226,-0.18324743,-0.7547974,,,,
14944,1.711569,1.8106223,7.1886315,,,,,,,
14946,,,,,,,0.85245514,20.59553,-82.95618,
14950,,,,-0.39655477,-0.07618846,-1.2085997,,,,
14964,0.9018972,1.1518657,9.342167,,,,,,,
14966,,,,,,,1.6211243,21.482391,-83.56639,
14970,,,,-0.8631402,-0.2247927,-1.4056735,,,,
14972,,,,,,,,,,35.0
14984,0.82524204,0.10025062,11.155544,,,,,,,
14986,,,,,,,-0.83843994,20.118357,-83.61177,
14990,,,,-0.92812127,-0.39097384,-1.4461535,,,,
15004,0.7605641,-0.43633655,11.56038,,,,,,,
15006,,,,,,,-1.7655239,22.329384,-82.73184,
15010,,,,-0.704416,-0.46341175,-1.4259135,,,,
15024,0.59288055,-0.3357264,10.997442,,,,,,,
15026,,,,,,,-2.2274609,22.76229,-82.90312,
15030,,,,-0.46579692,-0.32173172,-1.3582692,,,,
15045,0.7749369,-0.10096955,10.681239,,,,,,,
15046,,,,,,,-0.8399048,21.440405,-83.93663,
15051,,,,-0.25647262,-0.047426354,-1.2378944,,,,
15065,1.3474562,-0.1416927,10.405759,,,,,,,
15066,,,,,,,-1.9166012,22.435081,-85.36783,
15071,,,,-0.011462016,0.119287394,-1.1872945,,,,
15085,1.6971961,-0.07222381,9.251138,,,,,,,
15086,,,,,,,-2.225647,21.435608,-82.88771,
15091,,,,0.19946016,0.042055782,-1.2416228,,,,
15105,1.6516821,0.04036367,8.122869,,,,,,,
15106,,,,,,,-2.5345383,21.447151,-81.81218,
15111,,,,0.24792965,-0.061807405,-1.335366,,,,
15125,1.2588236,0.06431845,8.125263,,,,,,,
15126,,,,,,,-2.993473,20.682257,-83.207596,
15131,,,,0.12648962,-0.12199479,-1.4360335,,,,
15145,0.6791178,0.16971952,8.63071,,,,,,,
15146,,,,,,,-3.607088,19.781515,-83.67674,
15151,,,,0.08281381,-0.057546355,-1.4456209,,,,
15165,0.6216263,0.37333518,8.815161,,,,,,,
15166,,,,,,,-4.686777,20.09242,-81.54048,
15171,,,,0.17336121,0.024478937,-1.322583,,,,
15185,1.095931,0.64402425,8.795997,,,,,,,
15186,,,,,,,-4.6852303,18.335093,-80.74628,
15191,,,,0.18614438,-0.07725373,-1.2629281,,,,
15205,1.2037276,0.6200695,8.992427,,,,,,,
15206,,,,,,,-4.9909325,18.01476,-82.14305,
15211,,,,0.090270646,-0.18804112,-1.3710524,,,,
15223,,,,,,,,,,33.0
15225,0.82524204,0.2703296,9.6487875,,,,,,,
15226,,,,,,,-5.2996407,18.892227,-82.31566,
15231,,,,-0.056735717,-0.23491272,-1.5548103,,,,
15245,0.34135532,-0.12971532,10.76029,,,,,,,
15246,,,,,,,-5.9154224,18.45456,-81.39732,
15251,,,,-0.13290204,-0.18324743,-1.6400313,,,,
15265,0.09462103,-0.44831392,11.45977,,,,,,,
15266,,,,,,,-5.4534473,18.7448,-82.16301,
15271,,,,-0.03170202,-0.047426354,-1.5750504,,,,
15286,-0.00598906,-0.38363603,11.205849,,,,-6.069004,18.014631,-81.08652,
15292,,,,0.18880753,0.06549159,-1.4285766,,,,
15306,-0.12097203,0.1481602,10.664471,,,,-5.4491005,15.93708,-82.59468,
15312,,,,0.34966233,0.119287394,-1.2900923,,,,
15326,-0.111390114,0.5218549,10.159025,,,,-6.371458,15.190659,-82.29945,
15332,,,,0.4519276,0.10703686,-1.1782397,,,,
15346,0.13534415,0.98657763,9.782935,,,,-5.75745,14.928341,-80.73349,
15352,,,,0.5067887,0.011695775,-1.0690502,,,,
15366,0.9042927,1.1422838,9.263116,,,,-5.9115067,16.08675,-81.98886,
15372,,,,0.46790656,-0.13637584,-1.0344291,,,,
15386,1.9822581,0.6320469,8.774438,,,,-5.451187,15.964874,-80.737885,
15392,,,,0.2468644,-0.29190433,-1.2011428,,,,
15406,2.1643145,-0.5010145,9.246346,,,,-6.8295975,12.967888,-82.594635,
15412,,,,-0.24422207,-0.36434224,-1.6251177,,,,
15426,0.68151325,-1.7322904,10.951928,,,,-6.677061,13.421713,-81.977036,
15432,,,,-0.7379717,-0.23917377,-2.0762568,,,,
15446,-1.1725872,-2.3024144,12.008334,,,,-7.1390095,12.986382,-81.0549,
15452,,,,-0.80082226,0.031403154,-2.1577494,,,,
15466,-2.3008575,-1.8496689,11.361555,,,,-8.986597,13.847452,-80.8013,
15472,,,,-0.41306636,0.34512326,-1.6980883,,,,
15486,-1.7570839,-0.9920876,10.477623,,,,-6.8308697,13.274286,-81.8244,
15492,,,,-0.026908336,0.34618852,-0.95346904,,,,
15506,,,,,,,-7.906871,11.509882,-80.437836,
15507,-0.19283639,-0.12492433,9.900312,,,,,,,
15513,,,,0.14513172,-0.11773374,-0.51617837,,,,
15526,,,,,,,-6.5230055,12.263306,-80.72168,
15527,1.2923603,0.5146684,9.28228,,,,,,,
15533,,,,0.23461387,-0.64290863,-0.5028625,,,,
15546,,,,,,,-8.060936,11.800049,-80.59981,
15547,2.437399,1.0320917,9.339771,,,,,,,
15553,,,,0.20105807,-0.9379866,-0.71485,,,,
15566,,,,,,,-7.7536116,11.809351,-80.282745,
15567,3.4195452,0.8332671,10.125488,,,,,,,
15573,,,,0.023159048,-1.0919173,-1.0717133,,,,
15586,,,,,,,-9.290177,11.472656,-81.555176,
15587,3.043455,0.009222448,10.518346,,,,,,,
15593,,,,-0.10786836,-0.9731403,-1.5612019,,,,
15606,,,,,,,-10.522661,11.767328,-80.351135,
15607,1.1630045,-0.29739884,10.082369,,,,,,,
15613,,,,-0.22078629,-0.6130812,-1.9931663,,,,
15626,,,,,,,-10.676872,11.914719,-80.201904,
15627,-0.60964966,-0.388427,10.367431,,,,,,,
15633,,,,-0.45887268,-0.18804112,-2.0853117,,,,
15646,,,,,,,-10.367187,10.445297,-80.177185,
15647,-1.6301235,-0.4938281,11.6298485,,,,,,,
15653,,,,-0.5707253,0.14059266,-1.8909009,,,,
15666,,,,,,,-9.75285,11.191681,-80.17055,
15667,-1.7091743,-0.12252888,11.919701,,,,,,,
15673,,,,-0.30813792,0.13899477,-1.540962,,,,
15686,,,,,,,-11.1348095,9.544537,-80.49538,
15687,-0.62162703,0.23918839,10.3554535,,,,,,,
15693,,,,0.1078475,-0.12785374,-1.1947513,,,,
15706,,,,,,,-10.368056,10.456879,-79.40352,
15707,0.2215814,0.7661936,8.736111,,,,,,,
15713,,,,0.28787702,-0.35315698,-1.0557344,,,,
15726,,,,,,,-10.057353,9.11865,-80.46364,
15727,0.3772875,0.9171088,8.199524,,,,,,,
15733,,,,0.25698438,-0.33398223,-1.0956818,,,,
15746,,,,,,,-11.441529,9.093006,-80.80731,
15748,0.03712955,0.95304096,7.6988683,,,,,,,
15754,,,,0.18294859,-0.246098,-1.1643913,,,,
15766,,,,,,,-10.518294,7.9462757,-79.53294,
15768,-0.085039854,1.0895833,7.272473,,,,,,,
15774,,,,0.050323267,-0.16886638,-1.1233785,,,,
15786,,,,,,,-9.13039,6.6197567,-80.87593,
15788,-0.015570968,1.108747,7.7228227,,,,,,,
15794,,,,-0.14089152,-0.14383268,-1.0541365,,,,
15806,,,,,,,-9.288639,8.847088,-79.66756,
15808,-0.013175502,1.1638432,8.273783,,,,,,,
15814,,,,-0.25221157,-0.15342006,-1.0136565,,,,
15826,,,,,,,-9.288639,8.847088,-79.66756,
15828,-0.291051,1.2740351,8.434279,,,,,,,
15834,,,,-0.26712528,-0.12519057,-0.9753069,,,,
15846,,,,,,,-10.517022,7.6398735,-80.30319,
15848,-0.65516376,1.5399333,8.642687,,,,,,,
15854,,,,-0.32038844,-0.17312744,-0.90713,,,,
15866,,,,,,,-10.517022,7.6398735,-80.30319,
15868,-0.6934914,1.8417635,8.839116,,,,,,,
15874,,,,-0.40028322,-0.24077167,-0.80379945,,,,
15886,,,,,,,-8.978962,6.509428,-78.54942,
15888,-0.74140096,2.1316164,9.172088,,,,,,,
15894,,,,-0.45834005,-0.23491272,-0.69141424,,,,
15906,,,,,,,-9.439354,7.934822,-81.36316,
15908,-0.6288135,2.4238646,9.708674,,,,,,,
15914,,,,-0.4753843,-0.2546201,-0.5603868,,,,
15926,,,,,,,-11.133959,7.7964745,-79.082245,
15928,-0.22397761,2.6610172,10.561465,,,,,,,
15934,,,,-0.40933797,-0.24077167,-0.44480568,,,,
15946,,,,,,,-9.90154,6.923748,-79.50577,
15948,0.06827077,2.8263052,10.975883,,,,,,,
15954,,,,-0.23303682,-0.21200955,-0.41231516,,,,
15966,,,,,,,-11.131853,6.7553463,-79.68918,
15969,0.17127633,3.087412,10.300358,,,,,,,
15975,,,,-0.050344136,-0.16247481,-0.41604358,,,,
15986,,,,,,,-9.902199,7.6561604,-79.82379,
15989,0.34854174,3.1209488,9.814075,,,,,,,
15995,,,,-0.08283467,-0.120929524,-0.42243513,,,,
16006,,,,,,,-9.286983,6.509392,-78.247574,
16009,0.42280155,2.807141,10.489601,,,,,,,
16015,,,,-0.2543421,-0.07831899,-0.4352183,,,,
16026,,,,,,,-10.981715,7.9647503,-77.84227,
16029,0.49466592,2.2465994,11.826278,,,,,,,
16035,,,,-0.28470212,-0.06447057,-0.44427305,,,,
16046,,,,,,,-9.903087,8.681078,-80.29997,
16049,0.32219148,1.9375826,12.33891,,,,,,,
16055,,,,-0.083367296,-0.06819899,-0.43575093,,,,
16066,,,,,,,-10.980461,8.671684,-79.86238,
16069,0.29105026,1.959142,11.6034975,,,,,,,
16075,,,,0.15525174,-0.043165296,-0.35212776,,,,
16086,,,,,,,-10.36368,7.5040646,-79.67874,
16089,0.47310662,1.94956,11.093261,,,,,,,
16095,,,,0.14619699,0.029805256,-0.24879724,,,,
16106,,,,,,,-10.670948,7.2045784,-79.68292,
16109,0.59048504,1.8130177,11.541216,,,,,,,
16115,,,,-0.014125174,0.18267058,-0.15931511,,,,
16126,,,,,,,-9.132203,7.9464397,-80.89134,
16129,0.7342138,1.3027809,12.33891,,,,,,,
16135,,,,-0.16059889,0.2657611,-0.15398878,,,,
16146,,,,,,,-9.748217,7.8012714,-80.131165,
16149,0.4659202,0.5002955,13.368966,,,,,,,
16155,,,,-0.2809737,0.13686424,-0.3153762,,,,
16166,,,,,,,-7.7488422,7.6934776,-79.461136,
16169,0.16408992,-0.92261875,14.286434,,,,,,,
16175,,,,-0.2628642,-0.16034427,-0.50446045,,,,
16186,,,,,,,-8.82639,7.6863995,-78.86879,
16190,-0.101808205,-2.1970134,13.996581,,,,,,,
16196,,,,0.024224313,-0.36114645,-0.5135152,,,,
16206,,,,,,,-8.980775,7.8361073,-78.564835,
16210,-0.6719321,-1.5741888,11.773577,,,,,,,
16216,,,,0.5003971,-0.26420748,-0.18221825,,,,
16226,,,,,,,-10.367269,8.130762,-77.20987,
16230,0.4204061,-0.5249692,9.049918,,,,,,,
16236,,,,0.84447724,0.015956828,0.4686578,,,,
16246,,,,,,,-11.131743,6.1749744,-79.0634,
16250,2.538009,0.25595674,7.2892413,,,,,,,
16256,,,,0.80879086,0.12301581,0.8244558,,,,
16266,,,,,,,-9.442604,7.6886425,-78.11032,
16270,3.972901,0.9290862,7.1335354,,,,,,,
16276,,,,0.4801571,-2.2123684E-5,0.5980873,,,,30.0
16286,,,,,,,-9.289611,7.5574684,-77.17642,
16290,4.001646,1.3818316,7.504834,,,,,,,
16296,,,,0.05778011,-0.21147692,-0.00911293,,,,
16306,,,,,,,-7.9034653,7.2674484,-78.22194,
16310,1.9750717,1.5399333,8.012676,,,,,,,
16316,,,,-0.2143947,-0.11986426,-0.67383736,,,,
16326,,,,,,,-7.9017076,6.2309494,-78.51941,
16330,-0.3389606,1.2165437,8.20671,,,,,,,
16336,,,,-0.29642,0.19225796,-0.9731764,,,,
16346,,,,,,,-7.9012403,6.514189,-79.29649,
16350,-1.6492873,0.6943293,8.177964,,,,,,,
16356,,,,-0.34116107,0.36163482,-0.7968753,,,,
16366,,,,,,,-8.209049,7.2349834,-80.08632,
16370,-1.9750724,0.77817106,8.278574,,,,,,,
16376,,,,-0.36566216,0.30091482,-0.31963724,,,,
16386,,,,,,,-8.059352,8.016056,-77.30589,
16390,-0.64318633,0.91471326,8.642687,,,,,,,
16396,,,,-0.22238417,0.11875476,0.21565767,,,,
16406,,,,,,,-9.902547,7.6607933,-79.51433,
16410,0.95459783,1.1374928,8.072563,,,,,,,
16416,,,,0.036474843,-0.14436533,0.4036767,,,,
16426,,,,,,,-8.367216,9.027035,-78.4086,
16431,1.6349138,1.4704643,7.502439,,,,,,,
16437,,,,0.16430646,-0.2247927,0.21778819,,,,
16446,,,,,,,-7.7496557,7.414873,-78.37457,
16451,1.3402699,1.5303513,7.107185,,,,,,,
16457,,,,0.14939278,-0.039436877,-0.032016095,,,,
16466,,,,,,,-7.597871,8.168152,-77.45094,
16471,0.4659202,1.5878428,6.9442925,,,,,,,
16477,,,,0.05458432,0.21249795,-0.14493404,,,,
16486,,,,,,,-8.367161,8.736851,-78.09572,
16491,-0.25990978,1.6764755,7.401829,,,,,,,
16497,,,,-0.08656309,0.28866428,-0.08954033,,,,
16506,,,,,,,-7.902651,7.546051,-79.30849,
16511,-0.30781937,1.839368,8.381579,,,,,,,
16517,,,,-0.16805574,0.13899477,0.049476564,,,,
16526,,,,,,,-6.365883,7.7353344,-78.03433,
16531,0.19283566,2.0094469,9.332584,,,,,,,
16537,,,,-0.12065152,-0.057546355,0.1607966,,,,
16546,,,,,,,-6.3672285,9.345255,-78.82683,
16551,0.8659651,1.9184189,9.766166,,,,,,,
16557,,,,-0.024245178,-0.15235479,0.17837344,,,,
16566,,,,,,,-8.83008,9.761709,-78.119095,
16571,1.1965411,1.5830519,10.398573,,,,,,,
16577,,,,-0.04501782,-0.23331481,0.10007658,,,,
16586,,,,,,,-6.830989,10.236605,-77.920105,
16591,0.91866565,1.2141482,11.416651,,,,,,,
16597,,,,-0.11106415,-0.29403484,0.017518658,,,,
16606,,,,,,,-6.9849167,9.801306,-77.299835,
16611,0.5234117,0.9362726,12.753327,,,,,,,
16617,,,,-0.065257825,-0.20934638,0.019649185,,,,
16626,,,,,,,-8.369165,11.07918,-79.20624,
16627,,,,,,,,,,32.0
16631,0.17367181,0.6104876,12.856334,,,,,,,
16637,,,,0.17229596,0.06123053,0.11339237,,,,
16646,,,,,,,-7.44864,11.4158,-77.33006,
16652,-0.04192123,0.68714285,11.955634,,,,,,,
16658,,,,0.40505603,0.31369796,0.29661772,,,,
16666,,,,,,,-7.1391287,9.948696,-77.15062,
16672,0.10659844,0.9817867,11.414255,,,,,,,
16678,,,,0.3864139,0.3126327,0.48623464,,,,
16686,,,,,,,-6.831996,10.97365,-77.928665,
16692,0.4659202,0.85722184,12.794051,,,,,,,
16698,,,,0.12862015,0.04951263,0.5181925,,,,
16706,,,,,,,-7.140538,10.980562,-77.1626,
16712,0.41801065,0.6224649,14.779902,,,,,,,
16718,,,,-0.034365177,-0.43784544,0.3195209,,,,
16726,,,,,,,-8.676811,10.92942,-79.0574,
16732,0.70786357,-0.22313896,14.882908,,,,,,,
16738,,,,0.124359086,-0.7334561,0.14535028,,,,
16746,,,,,,,-7.9097185,10.968889,-77.181595,
16752,1.3426654,-1.339432,13.313869,,,,,,,
16758,,,,0.27828965,-0.6354518,0.062259726,,,,
16766,,,,,,,-6.8298903,9.932518,-78.535614,
16772,1.0025073,-1.5262792,11.775972,,,,,,,
16778,,,,0.31078017,-0.18164954,0.010594444,,,,
16786,,,,,,,-8.373826,11.864868,-75.96541,
16792,0.49706143,-1.5286747,9.43559,,,,,,,
16798,,,,0.36084756,0.41063696,0.019116554,,,,
16806,,,,,,,-8.3726635,12.138838,-77.36142,
16812,-0.20960474,-0.96334183,7.7156363,,,,,,,
16818,,,,0.2436686,0.85272133,0.12883869,,,,
16826,,,,,,,-7.908656,9.941654,-76.86015,
16832,-0.61204517,-0.15606555,7.6940775,,,,,,,
16838,,,,0.05511695,0.92302877,0.3818388,,,,
16846,,,,,,,-8.369376,10.358349,-78.11455,
16852,-0.24314144,0.86201286,8.029445,,,,,,,
16858,,,,-0.06738835,0.39838642,0.5661294,,,,
16866,,,,,,,-7.4497204,13.456366,-78.90137,
16872,1.1103039,1.0823969,8.606754,,,,,,,
16878,,,,-0.24049366,-0.48098862,0.51499677,,,,
16886,,,,,,,-7.141079,12.000843,-77.94826,
16893,2.16671,0.6919338,9.332584,,,,,,,
16899,,,,-0.3699232,-1.004033,0.21832082,,,,
16906,,,,,,,-8.376234,14.502018,-77.079346,
16913,1.9583032,0.44280407,9.794911,,,,,,,
16919,,,,-0.28470212,-0.8064266,-0.16464141,,,,
16926,,,,,,,-7.910368,12.56954,-78.59302,
16933,0.87075615,0.24158387,8.879839,,,,,,,
16939,,,,-0.05513782,-0.13957164,-0.40752146,,,,
16946,,,,,,,-10.065025,12.983717,-78.3419,
16953,-0.13534491,0.15774211,7.492857,,,,,,,
16959,,,,0.10252118,0.5858728,-0.37183514,,,,
16966,,,,,,,-9.142942,12.431252,-76.76492,
16973,-0.4922712,0.030781746,6.901174,,,,,,,
16979,,,,0.062041167,0.84846026,-0.16144563,,,,
16986,,,,,,,-10.68058,12.253548,-77.265396,
16993,-0.52341247,0.17451046,6.901174,,,,,,,
16999,,,,-0.025843073,0.6268855,-0.00911293,,,,
17006,,,,,,,-8.0679035,13.774275,-76.75374,
17013,-0.19044091,0.39249903,7.1814446,,,,,,,
17019,,,,-0.03170202,0.22048743,0.046813406,,,,
17026,,,,,,,-7.9121904,13.027983,-77.515045,
17028,,,,,,,,,,36.0
17033,0.21439496,0.56976444,7.224563,,,,,,,
17039,,,,0.0844117,-0.061807405,0.06439025,,,,
17046,,,,,,,-8.681307,13.594362,-78.314545,
17053,0.15211254,1.0871878,7.23175,,,,,,,
17059,,,,0.19786227,-0.19123691,0.049476564,,,,
17066,,,,,,,-8.989848,13.6012745,-77.54848,
17073,0.09701651,1.7387581,7.337151,,,,,,,
17079,,,,0.15684964,-0.31214434,0.052139726,,,,
17086,,,,,,,-7.4537573,15.536306,-77.84219,
17093,0.25990906,2.0549612,7.9240427,,,,,,,
17099,,,,-0.023179915,-0.29563275,0.07983657,,,,
17106,,,,,,,-10.221708,15.190201,-78.52611,
17114,0.55694836,1.9998652,9.313421,,,,,,,
17120,,,,-0.18350206,-0.14170216,0.07504288,,,,
17126,,,,,,,-10.065831,13.573351,-78.34874,
17134,1.0887446,1.6501253,10.616561,,,,,,,
17140,,,,-0.16805574,-0.021327393,0.008463917,,,,
17146,,,,,,,-10.68253,14.305691,-78.063034,
17154,1.0599989,1.4273458,11.574752,,,,,,,
17160,,,,-0.073779926,0.012228407,-0.12895508,,,,
17166,,,,,,,-10.529994,14.759518,-77.445435,
17174,0.33177346,1.4920237,12.027498,,,,,,,
17180,,,,0.06949801,0.019152619,-0.22216564,,,,
17186,,,,,,,-10.223329,15.501232,-77.446396,
17194,0.041920513,1.3171538,12.31256,,,,,,,
17200,,,,0.23088545,0.028207358,-0.17316352,,,,
17206,,,,,,,-10.223329,15.501232,-77.446396,
17214,-0.0682715,1.2812215,12.022707,,,,,,,
17220,,,,0.3928055,0.12834214,-0.0623761,,,,
17226,,,,,,,-10.372688,13.847288,-79.44289,
17234,-0.180859,1.6070067,11.090866,,,,,,,
17240,,,,0.36564127,0.2907948,0.042552352,,,,
17246,,,,,,,-10.220042,13.720743,-78.19951,
17254,0.16408992,1.7914585,12.020312,,,,,,,
17260,,,,0.013571678,0.37068957,0.11232711,,,,
17266,,,,,,,-11.758165,14.273134,-79.17276,
17274,0.935434,1.7459444,15.395541,,,,,,,
17278,,,,,,,,,,39.0
17280,,,,-0.32411686,0.036196835,0.085162885,,,,
17286,,,,,,,-10.6789875,14.837421,-81.93822,
17294,1.9175804,0.81889415,17.376602,,,,,,,
17300,,,,-0.13023888,-0.5843192,-5.8190548E-5,,,,
17306,,,,,,,-12.221604,15.304945,-78.73193,
17314,2.7200656,-1.0687429,15.709348,,,,,,,
17320,,,,0.5472687,-0.90815926,-0.2589172,,,,
17326,,,,,,,-12.220735,15.293364,-79.5056,
17334,2.0397494,-2.1155672,10.872877,,,,,,,
17340,,,,1.0234416,-0.5422412,-0.5625173,,,,
17346,,,,,,,-12.220195,14.273079,-78.719955,
17355,0.70546806,-1.7897819,7.0520887,,,,,,,
17361,,,,0.8721741,0.33020955,-0.47942674,,,,
17366,,,,,,,-14.679228,13.770338,-80.32294,
17375,0.34135532,-0.9154322,5.7537394,,,,,,,
17381,,,,0.34912968,0.9922709,-0.068235055,,,,
17386,,,,,,,-13.141773,13.082117,-78.574326,
17395,0.9018972,-0.11534244,6.321468,,,,,,,
17401,,,,-0.16912101,0.8772224,0.23696293,,,,
17406,,,,,,,-11.756269,12.511175,-78.688,
17415,1.8481112,0.27751604,7.071253,,,,,,,
17421,,,,-0.54356116,0.2098348,0.1863629,,,,
17426,,,,,,,-11.138435,12.197901,-80.526184,
17435,1.5438855,0.8811766,8.003094,,,,,,,
17441,,,,-0.7859086,-0.19283481,-0.17369615,,,,
17446,,,,,,,-12.064803,13.386328,-79.01535,
17455,-0.07785343,1.7435489,9.174483,,,,,,,
17461,,,,-0.8375738,-0.020794762,-0.5172436,,,,
17466,,,,,,,-13.29745,14.551558,-78.74997,
17475,-1.1031182,1.559097,9.639206,,,,,,,
17481,,,,-0.8295844,0.23859692,-0.59554046,,,,
17486,,,,,,,-13.911055,14.519056,-80.3125,
17495,-1.5870049,0.9793912,10.005713,,,,,,,
17501,,,,-0.8045507,0.4212896,-0.50339514,,,,
17506,,,,,,,-12.524964,14.51922,-81.67091,
17515,-1.5989822,0.33979848,9.931454,,,,,,,
17521,,,,-0.59416115,0.57095915,-0.28821194,,,,
17526,,,,,,,-12.220479,14.855768,-79.19101,
17529,,,,,,,,,,45.0
17535,-1.1079092,0.23918839,9.114595,,,,,,,
17541,,,,-0.2783105,0.527816,-0.034679253,,,,
17546,,,,,,,-12.83391,14.82095,-80.908264,
17555,-0.346147,0.45238596,8.266597,,,,,,,
17561,,,,-0.027440967,0.22741166,0.14002395,,,,
17566,,,,,,,-12.218822,15.267885,-81.20767,
17576,-0.12336751,0.8787811,7.162281,,,,,,,
17582,,,,0.09293381,-0.05222004,0.12351238,,,,
17586,,,,,,,-12.681805,15.714687,-80.45055,
17596,-0.3605199,1.1662385,6.53227,,,,,,,
17602,,,,0.052453794,-0.057013724,0.09155447,,,,
17606,,,,,,,-11.450182,16.299839,-81.974335,
17616,-0.2575143,1.0273008,7.0999985,,,,,,,
17622,,,,-0.13769573,0.10117791,0.14535028,,,,
17626,,,,,,,-12.371971,14.388044,-80.737015,
17629,,,,,,,,,,47.0
17636,-0.089830816,0.95064545,8.2881565,,,,,,,
17642,,,,-0.29801792,0.21356322,0.2028745,,,,
17646,,,,,,,-12.371412,15.104242,-82.13815,
17656,-0.085039854,1.1758205,9.459545,,,,,,,
17662,,,,-0.32145372,0.08626422,0.2497461,,,,
17666,,,,,,,-13.452705,17.462658,-81.10901,
17676,-0.010780022,1.4848373,10.432109,,,,,,,
17682,,,,-0.20054628,-0.21200955,0.2960851,,,,
17686,,,,,,,-13.145244,16.746496,-80.009735,
17696,0.3964513,1.453696,11.122006,,,,,,,
17702,,,,-0.078573614,-0.5065549,0.28117138,,,,
17706,,,,,,,-13.914122,17.888617,-81.74449,
17716,0.7773324,1.1614476,11.634639,,,,,,,
17722,,,,0.04233379,-0.52999073,0.21352714,,,,
17726,,,,,,,-14.372215,14.50742,-80.63338,
17736,0.9426204,0.68714285,11.725668,,,,,,,
17742,,,,0.25165805,-0.28231695,0.19062397,,,,
17746,,,,,,,-14.526985,16.688425,-82.51965,
17756,0.5425755,0.67277,11.191476,,,,,,,
17762,,,,0.44234022,-0.031447396,0.20180924,,,,
17766,,,,,,,-14.83354,15.366339,-81.8929,
17776,-0.056294113,0.9769957,10.880064,,,,,,,
17782,,,,0.38907707,0.06815474,0.20553765,,,,
17786,,,,,,,-14.987001,15.214281,-82.04973,
17796,-0.2575143,1.1374928,11.663384,,,,,,,
17802,,,,0.16910015,0.07614422,0.29342192,,,,
17806,,,,,,,-15.9112625,15.361578,-81.14583,
17817,0.19044018,1.2045662,12.480243,,,,,,,
17823,,,,0.101988554,0.03406631,0.43883038,,,,
17826,,,,,,,-16.064466,14.771923,-80.98805,
17837,0.8491968,0.89794505,12.832378,,,,,,,
17843,,,,0.19732964,-0.001620019,0.46439674,,,,
17846,,,,,,,-15.447603,13.169027,-80.33508,
17857,1.6732414,-0.18960229,12.683859,,,,,,,
17863,,,,0.18880753,-0.17046428,0.24015872,,,,
17866,,,,,,,-15.755175,14.465563,-82.060165,
17877,1.546281,-1.6484486,13.098277,,,,,,,
17883,,,,-0.01252728,-0.31214434,-0.21311091,,,,
17886,,,,,,,-16.68276,15.6702,-79.4662,
17897,0.7821233,-2.8174424,12.784469,,,,,,,
17903,,,,0.017832732,-0.19230218,-0.49061203,,,,
17906,,,,,,,-16.98655,15.3243885,-82.56503,
17917,-0.28626004,-2.556335,10.288381,,,,,,,
17923,,,,0.29320332,0.095318966,-0.37076986,,,,
17926,,,,,,,-17.757992,15.342829,-80.57251,
17937,-0.38687015,-1.4424375,8.077354,,,,,,,
17943,,,,0.41943708,0.2801422,0.08569552,,,,
17946,,,,,,,-17.137016,13.106287,-82.85263,
17957,0.6407901,-0.24709377,7.0161567,,,,,,,
17963,,,,0.217037,0.09585159,0.40420932,,,,
17966,,,,,,,-16.984133,13.555481,-82.544495,
17977,1.4193206,0.8811766,7.600653,,,,,,,
17983,,,,-0.26819053,-0.26047906,0.29874822,,,,
17986,,,,,,,-16.214146,12.977518,-82.51865,
17997,1.5582584,0.99376416,9.339771,,,,,,,
18003,,,,-0.7225254,-0.47619492,-0.055984523,,,,
18006,,,,,,,-16.831972,14.159031,-81.77388,
18017,1.0049028,0.06910941,10.772266,,,,,,,
18023,,,,-0.7672665,-0.34570014,-0.41284776,,,,
18026,,,,,,,-18.21439,13.096893,-82.41502,
18038,-0.10659915,-0.61839294,11.1411705,,,,,,,
18044,,,,-0.4892327,-0.098559,-0.57636577,,,,
18046,,,,,,,-17.448122,14.73933,-81.79591,
18058,-1.0408357,-0.70223475,9.950618,,,,,,,
18064,,,,-0.06472518,0.1512453,-0.44001198,,,,
18066,,,,,,,-18.52525,13.424101,-79.9503,
18078,-1.2157056,-0.41238174,8.2881565,,,,,,,
18084,,,,0.24792965,0.40318012,-0.1358793,,,,
18086,,,,,,,-18.984322,13.38467,-82.127975,
18098,-0.74140096,-0.13211077,7.492857,,,,,,,
18104,,,,0.3043886,0.4548454,0.09528289,,,,
18106,,,,,,,-17.136879,12.380823,-82.070404,
18118,-0.27428266,0.09785515,7.071253,,,,,,,
18124,,,,0.25591913,0.3259485,0.17784081,,,,
18126,,,,,,,-18.061123,14.264603,-83.35332,
18138,0.08743459,0.4499905,6.8412867,,,,,,,
18144,,,,0.24473387,0.18906216,0.23589766,,,,
18146,,,,,,,-18.062092,12.974983,-80.86218,
18158,0.3820784,0.9314817,6.7143264,,,,,,,
18164,,,,0.21330859,0.074013695,0.2497461,,,,
18166,,,,,,,-17.137016,13.106287,-82.85263,
18178,0.49466592,1.1901934,7.6246085,,,,,,,
18184,,,,0.07482433,0.030337887,0.12670816,,,,
18186,,,,,,,-18.363695,11.15276,-84.09863,
18198,-0.001198113,1.4369277,9.780539,,,,,,,
18204,,,,-0.10094415,0.020750513,-0.07835506,,,,
18206,,,,,,,-17.441174,11.0286255,-83.455185,
18218,-0.61204517,1.5063965,11.584333,,,,,,,
18224,,,,-0.063127294,0.0015757716,-0.191273,,,,
18226,,,,,,,-18.059658,12.942554,-83.02844,
18238,-1.2252877,1.6597072,11.91491,,,,,,,
18244,,,,0.23088545,-0.017066339,-0.1076498,,,,
18246,,,,,,,-17.90552,11.348869,-81.30374,
18258,-0.9761579,1.6812665,10.856109,,,,,,,
18264,,,,0.5968035,-0.043165296,0.17677554,,,,
18266,,,,,,,-18.366478,11.189821,-81.622894,
18279,0.34135532,1.8465545,9.50985,,,,,,,
18285,,,,0.65113187,-0.14969164,0.4185904,,,,
18286,,,,,,,-17.290478,12.954227,-83.009445,
18299,1.3498517,2.0501702,9.806889,,,,,,,
18305,,,,0.41411075,-0.159279,0.41113356,,,,
18306,,,,,,,-17.90378,11.3257065,-82.851074,
18319,1.6995916,2.0908933,10.7387295,,,,,,,
18325,,,,0.28521386,-0.03837161,0.2449524,,,,
18326,,,,,,,-19.134752,11.889713,-83.35252,
18339,1.4336935,1.959142,10.489601,,,,,,,
18345,,,,0.31717178,0.19545373,0.0047354954,,,,
18346,,,,,,,-18.364784,9.575272,-81.13986,
18359,0.3772875,1.7794812,10.147047,,,,,,,
18365,,,,0.25432122,0.42235485,-0.191273,,,,
18366,,,,,,,-18.056297,9.858545,-82.21881,
18379,-0.20960474,1.4009955,10.683634,,,,,,,
18385,,,,0.12489171,0.42874643,-0.17529404,,,,
18386,,,,,,,-19.130367,9.805143,-84.72116,
18399,-0.31021482,1.3746452,11.522052,,,,,,,
18405,,,,-0.034897815,0.07934001,-0.13747719,,,,
18406,,,,,,,-18.978527,10.268234,-83.48462,
18419,-0.20720926,1.5016056,12.6072035,,,,,,,
18425,,,,-0.24581999,-0.42133385,-0.12735718,,,,
18426,,,,,,,-17.28731,10.885866,-83.29494,
18439,1.2324734,0.22242004,13.951067,,,,,,,
18445,,,,-0.37791267,-0.6503655,-0.091670856,,,,
18446,,,,,,,-18.51505,9.959574,-84.8624,
18459,2.2529473,-1.1765393,14.260084,,,,,,,
18465,,,,-0.23410209,-0.4069528,-0.20086038,,,,
18466,,,,,,,-18.97894,9.694811,-82.39464,
18479,2.1858737,-2.3119962,12.401193,,,,,,,
18485,,,,0.2015907,0.08999265,-0.32230037,,,,
18486,,,,,,,-20.825346,9.816523,-82.2872,
18500,1.4576483,-2.0221434,9.447568,,,,,,,
18506,,,,0.50945187,0.31742638,-0.3143109,-19.594282,9.6854725,-82.409836,
18520,1.3881794,-1.0376016,7.5551395,,,,,,,
18526,,,,0.39387074,0.19332321,-0.14386877,-21.438246,7.8931828,-82.12543,
18540,1.7451057,0.12899637,6.9945974,,,,,,,
18546,,,,0.043399055,0.029272621,-0.031483464,-19.750114,10.143896,-81.18089,
18560,1.4025522,1.3674588,7.0161567,,,,,,,
18566,,,,-0.26339686,0.16189793,-0.13055299,-20.052046,7.312977,-82.85805,
18580,1.0599989,1.2812215,7.785105,,,,,,,
18586,,,,-0.5419633,0.36642852,-0.39207512,-20.052046,7.312977,-82.85805,
18600,-0.10659915,0.8859676,9.1601095,,,,,,,
18606,,,,-0.7124054,0.2822727,-0.7031321,-18.820478,8.188311,-84.69472,
18620,-1.3211068,0.68474734,10.070392,,,,,,,
18626,,,,-0.546757,0.10330844,-0.7366879,-18.820478,8.188311,-84.69472,
18640,-1.907999,0.55299604,9.507455,,,,,,,
18646,,,,-0.15367469,-0.003750546,-0.55026674,-19.127895,7.74605,-84.38771,
18660,-1.7259426,0.5745554,8.23306,,,,,,,
18666,,,,0.13234857,-0.04689372,-0.23175302,-18.513796,7.9166927,-83.445816,
18680,-0.7030733,0.71109766,7.049693,,,,,,,
18686,,,,0.24047282,-0.03251266,0.09634815,-18.973335,7.5940228,-84.846405,
18700,0.27428192,0.9290862,6.3238635,,,,,,,
18706,,,,0.23994018,-0.02026213,0.20926608,-19.130175,8.789494,-83.62604,
18721,0.34375083,1.417764,6.000474,,,,,,,
18726,,,,,,,-21.282553,8.160221,-84.13658,
18727,,,,0.18454647,-0.023990551,0.13629553,,,,
18741,0.29344577,1.7627128,6.1346207,,,,,,,
18746,,,,,,,-21.592302,9.05159,-83.38078,
18747,,,,0.12702225,-0.060209513,0.0702492,,,,
18761,0.42519706,1.9878877,6.5083156,,,,,,,
18766,,,,,,,-20.358904,7.5869102,-83.95221,
18767,,,,0.023691682,-0.18537796,0.007931286,,,,
18781,0.33895987,2.0669384,7.0401115,,,,,,,
18786,,,,,,,-21.129961,8.323866,-83.2061,
18787,,,,-0.13023888,-0.2556854,-0.07302874,,,,
18801,0.044315994,2.1459892,8.475003,,,,,,,
18806,,,,,,,-21.89579,7.1097565,-84.75873,
18807,,,,-0.3619337,-0.2759254,-0.1342814,,,,
18821,-0.039525762,2.069334,10.015296,,,,,,,
18826,,,,,,,-22.821371,8.721882,-84.49089,
18827,,,,-0.46952534,-0.26154432,-0.14706457,,,,
18841,-0.15211326,1.9759103,11.078888,,,,,,,
18846,,,,,,,-21.439043,9.351059,-83.22568,
18847,,,,-0.46632954,-0.24716325,-0.15824983,,,,
18861,0.020361215,1.4968146,12.724582,,,,,,,
18866,,,,,,,-20.513775,8.466715,-84.121,
18867,,,,-0.42584953,-0.22159693,-0.23228563,,,,
18881,-0.52101696,0.5673689,14.578683,,,,,,,
18886,,,,,,,-22.667158,8.57449,-84.64011,
18887,,,,-0.20533997,-0.14809375,-0.34413826,,,,
18901,-1.7810386,0.7542163,14.300807,,,,,,,
18906,,,,,,,-21.591955,9.046959,-83.69025,
18907,,,,0.267637,-0.13158216,-0.17582668,,,,
18921,-1.8840443,1.844159,12.03708,,,,,,,
18926,,,,,,,-21.281948,7.7179966,-84.13144,
18927,,,,0.5781613,-0.0042831777,0.3935567,,,,
18942,-0.25990978,2.3088818,12.269441,,,,,,,
18946,,,,,,,-22.820024,7.1119633,-83.698395,
18948,,,,0.3326181,0.19172531,0.8729253,,,,
18962,1.8385293,1.5519106,14.813438,,,,,,,
18966,,,,,,,-21.742926,8.572283,-85.70044,
18968,,,,0.0034516742,0.15337582,0.7972915,,,,
18982,2.3607438,0.06431845,15.932128,,,,,,,
18986,,,,,,,-22.357206,7.535713,-85.39418,
18988,,,,0.05724748,-0.16780111,0.19435239,,,,
19002,1.3163152,-1.6580306,15.254207,,,,,,,
19006,,,,,,,-22.668514,9.316168,-84.33919,
19008,,,,0.2809528,-0.36434224,-0.36863935,,,,
19022,-0.51862144,-2.7048547,13.613305,,,,,,,
19026,,,,,,,-23.742949,7.530916,-84.345245,
19028,,,,0.5137129,-0.026653713,-0.48954675,,,,
19042,-1.9535131,-2.6234086,11.133984,,,,,,,
19046,,,,,,,-24.050676,7.816433,-84.66574,
19048,,,,0.7858877,0.50597805,-0.06716979,,,,
19062,-1.1845645,-1.7490586,8.187546,,,,,,,
19066,,,,,,,-22.97331,6.957588,-84.00995,
19068,,,,0.88389194,0.59492755,0.6167294,,,,
19082,0.49466592,-0.3141671,5.8926773,,,,,,,
19086,,,,,,,-22.510878,6.6628227,-84.45932,
19088,,,,0.58668345,0.13579898,0.96080947,,,,
19102,1.3402699,1.5638881,6.072338,,,,,,,
19106,,,,,,,-21.587303,7.3930283,-85.83768,
19108,,,,-0.10946626,-0.47406438,0.83031476,,,,
19122,1.9654899,1.7914585,7.703659,,,,,,,
19126,,,,,,,-22.514046,8.731182,-84.17381,
19128,,,,-0.7683317,-0.749435,0.4542767,,,,
19134,,,,,,,,,,44.0
19142,1.951117,0.838058,9.876358,,,,,,,
19146,,,,,,,-23.744514,7.5517635,-82.95265,
19148,,,,-0.9925697,-0.45275912,0.042552352,,,,
19162,1.0288576,0.22960648,10.293171,,,,,,,
19166,,,,,,,-24.359785,8.988722,-84.84178,
19168,,,,-0.7539507,0.08306843,-0.20512143,,,,
19183,-0.22876856,0.021199852,8.992427,,,,,,,
19184,,,,,,,,,,41.0
19186,,,,,,,-25.897926,7.804632,-83.62819,
19189,,,,-0.44449165,0.44632328,-0.25305825,,,,
19203,-1.4744173,0.124205425,8.601963,,,,,,,
19206,,,,,,,-25.282537,9.405359,-85.64337,
19209,,,,-0.3363674,0.48307487,-0.17689195,,,,
19223,-1.7139653,0.23439743,8.204314,,,,,,,
19226,,,,,,,-22.513891,9.742201,-85.578415,
19229,,,,-0.24315682,0.24072744,0.074510254,,,,
19243,-0.57850844,0.13378733,7.6533537,,,,,,,
19246,,,,,,,-23.901793,11.068714,-84.23541,
19249,,,,-0.17338206,-0.0415674,0.3631967,,,,
19263,0.6455811,-0.029105216,7.7348003,,,,,,,
19266,,,,,,,-23.436184,9.573833,-86.06369,
19269,,,,-0.08549783,-0.15182216,0.42924303,,,,
19283,1.495976,0.2367929,7.979139,,,,,,,
19286,,,,,,,-24.361279,10.455864,-85.32309,
19289,,,,0.075889595,-0.11666848,0.30513984,,,,
19303,1.376202,0.89794505,7.562326,,,,,,,
19306,,,,,,,-22.822277,10.760128,-86.21692,
19309,,,,0.19306858,-0.06873162,0.052672356,,,,
19323,-0.039525762,1.5974247,7.456925,,,,,,,
19326,,,,,,,-23.591494,10.025309,-85.298965,
19329,,,,0.22982019,0.1310053,-0.17316352,,,,
19343,-0.7294235,1.5830519,7.262891,,,,,,,
19346,,,,,,,-25.898102,10.556765,-86.910126,
19349,,,,0.2234286,0.31742638,-0.15931511,,,,
19363,-0.64797735,1.4345322,8.072563,,,,,,,
19366,,,,,,,-24.511765,9.251093,-86.860535,
19369,,,,-0.025843073,0.2993169,-0.02189609,,,,
19383,0.0107792765,1.1854024,10.451273,,,,,,,
19386,,,,,,,-22.66619,9.864113,-87.131256,
19389,,,,-0.26073366,0.015424198,0.07823867,,,,
19403,0.36770558,1.1590521,12.022707,,,,,,,
19406,,,,,,,-22.82127,10.023083,-86.20836,
19409,,,,-0.1068031,-0.22372745,0.05746604,,,,
19424,0.3916604,1.2524759,11.78795,,,,,,,
19426,,,,,,,-23.592207,11.047905,-85.92987,
19430,,,,0.23408124,-0.20668325,0.03030182,,,,
19444,0.770146,1.1566567,10.496787,,,,,,,
19446,,,,,,,-24.512514,9.550541,-86.55449,
19450,,,,0.3528581,-0.15288743,0.053204987,,,,
19464,0.8515923,1.338713,10.226098,,,,,,,
19466,,,,,,,-23.89847,10.0113735,-85.925476,
19470,,,,0.19732964,0.04099052,0.08303236,,,,
19484,0.049106926,1.9902831,11.371137,,,,,,,
19485,,,,,,,,,,38.0
19486,,,,,,,-24.05085,10.568565,-87.94768,
19490,,,,0.014104309,0.2668264,0.09581552,,,,
19504,-0.04910767,2.1915033,12.113735,,,,,,,
19506,,,,,,,-24.66765,9.999701,-85.94447,
19510,,,,0.08707486,0.2556411,0.16718818,,,,
19524,1.0983264,1.5063965,11.780764,,,,,,,
19526,,,,,,,-24.35693,10.397957,-89.19142,
19530,,,,0.18561174,-0.118799,0.16559027,,,,
19544,1.6804278,0.8691993,12.132899,,,,,,,
19546,,,,,,,-24.666168,10.414133,-87.80641,
19550,,,,0.003984306,-0.50282645,-0.035744514,,,,
19564,1.5366992,-0.24709377,13.256378,,,,,,,
19566,,,,,,,-24.665682,9.684036,-87.333664,
19570,,,,-0.23623261,-0.49164122,-0.28821194,,,,
19584,1.2564281,-1.545443,13.534254,,,,,,,
19586,,,,,,,-23.43525,10.140308,-87.617874,
19590,,,,-0.2143947,-0.14383268,-0.4330878,,,,
19604,0.6407901,-2.0149572,11.752018,,,,,,,
19606,,,,,,,-25.282034,10.411743,-87.35742,
19610,,,,0.08814012,0.26735902,-0.33242038,,,,
19624,0.8012872,-1.6053301,9.066686,,,,,,,
19626,,,,,,,-24.82059,9.8406925,-86.565506,
19630,,,,0.3059865,0.48946646,0.022312343,,,,
19635,,,,,,,,,,35.0
19645,1.6301228,-0.7381668,7.9264383,,,,,,,
19646,,,,,,,-26.049685,9.656076,-87.83205,
19651,,,,0.17176332,0.36376536,0.28117138,,,,
19665,2.0732863,0.29667988,8.137241,,,,,,,
19666,,,,,,,-23.742575,10.131006,-87.93494,
19671,,,,-0.057268348,0.05004526,0.21405976,,,,
19685,2.3296025,0.90513146,8.108495,,,,,,,
19686,,,,,,,-24.508917,9.792088,-90.116776,
19691,,,,-0.22877575,-0.10654847,-0.08208348,,,,
19705,1.1773773,0.8787811,7.9336247,,,,,,,
19706,,,,,,,-24.820837,11.146528,-87.973526,
19711,,,,-0.42957795,0.07827474,-0.5321573,,,,
19725,-1.4648355,0.90034044,8.879839,,,,,,,
19726,,,,,,,-24.355867,9.370724,-88.869965,
19731,,,,-0.6942959,0.43087694,-0.8123216,,,,
19745,-3.4027774,0.7566117,10.312335,,,,,,,
19746,,,,,,,-25.125597,9.511091,-88.58121,
19751,,,,-0.75448334,0.58427495,-0.6434773,,,,
19765,-3.3021674,0.3853126,10.915996,,,,,,,
19766,,,,,,,-23.282356,11.457743,-88.40315,
19771,,,,-0.43650216,0.41543064,-0.13641194,,,,
19785,-1.1031182,-0.17283392,10.336289,,,,,,,
19786,,,,,,,-23.741613,10.552387,-89.33267,
19791,,,,0.041268528,-0.035708454,0.37065354,,,,
19805,1.0264621,0.09545967,8.8894205,,,,,,,
19806,,,,,,,-24.35658,10.393324,-89.5009,
19811,,,,0.40452337,-0.38085383,0.5171273,,,,
19825,1.7451057,0.5601825,7.0544844,,,,,,,
19826,,,,,,,-23.587053,10.400364,-89.79135,
19831,,,,0.5169087,-0.29350224,0.33230406,,,,
19845,1.2612191,0.9123179,5.8830953,,,,,,,
19846,,,,,,,-23.740257,9.810709,-89.633575,
19851,,,,0.39706653,0.09159054,0.12617554,,,,
19865,0.46831566,1.1327019,5.9669375,,,,,,,
19866,,,,,,,-23.43299,10.110195,-89.629395,
19871,,,,0.13128331,0.4079738,0.059063938,,,,
19886,-0.085039854,1.1422838,7.2964277,,,,-22.66497,9.8478985,-88.21437,
19892,,,,-0.08656309,0.45431274,0.105402894,,,,
19906,0.13773966,1.1398883,8.949307,,,,-23.432182,9.520557,-89.62256,
19912,,,,-0.12704311,0.09958002,0.25187665,,,,
19926,1.0216713,1.2476848,9.948223,,,,-24.507004,9.766609,-91.81885,
19932,,,,0.0034516742,-0.38724542,0.37118617,,,,
19936,,,,,,,,,,33.0
19946,1.1869593,1.8872776,10.194957,,,,-24.969646,9.34054,-90.27777,
19952,,,,0.13820751,-0.61095077,0.31366193,,,,
19966,1.5678403,2.0214243,10.223702,,,,-24.969646,9.34054,-90.27777,
19972,,,,0.13874015,-0.4474328,0.2231145,,,,
19986,2.0780773,1.2860125,10.676448,,,,-25.281008,11.411179,-89.535675,
19992,,,,-0.011462016,-0.1321148,0.07344499,,,,
20006,1.1414452,0.5362277,12.001148,,,,-24.663383,10.377073,-90.282166,
20012,,,,-0.06472518,0.1730832,-0.11457402,,,,
20026,-0.28865552,0.47634077,12.609599,,,,-24.354357,9.640064,-90.575455,
20032,,,,0.13874015,0.20717163,-0.11936771,,,,
20046,-0.82045174,0.9410635,11.871792,,,,-23.893599,9.946518,-90.258026,
20052,,,,0.35924968,0.051110525,0.10327237,,,,
20066,-0.7437964,1.4824418,11.378323,,,,-24.661627,9.340576,-90.579636,
20072,,,,0.39014232,0.051110525,0.33443457,,,,
20086,-0.5976722,1.959142,11.493306,,,,-26.813976,8.566214,-90.93373,
20092,,,,0.29746437,0.17255057,0.45587462,,,,
20106,,,,,,,-24.355574,9.656279,-89.49234,
20107,0.0011973679,2.1124525,12.070617,,,,,,,
20113,,,,0.16377385,0.15018004,0.49688724,,,,
20126,,,,,,,-25.123564,9.773485,-90.7509,
20127,1.4193206,1.1949843,13.055158,,,,,,,
20133,,,,0.07162854,-0.030914765,0.43403673,,,,
20146,,,,,,,-26.19866,8.720644,-91.07498,
20147,2.051727,-0.01233685,13.280333,,,,,,,
20153,,,,-0.004537802,-0.2679359,0.091021836,,,,
20166,,,,,,,-26.813107,8.554632,-91.7074,
20167,0.88752437,-1.1933078,12.846752,,,,,,,
20173,,,,-0.026375704,-0.16513795,-0.27809194,,,,
20186,,,,,,,-25.122694,9.761904,-91.52457,
20187,-0.67672306,-1.9478835,11.675363,,,,,,,
20193,,,,0.13714226,0.26948953,-0.2690372,,,,
20206,,,,,,,-24.814026,8.161285,-90.41501,
20207,-1.1510278,-1.4663924,9.88594,,,,,,,
20213,,,,0.43062234,0.55977386,0.09421763,,,,
20226,,,,,,,-23.426983,7.71459,-92.07773,
20227,-0.49706215,-0.2566757,7.145512,,,,,,,
20233,,,,0.5217024,0.4804117,0.39302406,,,,
20246,,,,,,,-24.810701,7.103943,-92.10509,
20247,-0.26230526,0.9290862,6.2304397,,,,,,,
20253,,,,0.14832753,0.19385585,0.34881562,,,,
20266,,,,,,,-24.34957,7.2606697,-91.940674,
20267,-0.14013585,1.3650633,8.3743925,,,,,,,
20273,,,,-0.45248112,-0.30575275,0.08782605,,,,
20286,,,,,,,-24.813421,7.719057,-90.40987,
20287,0.33656436,0.6919338,10.674053,,,,,,,
20293,,,,-0.7337107,-0.7116181,-0.2099151,,,,
20306,,,,,,,-23.430214,9.204895,-91.011734,
20307,0.08983007,0.29188892,11.500493,,,,,,,
20313,,,,-0.49349374,-0.55129594,-0.3846183,,,,
20326,,,,,,,-25.584267,9.176844,-90.75546,
20328,-0.7509829,0.33261204,10.341081,,,,,,,
20334,,,,0.06736749,0.09744949,-0.24986249,,,,
20337,,,,,,,,,,30.0
20346,,,,,,,-27.273489,8.0984535,-92.17786,
20348,-0.5545536,0.5817418,7.337151,,,,,,,
20354,,,,0.4471339,0.6002539,0.035628136,,,,
20366,,,,,,,-24.350319,7.5601234,-91.63463,
20368,-0.25990978,0.8907585,5.8519545,,,,,,,
20374,,,,0.33155283,0.7472603,0.14641553,,,,
20386,,,,,,,-24.811516,6.8253403,-91.01854,
20388,-0.04192123,0.8763857,6.280745,,,,,,,
20394,,,,0.06949801,0.5145002,0.055335514,,,,
20406,,,,,,,-24.043215,8.7301655,-92.56912,
20408,0.06347981,0.8093122,6.386146,,,,,,,
20414,,,,-0.033832546,0.0724158,-0.08954033,,,,
20426,,,,,,,-24.96505,7.976795,-92.7381,
20428,0.08264366,0.8284761,6.177739,,,,,,,
20434,,,,-0.03116939,-0.15821375,-0.14333615,,,,
20446,,,,,,,-24.03708,4.740856,-93.14183,
20448,-0.22397761,1.1063516,6.3047,,,,,,,
20454,,,,-0.15473995,-0.21254219,-0.17156562,,,,
20466,,,,,,,-23.57886,6.528349,-92.377304,
20468,-0.52101696,1.4129729,7.4401565,,,,,,,
20474,,,,-0.44608954,-0.19869375,-0.20778458,,,,
20486,,,,,,,-21.886314,6.5493965,-92.64499,
20488,-0.8995026,1.6141931,8.817556,,,,,,,
20494,,,,-0.5888348,-0.059676882,-0.20512143,,,,
20506,,,,,,,-23.735954,8.161415,-91.47154,
20508,-1.0935364,1.8010404,9.627228,,,,,,,
20514,,,,-0.5094727,0.07348106,-0.07835506,,,,
20526,,,,,,,-23.582548,8.603659,-91.62761,
20528,-0.61444056,1.6309614,10.432109,,,,,,,
20534,,,,-0.37418425,0.093188435,0.06758604,,,,
20546,,,,,,,-23.73211,7.097122,-93.625824,
20548,-0.16409063,1.2908034,11.423837,,,,,,,
20554,,,,-0.30014843,-0.02612108,0.06545551,,,,
20566,,,,,,,-22.507921,9.3732605,-90.52644,
20569,-0.003593579,1.0416737,11.984379,,,,,,,
20575,,,,-0.105737835,-0.13584322,0.021779712,,,,
20586,,,,,,,-24.351189,7.571705,-90.86096,
20588,,,,,,,,,,33.0
20589,-0.20002282,1.4800463,11.351973,,,,,,,
20595,,,,0.11530435,-0.15022427,0.016986027,,,,
20606,,,,,,,-23.888546,7.9977703,-92.40202,
20609,-0.5497627,1.67408,11.490911,,,,,,,
20615,,,,0.2031886,0.119287394,0.08889131,,,,
20626,,,,,,,-23.273413,7.286278,-91.295135,
20629,-0.14492682,1.4632779,11.431024,,,,,,,
20635,,,,0.15898016,0.1714853,0.21192923,,,,
20646,,,,,,,-23.734388,8.140568,-92.864136,
20649,0.7509821,0.94825006,11.867001,,,,,,,
20655,,,,-0.022647282,0.107569486,0.26093137,,,,
20666,,,,,,,-23.884426,5.4825535,-92.99187,
20669,0.6695359,0.64162874,13.21326,,,,,,,
20675,,,,-0.12331468,0.21409586,0.12724079,,,,
20686,,,,,,,-25.57948,6.797453,-92.12065,
20689,-0.37489277,0.5649735,14.391835,,,,,,,
20695,,,,-0.09188941,0.14165793,-0.05332136,,,,
20706,,,,,,,-25.882996,5.0007095,-93.655045,
20709,-0.37728822,-0.32854,14.219361,,,,,,,
20715,,,,-0.018386228,-0.2759254,-0.10179085,,,,
20726,,,,,,,-22.655724,6.830229,-92.82213,
20729,0.56413484,-1.9790248,13.246796,,,,,,,
20735,,,,0.093466446,-0.5097507,-0.05758242,,,,
20738,,,,,,,,,,36.0
20746,,,,,,,-23.73406,6.399454,-90.9868,
20749,0.59288055,-2.4102108,11.634639,,,,,,,
20755,,,,0.3209002,-0.31747064,0.04628077,,,,
20766,,,,,,,-23.580488,5.971142,-90.20421,
20769,0.8947109,-1.7107311,9.735024,,,,,,,
20775,,,,0.5680413,-0.051154774,0.32218403,,,,
20786,,,,,,,-25.886703,5.3395405,-90.71854,
20789,2.2098286,-0.66630244,7.8952975,,,,,,,
20795,,,,0.51584345,-0.0868411,0.4723862,,,,
20806,,,,,,,-24.959465,4.13953,-93.00305,
20810,3.1320877,0.40926737,7.7252183,,,,,,,
20816,,,,0.16004542,-0.19656323,0.27691033,,,,
20826,,,,,,,-25.732536,3.6007576,-88.8374,
20830,3.3644493,1.2620577,8.494166,,,,,,,
20836,,,,-0.20747049,-0.23118429,-0.11031297,,,,
20846,,,,,,,-26.347029,4.593174,-90.876114,
20850,2.1307778,1.729176,9.296652,,,,,,,
20856,,,,-0.4604706,-0.08950426,-0.68662053,,,,
20866,,,,,,,-25.730679,3.865467,-90.852356,
20870,-0.6575592,1.4824418,10.408154,,,,,,,
20876,,,,-0.54036534,0.22634637,-1.1670543,,,,
20886,,,,,,,-24.656052,4.635069,-89.751175,
20890,-2.4326088,0.5745554,10.602188,,,,,,,
20896,,,,-0.44182846,0.37867904,-1.1137912,,,,
20906,,,,,,,-24.805876,2.6978855,-90.9706,
20910,-2.7871394,0.124205425,10.252448,,,,,,,
20916,,,,-0.20533997,0.3360685,-0.6413468,,,,
20926,,,,,,,-23.269842,4.9231014,-91.57721,
20930,-1.457649,0.07869133,9.4835,,,,,,,
20936,,,,0.13874015,0.13846214,-0.094334014,,,,
20946,,,,,,,-22.962765,3.4884243,-89.23149,
20950,0.2718864,0.34219396,7.773128,,,,,,,
20956,,,,0.40718654,-0.18857376,0.109131314,,,,
20966,,,,,,,-23.730589,2.735073,-89.55139,
20970,0.6144399,0.73984337,6.069943,,,,,,,
20976,,,,0.39440337,-0.306818,-0.035744514,,,,
20986,,,,,,,-23.88102,1.2401199,-90.77594,
20989,,,,,,,,,,38.0
20990,0.13773966,0.94345903,5.650734,,,,,,,
20996,,,,0.17922017,-0.07565583,-0.16730458,,,,
21006,,,,,,,-23.727247,0.6643982,-89.99162,
21010,-0.058689594,0.98657763,6.2232533,,,,,,,
21016,,,,0.03327905,0.24232534,-0.108182445,,,,
21026,,,,,,,-24.498552,2.7071877,-90.653534,
21031,0.020361215,1.3195492,7.126349,,,,,,,
21037,,,,-0.041289393,0.2891969,0.013257603,,,,
21046,,,,,,,-23.421856,1.712513,-89.22235,
21051,0.06587529,1.5662836,8.053399,,,,,,,
21057,,,,-0.053007293,0.08306843,0.06758604,,,,
21066,,,,,,,-24.344286,2.2696114,-90.48985,
21071,0.36770558,1.5662836,8.690597,,,,,,,
21077,,,,-0.022114651,-0.20242219,0.05693341,,,,
21086,,,,,,,-22.959806,0.699234,-88.42529,
21089,,,,,,,,,,41.0
21091,0.54976195,1.5902383,9.327794,,,,,,,
21097,,,,-0.0732473,-0.47619492,-0.024559248,,,,
21106,,,,,,,-22.344444,2.445053,-90.59691,
21111,0.24793166,1.6309614,10.753103,,,,,,,
21117,,,,-0.17391469,-0.45968336,-0.11830244,,,,
21126,,,,,,,-23.728777,1.40839,-89.535995,
21131,-0.21679117,1.1638432,12.398797,,,,,,,
21137,,,,-0.11479258,-0.15981165,-0.10338876,,,,
21146,,,,,,,-24.959942,0.23823929,-87.69589,
21151,-0.5042486,0.4715498,12.643136,,,,,,,
21157,,,,0.17762226,0.07614422,0.015920762,,,,
21166,,,,,,,-23.5742,0.24303436,-88.74483,
21171,-0.54257625,0.29907534,11.718481,,,,,,,
21177,,,,0.4668413,0.102775805,0.21565767,,,,
21186,,,,,,,-24.80497,0.65963745,-89.24455,
21191,-0.6791185,1.1590521,10.990256,,,,,,,
21197,,,,0.47110236,0.031935785,0.40261143,,,,
21206,,,,,,,-26.035439,-0.519783,-88.02339,
21211,-0.29344648,1.7555263,10.669262,,,,,,,
21217,,,,0.3161065,0.067089476,0.5437588,,,,
