Timestamp,acc_x,acc_y,acc_z,gyro_x,gyro_y,gyro_z,mag_x,mag_y,mag_z,light
3164,0.14971703,0.9658169,9.694302,0.004250622,-0.11879899,0.1978145,-3.2495365,26.515404,-67.572945,
3214,0.5270049,0.9578319,9.969782,-0.010396752,-0.052930206,0.08551798,-3.5565052,25.994802,-67.57455,
3264,0.1672839,0.93068314,9.323802,0.14380014,-0.10335268,-0.04133715,-2.4035804,26.819586,-67.78757,
3314,0.28985253,1.0680239,9.580517,-0.028151145,-0.13531058,0.023377607,-4.1722097,26.062641,-67.358505,
3364,0.33656433,1.1362951,9.887138,-0.06552414,0.012494722,0.073711306,-3.8917916,26.956781,-67.00076,
3414,0.29983366,1.0736134,9.823658,-0.16290696,0.043476135,0.006866023,-2.7874346,26.586845,-68.18133,
3464,0.13534418,0.73984337,9.725443,0.008777991,0.09025896,-0.005650824,-3.3788528,26.769562,-66.88265,
3514,-0.044316713,1.0009506,9.128171,-0.097215734,-0.0076565123,-0.048705224,-3.0967255,26.893208,-67.10923,
3564,-0.18205674,1.2333119,9.742211,-0.14302206,0.020750513,-0.05278873,-2.8143196,27.061361,-67.64582,705.0
3614,-0.5282033,1.0496587,9.691907,-0.12615538,0.16757934,-0.15292352,-2.482216,27.637276,-67.25732,
3664,-0.83722013,1.0284985,9.695499,-0.15660417,-0.06793267,-0.09992665,-3.224229,27.195595,-68.121864,
3714,-0.77413917,0.86999774,9.975371,-0.2793758,-0.02381301,0.0059783026,-3.3288298,28.065506,-67.36071,
3764,-0.21080248,1.2848148,9.967386,-0.026109386,-0.14010426,0.251344,-3.0716197,28.179113,-68.23263,772.0
3814,0.09062857,1.9407767,9.510648,0.062751345,-0.33753312,0.14801343,-2.4812584,27.624537,-68.10835,
3864,0.028745376,2.2046785,9.669149,0.033811685,-0.16194218,0.044682875,-4.0958996,27.133226,-68.142815,
3914,0.05948736,2.2082717,9.798106,0.01321659,0.021638235,-0.009112929,-3.0979137,27.19845,-66.416336,832.0
3964,-0.17966124,2.0118425,9.724245,0.06204117,0.026875779,-0.15878245,-3.9962838,28.62123,-67.33216,
4014,0.057890367,1.9064416,10.71318,0.05582713,-0.1766783,-0.1358793,-5.021014,27.967278,-67.32429,
4064,0.18085825,1.3171537,11.105238,0.19732964,0.051376846,-0.14999405,-3.6865559,27.537178,-67.82779,904.0
4114,0.3437508,1.408182,10.99824,0.23656684,0.13988249,-0.01692486,-4.1714554,26.197311,-68.211235,
4164,0.19403337,0.6631881,11.111227,-0.10334099,-0.031181082,-0.18568036,-4.198033,26.112932,-67.256546,
4214,0.8539877,-0.2846229,11.439807,-0.095884144,-0.17126323,0.0148555,-3.0207071,27.05105,-66.4901,985.0
4264,1.7570832,-0.23631409,9.255928,0.18081804,0.16935478,0.06687587,-3.7878006,26.408575,-67.610886,
4314,1.3051362,0.120212965,7.648563,0.2894749,0.39865273,-0.124427706,-3.0956278,26.589127,-67.72473,
4364,-0.24433917,1.0859901,7.3623033,-0.15846837,0.0028185796,-0.32940212,-2.6064491,26.2559,-69.12737,1053.0
4414,0.00598832,1.1135381,10.108719,-0.76087487,-0.159279,-0.13667825,-3.8648949,26.57861,-67.66636,
4464,0.69828165,1.2237301,9.145738,-0.1726719,-0.0051708943,-0.057937507,-4.300017,26.441435,-68.19147,
4514,0.059487343,1.2708412,8.082145,0.03461063,0.10730318,-0.21817091,-3.9429026,27.749767,-68.14616,
4564,-0.24913013,1.57347,8.687003,-0.06365993,0.021993319,-0.12629192,-3.635297,27.34527,-67.566345,
4614,0.9290461,2.218652,10.106324,-0.011728331,-0.26820222,0.063058674,-4.558667,27.673672,-67.6963,
4664,0.2623045,1.5674813,11.592718,0.07695486,-0.10974426,-0.2512828,-4.148604,27.63385,-67.47929,
4714,0.07785269,0.87319165,11.423839,0.4013276,-0.28178433,-0.11004665,-4.0967617,26.951738,-67.13477,
4764,1.1330609,0.40687189,12.253871,-0.019273946,-0.23775344,-0.049592953,-4.864121,26.336916,-68.04954,
4814,-0.8763463,-0.070626795,13.992589,-0.33343792,0.18959479,-0.25119406,-5.864842,26.042751,-67.01346,1125.0
4864,0.23595427,-1.3274546,11.057329,0.30421105,-0.12980671,0.098478675,-5.891851,27.31489,-67.36418,
4914,-0.16169517,-0.57766974,7.5072303,0.37762547,0.17334953,0.20607032,-5.7876444,26.40202,-67.71214,
4964,0.91507244,0.08468002,8.328879,-0.14781575,-0.034110546,0.26022118,-4.8639016,26.09278,-67.94352,
5014,-1.2763911,0.6575987,9.231974,-0.31026843,0.078807384,-0.2804888,-4.940933,26.840874,-68.7795,
5064,-0.6563615,0.3409962,8.457037,-0.04590553,0.0138263,0.09989903,-5.6341896,26.433554,-67.39916,
5114,0.38367546,0.8093123,7.114372,0.05698117,-0.24290222,0.23030505,-5.096795,27.01027,-67.160324,1207.0
5164,0.30063218,1.3075719,8.516924,0.04375414,0.121950544,0.23607522,-4.0951304,26.737051,-68.34457,
5214,0.6463796,1.4784492,8.84231,0.10225487,-0.10228743,0.12617554,-4.4025393,26.560017,-68.37595,
5264,0.23595427,1.3506904,11.845442,-0.18581013,-0.07210495,-0.095044196,-4.6596603,26.734665,-67.94588,
5314,0.7142515,0.5745554,12.464274,0.12063066,0.19785058,-0.0035202987,-4.634185,27.147308,-68.311134,
5364,1.8469136,0.2092449,11.913712,0.03327906,0.42785874,0.079836555,-4.352183,27.46557,-68.668915,
5414,0.5577468,-1.7626332,14.771918,-0.6466254,-0.33078644,-0.41790777,-3.5569115,27.230408,-68.749596,
5464,2.0421453,-1.3274544,9.596087,0.5231227,0.083068416,0.36941066,-3.8387897,26.403933,-67.87004,
5514,2.9556208,0.46356487,6.1513886,0.50918555,0.28253904,0.2710514,-4.1713724,27.13694,-69.460236,
5564,-1.1785758,1.0153234,9.013987,-0.49100816,-0.11045444,-0.70348716,-3.734785,26.096773,-68.79248,
5614,-1.3654232,0.49790007,9.775747,-0.33130738,-0.05887793,-0.1412056,-3.6336565,27.226925,-68.90623,
5664,0.4124212,0.2160321,8.579606,0.08742995,-0.0852432,0.060839366,-4.198054,26.836853,-68.14193,
5714,-0.76176256,0.8680015,6.577784,0.24500017,0.16562636,-0.10951402,-4.0162096,25.167782,-68.195465,
5764,0.16728385,1.3506905,8.132449,-0.05726834,-0.112229876,0.35218894,-3.7866142,26.248037,-68.48599,
5814,1.9750718,1.1949842,10.573442,-0.35447687,-0.5294581,0.28942716,-3.1712046,25.918827,-68.10577,
5864,0.6367976,0.6783595,12.879489,7.8340374E-5,0.008322448,-0.009468019,-4.0428085,26.72393,-69.27169,
5914,0.20361531,0.85362864,12.056244,0.3861476,-0.032246344,0.41353038,-5.4782143,25.370193,-68.00202,
5964,0.9074867,-0.8914775,12.2383,-0.16823329,-0.31427488,-0.012486264,-4.9144454,26.178694,-68.7196,
6014,-0.38207918,-2.7803125,11.96282,0.09399907,0.211699,0.09102185,-5.0143433,25.27338,-70.0013,
6064,0.543374,-0.32135355,7.536774,0.29125035,0.1771667,0.45765007,-3.3239205,25.805094,-68.98524,
6114,0.52221394,0.1816969,9.36133,-0.5222559,-0.14782743,0.08942394,-3.7074022,25.591516,-69.740326,
6164,-0.038727272,-0.35169634,9.604871,-0.14568521,0.07720949,0.045748133,-4.1956196,25.887823,-69.162636,
6214,0.38088074,0.09665741,7.387456,0.15285489,0.13792951,0.25240928,-4.167609,25.13302,-70.365524,
6264,0.8507938,0.40048394,7.3531203,-0.020694299,-0.0042831777,0.12262466,-3.3218784,25.102514,-69.95722,
6314,1.4109365,1.2728374,8.780427,-0.16246311,-0.10601583,0.082233414,-1.7843552,25.112873,-69.14528,
6364,1.2101156,1.0185174,12.152862,-0.26428458,-0.083822854,-0.22305334,-4.4502697,26.150183,-71.08078,
6414,0.34494853,0.88117665,11.74004,0.7810941,-0.04210003,-0.0756919,-4.169367,26.169518,-70.06805,
6464,0.35892215,1.3986,8.28576,0.3592497,0.72986096,-0.10764981,-4.908876,24.560776,-71.74442,
6514,-0.27068943,1.3087696,12.071814,-0.19708417,0.09931369,-0.21790457,-3.85703,24.447712,-72.129654,
6564,0.28306535,-1.4863547,13.451211,-0.47884637,-0.38298437,-0.50046575,-4.498274,25.044466,-72.6684,
6614,1.3103263,-2.1119738,11.8610115,0.022981504,0.19918215,0.08338746,-5.088485,24.801031,-71.932236,
6664,3.2207203,0.06272147,6.7806015,0.84687406,0.2939906,0.4505483,-4.548527,24.209915,-72.5568,
6714,-0.78092635,0.68953836,7.664134,-0.23605508,-0.23313726,-0.78622264,-3.5479403,24.288757,-73.203476,
6764,-2.1028311,0.28629947,11.157939,-0.6820454,-0.019729499,-0.50605834,-4.9584813,24.58597,-73.293594,
6814,0.6539653,0.47993398,7.5551395,0.35268056,-0.23597796,0.15298466,-4.5459785,23.886528,-74.46176,
6864,-0.17606805,1.2548712,6.4172873,0.17096436,0.2199548,-0.08288243,-6.445909,24.85745,-73.385315,
6914,-0.0047913194,1.29799,8.96368,-0.19468732,-0.10477302,0.07841622,-6.087365,25.6402,-73.97874,
6964,1.0368426,1.3179523,10.21412,-0.08949256,-0.3446349,0.25240928,-6.7532578,25.282654,-74.2233,
7014,-0.2503279,0.06791167,12.129306,-0.16557014,0.055371583,-0.007159949,-7.394931,25.402718,-73.77636,
7064,-0.122569,1.0041445,11.518859,0.09932539,0.062029473,0.54162836,-7.5766244,26.273779,-72.86237,
7114,1.0492193,-0.0027549267,12.505396,-0.21563752,-0.069619335,0.3473953,-7.0890255,26.950548,-74.0962,
7164,1.0919386,-2.126746,12.879489,-0.3938916,-0.11613585,-0.10578559,-8.141828,27.389948,-73.25047,
7214,0.5425755,-1.36698,7.7264156,0.1619984,0.5931521,0.19808084,-9.015932,28.566029,-72.6152,
7264,-0.11618105,-0.45709738,10.001721,-0.51826113,-0.067133725,0.025508132,-7.4765677,28.47952,-73.349724,
7314,0.37010103,-0.93220055,9.128969,-0.18705297,-0.3330945,-0.1435137,-8.94084,29.966423,-72.706924,
7364,-0.7749377,-0.61998993,7.3267703,0.12276119,0.28200638,-0.13161823,-8.660508,30.40342,-71.69904,
7414,0.22876783,-0.25188476,5.4758644,0.1911156,-0.0039280877,0.20198679,-10.5574465,30.538496,-72.289474,
7464,0.12656075,0.8468415,8.266597,-0.317459,0.26150006,0.24734926,-8.4529,29.456726,-72.766266,
7514,-0.13055396,0.8368603,10.125488,-0.25913578,-0.44050857,0.025508136,-9.865078,30.909416,-72.81822,
7564,0.8076752,0.6104875,10.796222,-0.10094415,-0.36807066,0.123778686,-10.355445,31.716772,-70.93101,
7614,0.1844515,0.6991203,12.298187,-0.0789287,0.32790148,0.0832099,-10.56061,31.666069,-70.832344,
7664,0.8172571,-0.2973988,12.828387,0.10811382,-0.2295864,0.018051289,-10.766068,31.957,-70.8924,
7714,0.3952536,-2.3575103,14.348717,-0.0615294,-0.15785867,-0.13729966,-11.483557,31.28933,-70.46402,
7764,1.6029739,-3.0921237,11.114021,0.2905402,-0.20854746,0.08489657,-11.793199,31.91392,-69.473,
7814,3.6159747,-0.5573082,7.076044,0.55046445,0.48254228,0.59400374,-11.870129,31.671703,-69.16257,
7864,1.8800511,0.65919566,8.340058,-0.2290421,-0.12758742,-0.31697407,-11.482434,31.78094,-72.09472,
7914,-1.0528132,0.20684943,10.123093,-0.43170848,0.003173668,-0.6303391,-11.791948,31.873138,-70.55583,
7964,0.6515698,0.19247657,9.072675,0.11237487,-0.025854766,-0.025091883,-12.612412,31.740164,-70.419945,1285.0
8014,0.63360375,0.75661176,6.6312833,0.32320827,0.2840481,-0.2431158,-12.022716,31.942183,-70.63976,
8064,0.009581551,0.95543647,7.9120655,-0.14914732,0.13926108,-0.23015511,-12.403901,30.299019,-71.687775,
8114,0.24234223,0.53383225,10.303552,-0.08638555,-0.34392467,-0.1852365,-12.9429035,30.732689,-71.731995,
8164,-0.35333344,-0.5680879,12.7916565,-0.0247778,0.3206222,-0.049592946,-13.430451,30.248215,-70.784134,
8214,-0.9977171,0.4156553,10.615762,0.5076764,0.19030498,0.39621985,-12.942587,30.43903,-71.651215,
8264,0.3497395,0.009222463,11.640629,-0.29402316,-0.21414009,0.44468933,-12.350007,29.927275,-73.59089,1198.0
8314,0.059487343,-2.3111978,13.614102,-0.5424959,-0.13548812,-0.11421892,-12.174391,31.98344,-72.655945,
8364,-0.039525777,-1.684381,8.394754,0.51983815,0.4934612,0.42098725,-11.839339,30.735136,-72.65896,
8414,0.16009745,-0.29420483,8.72573,-0.45638704,-0.35724044,0.12582046,-10.709063,30.723688,-74.53947,
8464,0.5629371,-0.71181655,9.645194,-0.3265137,-0.41813806,-0.08607822,-11.42821,30.8741,-73.630516,
8514,-0.115382574,-0.47306725,8.126061,-0.12597783,0.36909166,-0.05775996,-10.787884,31.616241,-73.9327,
8564,-0.11019237,-0.5237715,9.221195,0.32329705,-0.11693479,0.022046028,-9.63398,31.535477,-73.90307,
8614,0.6623494,0.5689659,7.7779183,0.51726377,-0.1219948,-0.006272229,-10.862234,30.423061,-74.77194,
8664,0.13773966,1.0620353,9.714663,0.191737,0.021283146,-0.24640037,-10.451021,29.354849,-74.31085,
8714,-0.235955,0.34458944,10.820975,0.17495911,-0.00889932,-0.105341725,-9.3962,28.647377,-76.64947,
8764,-0.45633903,0.9362726,11.153148,0.22449386,0.11928739,0.13762711,-9.677272,28.147873,-76.908615,
8814,0.774937,0.82767767,11.676162,0.30039388,0.1344674,0.22737557,-9.007467,26.93369,-78.24499,
8864,0.6791178,-0.723794,13.146187,-0.19042628,0.093188435,-0.29052004,-8.8540945,26.628607,-77.43802,
8914,0.18485071,-2.9244404,13.087895,-0.12784204,0.4247517,-0.25385723,-7.1600113,25.857294,-78.10919,
8964,2.4900994,-0.62797487,6.6891737,0.9604134,0.14893723,0.63856727,-7.364241,25.456457,-78.41915,
9014,1.4536557,1.1566566,6.343027,-0.03835994,0.34858537,0.07158079,-5.0029097,24.904024,-79.90166,
9064,-1.8133776,0.49071363,9.905104,-0.7417002,0.11467125,-0.5468934,-4.081532,25.784096,-79.47622,
9114,0.600067,0.50828046,7.927237,-0.004005164,-0.30575275,0.20207557,-4.9280243,26.017708,-79.4484,
9164,0.4455586,1.2776284,7.273671,0.13998295,0.15479618,-0.024026623,-3.619157,25.490103,-79.87403,
9214,0.47949457,1.3107659,9.198438,0.037540108,-0.23651063,-0.08847506,-3.4652681,25.515848,-79.947876,
9264,0.38447395,1.3806338,11.19986,0.18099558,-0.5253746,-0.12451649,-3.9269397,25.1492,-79.361855,
9314,-0.89471155,0.9107208,11.8326645,0.4367476,-0.42852437,-0.22216561,-5.4626055,23.570337,-79.89765,
9364,-0.2826668,1.9136279,10.852515,0.45583355,-0.046716172,0.23767312,-4.9490457,23.013052,-79.878426,
9414,0.763758,0.29188892,13.277139,-0.29189265,-0.021061074,0.09821236,-4.6146107,23.196125,-81.110344,1114.0
9464,-0.34854248,-2.2089906,11.901735,-0.08780589,0.22581375,-0.11066806,-3.6173527,24.211786,-79.910774,
9514,-0.10819614,-0.52656627,7.6653314,0.30944863,0.4114359,0.43936303,-2.9981375,22.408731,-81.1384,
9564,0.13534418,0.14217149,9.379296,-0.51497656,-0.1115197,0.17002888,-2.1796334,23.580908,-80.79629,
9614,-0.46512246,-0.36686766,9.873164,-0.5110706,-0.023191601,-0.12096559,-1.5382576,22.885878,-80.25641,
9664,-0.29464424,-0.18241583,7.7611504,0.01232887,0.19012742,0.14623801,-1.5136299,24.419394,-81.25372,
9714,0.51382977,0.1577421,7.0185523,0.06736749,-0.059943195,0.19994502,-1.1567154,25.247942,-80.42904,
9764,-0.045514457,1.2848148,7.726416,-0.021937104,0.07934001,0.07610815,0.48603758,23.680544,-80.06049,
9814,0.22078289,1.6764755,9.989745,-0.20826945,0.033267356,0.11179447,-0.3848982,23.704872,-80.856255,
9864,0.93782943,1.3746452,11.276516,-0.031524483,-0.29563275,-0.070188046,1.6143831,23.791306,-80.34324,
9914,-0.46192846,0.9961596,11.499695,0.074025385,0.19758427,-0.22775826,0.76842785,24.234837,-81.06586,1192.0
9964,-0.08264439,0.5242503,13.751045,-0.026020616,0.17290564,0.08001412,1.4620413,23.527847,-81.37574,
10014,0.5817017,-1.6252924,14.408603,0.013305361,-0.36780435,-0.19420245,2.2307491,23.73877,-81.178505,
10064,0.20960401,-2.9503913,10.041646,0.633555,-0.29279205,-0.13854244,0.8485654,21.901642,-81.062645,
10114,2.3056479,0.08827325,6.22006,0.4785592,0.23966217,0.6002178,1.385746,21.612818,-79.54987,
10164,1.2636147,1.2548712,9.317014,-0.63126785,0.07791966,-0.089540325,2.9522965,20.227673,-80.06234,
10214,-0.48748022,0.6248604,9.396065,-0.37098846,-0.033577926,-0.45306146,2.6175003,21.038383,-79.74473,
10264,0.14253062,0.67277,8.015071,-0.082124494,0.17947479,0.036870945,2.590173,21.71176,-79.05677,
10314,0.7677505,1.1662385,7.2844505,0.076688536,0.16882214,-0.072496116,4.615466,21.962454,-79.08668,
10364,0.5074418,1.2428938,7.472096,-0.08141431,-0.08914918,-0.14333613,4.077385,21.346642,-78.65443,
10414,0.6575585,1.200973,10.818979,-0.34409055,-0.23411378,-0.14067298,4.231517,20.862629,-78.30967,
10464,-0.05310015,0.29987383,13.08071,0.093643986,-0.19443272,-0.25785196,3.5149097,19.966124,-78.39449,
10514,-1.1019205,1.0476625,12.221531,0.40026233,0.23406954,0.302743,5.002743,19.68924,-78.6638,
10564,1.0607973,0.7629997,11.593915,0.23585665,-7.322977E-4,0.2582682,4.2858768,18.796206,-78.51653,
10614,0.30781865,-2.189827,13.760626,-0.3997506,-0.49244016,-0.66851103,5.0811844,18.512293,-78.57085,
10664,-1.1047152,-1.9151454,8.661052,0.4029255,0.2987843,0.14108923,4.5943203,18.694109,-79.07516,
10714,0.43956995,0.7590072,7.53358,-0.28470212,0.20344321,0.6665305,5.5443783,17.411413,-78.70134,
10764,0.62402177,-0.24869074,9.545782,-0.6516854,-0.35919347,-0.19482386,6.387831,18.255463,-77.323044,
10814,-1.1977396,-0.824404,8.787613,-0.19229048,0.71317184,-0.08314875,6.001506,19.93711,-77.86801,
10864,-0.27587962,-0.29101086,8.074161,0.14033803,0.027142098,0.35059106,6.592385,19.086172,-77.84346,1107.0
10914,1.0276599,0.9266907,6.449626,0.32995492,-0.21254219,0.3754472,7.464198,18.857193,-77.586975,
10964,0.42599556,1.6445359,9.323801,-0.11337221,-0.014225637,0.07859376,7.4141593,18.260988,-77.96822,
11014,0.544971,1.4812441,10.406957,-0.14089154,-0.23464641,0.0050018122,7.9250917,18.438187,-76.487305,
11064,0.5577469,0.8069168,12.754925,0.06381661,-0.013515461,-0.08048558,7.260452,18.49816,-78.387505,
11114,0.2491294,0.9722048,10.854911,0.18135068,0.11635792,-0.04266873,8.156478,17.854366,-76.32003,
11164,1.1470346,-0.7437563,14.086013,-0.33423686,-0.044230554,-0.07462664,9.412667,18.454191,-76.889,
11214,0.63839465,-3.4965606,13.1749325,0.06115343,-0.13726358,-0.4494218,8.389581,17.8266,-78.40323,1030.0
11264,1.1781758,-1.2436129,8.807975,0.8346236,0.23966217,0.43643355,8.180557,19.226328,-76.61906,
11314,1.9223711,0.7853575,6.0160446,0.6363958,0.012938584,0.37473705,10.158992,17.198214,-77.810265,
11364,-0.56253856,0.82288665,7.730009,-0.24901578,0.13233687,-0.28315198,8.798556,17.12589,-76.37301,
11414,-0.16528836,0.06431846,8.973263,-0.29943827,0.15657161,1.1934837E-4,10.159165,17.195896,-77.965,
11464,0.5944775,1.1430823,7.584684,0.21224332,-0.07645478,0.13363238,9.976039,18.761429,-76.6206,938.0
11514,0.83721936,1.8333793,8.376788,0.05671485,0.037972286,0.1167657,10.310812,18.240519,-77.276886,
11564,1.322703,1.9184189,9.691108,0.03967064,-0.2729959,0.03536182,11.157219,17.694468,-76.8368,843.0
11614,0.5904851,0.94226134,11.3328085,-0.022469738,-0.10779128,-0.23672424,10.694699,17.821499,-76.10175,784.0
11664,-0.7054687,1.1087471,12.176816,0.16723593,-0.21041167,-0.10978034,9.464999,18.392706,-77.763985,725.0
11714,0.57251906,2.0837069,11.548402,0.2821956,-0.04334284,0.47753498,10.85083,18.08275,-78.49973,675.0
11764,0.99691796,-0.14249118,12.827588,-0.29215893,-0.1321148,-0.12575927,11.566846,18.721746,-77.56074,608.0
11814,-1.3414683,-1.8077481,10.944741,-0.08620801,0.5267507,-0.41142747,9.616326,19.417393,-76.76611,543.0
11864,-0.8755478,-0.02990369,7.644571,0.29133913,0.58427495,0.4116662,12.489842,18.253656,-76.91331,500.0
11914,0.9282476,0.8093123,9.142144,-0.39495692,-0.58041316,0.28614262,11.462654,19.73096,-77.34287,
11964,0.20720851,0.15055567,8.991628,-0.24555367,0.026343137,-0.25811827,12.745654,19.181871,-77.53675,444.0
12014,-0.9629828,0.09905289,7.5802917,0.08636469,0.59563774,-0.21808212,12.538275,21.210968,-78.0297,383.0
12064,-0.28146908,0.76220113,7.329166,0.19786228,-0.15155587,0.0316334,13.204099,21.931246,-78.17625,340.0
12114,-0.059887335,1.8920686,8.371998,-0.04288729,-0.077786356,0.16701062,14.3085575,20.571003,-78.2104,305.0
12164,0.26949096,1.2349089,11.990768,-0.3179916,-0.15661587,0.022578662,13.359352,21.480545,-78.8894,270.0
12214,0.5114343,0.97340256,12.469463,0.3572967,-0.2514243,0.017341115,13.306997,21.807648,-78.32701,229.0
12264,0.5050463,1.4608825,10.712379,0.6098529,0.08679685,0.13656184,13.308296,21.525045,-79.149124,200.0
12314,1.4732189,0.53742546,13.306683,-0.11248451,-0.15927902,-0.02118591,14.001081,21.35971,-79.38792,186.0
12364,1.2556297,-1.8392887,12.310165,-0.019451477,-0.20188956,-0.42749515,12.487859,21.99469,-79.79403,162.0
12414,2.2409697,-0.31296936,7.440156,0.52862656,0.22350568,0.1417994,12.616049,22.648008,-80.59802,136.0
12464,1.4704243,1.3946075,6.8468766,-0.075377814,0.21862322,-0.25625405,13.874087,21.26939,-80.3702,123.0
12514,-1.5917958,0.9362726,9.4439745,-0.6708601,0.18746425,-0.71413976,13.460907,23.256275,-80.19715,111.0
12564,-0.534192,0.36614874,9.402054,-0.13556522,-0.009076865,-0.07728979,13.562734,24.20827,-80.72151,92.0
12614,0.42918956,1.131105,7.30601,0.120985754,0.08821721,-0.058292598,13.228811,23.921906,-79.82371,78.0
12664,-0.022757411,1.3027809,8.377987,-0.06632308,0.11742318,-0.13374877,13.409663,24.436949,-81.70814,72.0
12714,-0.456339,1.1127396,10.119899,-0.02477781,-0.19407763,0.015565671,14.306513,24.939999,-81.820625,66.0
12764,-0.00598906,0.8500354,11.560379,0.12063067,-0.11746742,0.18822713,12.641124,24.706194,-82.658966,61.0
12814,0.3756905,1.4656734,11.763198,0.38783422,0.072770886,0.34881565,13.770332,24.540142,-83.37698,
12864,0.40004456,0.5697644,11.4118595,0.13314751,-0.019729499,-0.07462664,14.591568,24.421646,-83.89686,57.0
12914,-1.6620632,-1.9614578,12.719791,-0.14533013,0.17006494,-0.18097542,13.464783,23.855919,-84.46001,
12964,-0.48149157,0.36495095,8.909782,0.619174,0.070285276,0.8931653,13.463605,24.739988,-84.49607,
13014,1.9311546,0.6408303,9.371711,-0.28203896,-0.32918856,0.088713765,14.157654,23.858318,-84.984474,52.0
13064,-1.3558412,-0.50580543,11.270527,-0.37871158,0.14858213,-0.4967373,13.875325,24.195677,-85.15017,
13114,-0.6415894,0.38930503,8.5828,0.12045312,0.34388044,0.3268002,15.156342,24.975586,-85.20472,
13164,0.33776212,0.94825,7.849783,0.056714848,0.08732948,0.25693664,13.82175,25.335073,-84.49404,
13214,-0.21519421,1.3594738,7.0568795,0.007890274,0.174326,0.113925,14.4637165,25.04226,-84.99057,
13264,-0.3066216,1.4596847,10.182979,-0.3784453,0.06975263,-0.04453294,14.132027,25.015585,-86.44299,
13314,-0.84680206,1.3275342,10.357849,0.11068821,-0.27024397,-0.016392237,14.848198,24.68768,-84.43523,59.0
13364,0.54377323,1.1027584,10.203341,0.30305701,-0.28364855,0.20367345,14.0286,25.942213,-86.817406,
13414,0.9178672,1.797048,9.735824,0.14486541,-0.15688217,0.012724972,13.312946,23.826946,-86.24324,
13464,0.57251906,2.3112772,12.88987,-0.32624736,-0.1010446,-0.12806736,12.644374,25.579565,-86.69287,
13514,0.8611741,-0.37325564,11.59711,0.14619699,-0.013337919,-0.21124667,13.004396,25.715433,-87.82042,64.0
13564,0.24074523,-1.3262568,10.187771,0.02866291,0.19616391,-0.3320653,12.387672,25.965675,-86.91007,
13614,0.68790126,-0.28462294,7.916857,0.21011281,0.31502956,0.030834451,12.619497,25.06247,-86.73909,
13664,0.17007864,1.026103,7.9264383,-0.20942348,-0.017421426,-0.12220842,12.644252,25.918884,-87.006325,
13714,-0.37569126,0.6719715,10.617359,-0.67405593,-0.28498012,-0.2432046,11.847853,26.603224,-86.46659,
13764,-0.26230526,1.1147358,10.178188,-0.16645785,-0.11720111,-0.008225213,11.87363,26.794754,-86.829285,69.0
13814,1.2308763,1.74834,8.169181,0.13740857,0.011962092,0.19541766,10.152298,28.286646,-85.599686,
13864,0.6683382,1.8597295,8.197127,-0.061174307,0.010985598,-0.13765474,11.41288,26.439936,-87.09458,
13914,0.18804471,1.6325583,9.882747,-0.24768421,0.014358933,-0.20245826,10.384905,28.120735,-87.06224,
13964,0.059886597,1.4788485,10.862098,0.03381169,0.007257176,-0.08794243,9.7706375,27.011618,-86.67776,
14014,0.28146836,0.7813651,10.683635,0.18800858,-0.044763193,-0.12682456,9.693471,26.94138,-86.36934,
14064,-1.0025082,1.1027584,11.693329,0.1822384,0.2838706,-0.09912769,8.9506035,26.269842,-86.17368,
14114,0.46033072,0.7909469,10.3706255,0.60905397,0.23460215,0.368523,9.312626,24.57005,-86.81564,
14164,0.3305757,-0.85674304,12.803633,-0.104317464,-0.19052677,-0.22021265,9.878228,24.244553,-87.77798,
14214,-0.52740484,-0.7118166,10.131078,0.30598652,0.26176637,-0.06503927,9.696567,24.801632,-86.49925,63.0
14264,0.2790729,1.4381254,7.5623255,0.3535683,0.07259335,0.5055869,9.21246,22.775787,-86.745766,
14314,2.0772786,0.93946666,9.809284,-0.42265373,-0.7286624,0.029236548,8.777379,22.420973,-87.03622,58.0
14364,-0.63839537,-0.065037385,9.960199,-0.3521688,0.019330164,-0.88600236,7.8259177,23.939453,-86.43262,
14414,-0.9106815,0.1832939,9.194446,-0.1659252,0.3552433,-0.440012,8.696048,24.649471,-85.82593,53.0
14464,0.5988692,1.0548488,7.843795,0.22786719,-0.15270989,-0.12274104,7.003521,24.386988,-85.27172,
14514,0.2591106,1.3914136,7.9863257,-0.0072009563,0.03326736,-0.39047724,5.927223,23.880825,-85.18945,48.0
14564,0.06467756,1.1039561,10.181782,-0.14106907,-0.16389516,-0.504993,5.9792724,23.485426,-85.38993,
14614,0.07226324,1.578261,10.482414,0.08041696,-0.14756112,-0.3782267,4.3143806,22.448978,-85.67729,46.0
14664,0.86955833,1.4105774,10.707589,0.06718994,-0.010852304,-0.35159513,3.7755482,21.98791,-84.75677,
14714,0.78531736,1.3538843,11.822285,0.03967063,-0.0146694975,-0.5971384,3.0826426,23.384987,-85.950905,42.0
14764,1.0336486,-0.9573532,12.871904,-0.07555536,-0.10548321,-0.933229,2.4417686,21.733576,-84.013176,
14814,0.3892649,-1.7286973,11.241781,0.23088543,0.18773058,-0.80486476,1.6996756,21.09998,-84.56598,38.0
14864,3.0554326,-0.7062271,8.4007435,0.5011073,-0.037661433,-0.18860984,1.9817594,20.838257,-84.272194,
14914,2.7140768,1.2955945,6.6041346,-0.11958625,-0.12971795,-0.9816985,1.2384005,19.859688,-83.24759,
14964,0.8292344,0.2719266,10.68603,-0.8318925,-0.3597261,-1.4259135,-0.3276132,21.310043,-83.30334,35.0
15014,0.6839087,-0.21834798,10.83934,-0.36113477,-0.18457903,-1.2980819,-1.5336828,22.101347,-83.419876,
15064,1.565445,-0.057850946,9.259922,0.14530927,0.033178587,-1.2547611,-2.2255955,21.772614,-83.3559,
15114,0.9689707,0.11701898,8.377987,0.10465172,-0.08977057,-1.4408271,-3.3002806,20.231886,-83.44217,
15164,0.97376174,0.5458097,8.867862,0.14992541,-0.08027197,-1.3188545,-4.787647,18.81409,-81.4766,
15214,0.5832987,0.070307136,10.204538,-0.094818875,-0.20908007,-1.5974208,-5.6075315,18.673393,-81.85649,33.0
15264,-0.010780019,-0.2279299,11.11003,0.16892262,0.04578421,-1.4312397,-5.657184,17.565504,-81.94807,
15314,0.011977017,0.75421625,9.97098,0.47935814,0.059366316,-1.123645,-6.064454,15.0595,-81.51647,
15364,1.6836218,0.42443871,9.094634,0.15684964,-0.26420748,-1.2868966,-6.064097,15.006504,-81.773796,
15414,-0.24553695,-2.0173523,11.480131,-0.769397,-0.10388531,-2.117003,-6.9080353,13.204047,-81.51597,
15464,-1.4169259,-0.98889357,10.57983,-0.09828099,0.19119269,-1.0559119,-7.908113,12.877208,-81.02118,
15514,1.8648796,0.77338004,9.311026,0.21783596,-0.7904476,-0.60885626,-7.2919707,12.031677,-80.66074,
15564,2.5420015,0.18169689,10.242067,-0.10183186,-0.8927129,-1.5420271,-9.188817,11.683112,-80.72968,
15614,-1.1198866,-0.44112754,10.99864,-0.514799,-0.023724228,-1.9881063,-10.52203,11.180008,-80.189545,
15664,-0.70307326,0.29428437,10.337089,0.029195532,-0.11400532,-1.2638159,-10.418571,10.397698,-80.02315,
15714,0.20720853,0.93507487,7.949196,0.21996649,-0.2900401,-1.1300366,-10.749441,9.105828,-80.635475,
15764,-0.037928775,1.1207246,7.756359,-0.04528413,-0.15634954,-1.0887575,-9.645775,7.8043733,-80.025475,
15814,-0.4731074,1.4069842,8.538483,-0.27990842,-0.15057936,-0.96536446,-9.90283,8.243481,-79.985374,
15864,-0.687902,2.1324148,9.23996,-0.42931163,-0.2378422,-0.7476069,-9.645112,7.3613744,-80.07192,
15914,-0.07785342,2.7436612,10.768674,-0.37258634,-0.23580045,-0.47250256,-10.51775,7.360111,-79.29401,
15964,0.31420654,3.0051672,10.2013445,-0.0665894,-0.14170218,-0.41923934,-10.107011,6.973633,-79.25352,
16014,0.4084287,2.092091,12.082594,-0.20747052,-0.07032952,-0.4384141,-10.442401,8.322914,-79.07112,
16064,0.4515473,1.9072399,11.412659,0.15072437,-0.00668002,-0.30046248,-10.671697,7.7934422,-79.74135,
16114,0.600067,0.9015382,12.853938,-0.15189926,0.19509864,-0.20956004,-9.44021,7.8738556,-80.51125,
16164,-0.20321679,-1.564607,13.352199,-0.119319946,-0.26074535,-0.5089878,-8.518669,7.7386613,-78.96492,
16214,1.4792075,-0.13450624,8.1695795,0.7178884,-0.041744947,0.37029848,-10.749506,7.1528683,-78.136635,
16264,3.3165398,1.283617,7.5503488,0.2689686,-0.105749525,0.29448718,-8.87856,7.50452,-77.83623,30.0
16314,-0.99412394,0.95543647,8.192337,-0.28399193,0.14467616,-0.81462973,-7.901474,6.372569,-78.90795,
16364,-0.5545536,0.94345903,8.331275,-0.29402316,0.20983478,-0.051989786,-8.723649,7.6372776,-78.96885,
16414,1.4875919,1.5004078,7.304812,0.11672469,-0.1361983,0.19648291,-8.058435,8.220954,-78.39159,
16464,-0.03393631,1.7012287,7.5758996,-0.015989384,0.25058112,-0.11723719,-7.9558945,8.150352,-78.28505,
16514,0.5294004,1.9639329,9.549376,-0.10431748,-0.02363546,0.12954886,-6.3665557,8.540295,-78.43058,
16564,0.8795395,1.244491,11.52285,-0.07804099,-0.26367483,0.05879762,-7.5486617,9.933207,-77.77968,
16614,0.06587529,0.6488152,12.405984,0.17069805,0.055194035,0.14321975,-7.9089026,11.24749,-78.26815,32.0
16664,0.33017644,0.82049114,12.99607,0.25751704,0.18107267,0.5022136,-7.0372214,10.634303,-77.41396,
16714,1.0252645,-0.78128546,14.098389,0.12276119,-0.6022511,0.1757103,-8.293264,10.949155,-78.1195,
16764,0.429988,-1.3394319,9.6424,0.33581388,0.11449371,0.014855499,-7.8587933,11.312076,-77.28748,
16814,-0.4275933,0.35297364,7.861761,0.077132404,0.7247122,0.3589356,-8.139016,10.150002,-77.48735,
16864,1.7451057,0.7390449,9.24475,-0.30520844,-0.7425108,0.3666588,-7.655678,13.319743,-77.976326,
16914,0.3677056,0.19966298,8.186348,-0.07910625,-0.12004179,-0.314666,-8.987697,12.7766285,-78.46746,
16964,-0.40204152,0.19926375,6.994598,0.018099047,0.73767287,-0.08527928,-9.297142,12.819692,-76.92802,
17014,0.18325375,0.8284761,7.2281566,0.08352399,-0.010852297,0.053560074,-8.296749,13.3111725,-77.914795,36.0
17064,0.17846279,1.8968596,7.630597,0.06683486,-0.30388856,0.065988146,-8.888438,14.775928,-77.97226,
17114,0.90189725,1.6924454,10.501578,-0.14177924,-0.050267052,-0.015149427,-10.374181,13.939521,-78.20589,
17164,0.18684699,1.4045887,12.170029,0.15019172,0.023679988,-0.19766459,-10.32555,15.253994,-77.446075,
17214,-0.02834686,1.5598955,11.711295,0.25733948,0.2632755,0.030834451,-10.296366,13.784016,-78.8212,
17264,1.4265072,1.2824192,16.386072,-0.22717786,-0.27406117,0.04255235,-11.552918,14.805167,-79.94764,39.0
17314,1.8217611,-1.6580306,11.211438,0.81429476,-0.37339696,-0.43362042,-12.220465,14.783221,-79.11278,
17364,0.62162626,-0.5153873,6.0376034,0.09000433,0.9347466,0.08436394,-13.192424,13.121211,-79.19509,
17414,1.1047144,0.96741384,8.082943,-0.7223478,-0.0012649242,-0.16819228,-11.60162,12.792114,-79.77077,
17464,-1.3450615,1.2692442,9.82246,-0.81706756,0.32994324,-0.5494678,-13.244489,14.529945,-80.24446,
17514,-1.0176796,0.34379092,9.104215,-0.2999709,0.44206226,-0.06095575,-12.527195,14.838359,-80.04964,45.0
17564,-0.2419437,1.0225098,6.8472757,0.0726938,-0.054616883,0.107533425,-12.116936,15.760803,-81.21085,
17614,-0.14412832,1.0512556,8.282567,-0.2523891,0.13366845,0.19932361,-12.371692,14.746143,-81.437584,47.0
17664,0.19283563,1.4692667,10.777058,-0.13955995,-0.35928223,0.28862822,-13.504024,17.365923,-80.954414,
17714,0.75417614,0.84045345,11.517261,0.24544401,-0.2812517,0.20198679,-14.4496,15.597922,-81.576515,
17764,-0.1569042,1.0572443,11.271725,0.27908862,0.07214948,0.24947979,-15.243935,15.314067,-81.69615,
17814,0.90429276,0.63763636,12.665494,0.16270858,-0.046005994,0.38112858,-15.756035,13.970475,-80.66157,
17864,1.1642022,-2.2329454,12.941373,0.0026527261,-0.25222325,-0.35186148,-16.474829,15.153384,-81.3638,
17914,-0.010780017,-1.4152888,8.46063,0.30989248,0.15710425,0.039711654,-17.447504,14.224558,-81.71257,
17964,1.4887896,0.9374704,8.470212,-0.495358,-0.36833698,0.12138185,-16.67675,13.564011,-82.27901,
18014,-0.047510684,-0.41717276,10.621352,-0.6282496,-0.22212957,-0.49460676,-17.831257,13.918112,-82.10547,
18064,-0.9785533,-0.27224624,7.8905067,0.16253103,0.3364236,-0.16020279,-18.215483,13.063198,-81.3829,
18114,0.065076776,0.49310914,6.875622,0.2503265,0.25750533,0.20686924,-18.061607,13.619793,-82.10775,
18164,0.2467339,1.3135605,8.702574,0.062396254,0.041700695,0.099366404,-17.647295,11.762558,-83.46882,
18214,-0.93783027,1.61579,11.451785,0.083879076,-0.0077452837,-0.1494614,-17.98259,12.145712,-82.16609,
18264,0.8456035,1.9483624,9.658369,0.55401534,-0.11737865,0.33549985,-17.853579,11.823253,-82.49447,
18314,1.1701908,1.9431721,10.458459,0.30119282,0.07854106,0.12484395,-18.749767,10.732492,-82.24619,
18364,-0.25990978,1.3878204,11.102842,0.1147717,0.31014708,-0.16801475,-18.721731,9.977307,-83.47486,
18414,1.0927372,0.18249547,13.606117,-0.31186634,-0.5358497,-0.10951402,-17.90118,10.42272,-84.07867,
18464,1.821761,-2.16707,10.92438,0.15898016,1.5540917E-4,-0.27915722,-19.799522,9.732268,-82.36389,
18514,1.5119457,0.1529512,7.188631,0.2186349,0.11129791,-0.08767612,-20.594181,9.018539,-81.65316,
18564,0.47669986,1.0835946,8.472608,-0.50592184,0.27019972,-0.40858674,-19.641523,7.604755,-83.47027,
18614,-1.6516829,0.6040996,9.270302,-0.35021585,0.049778946,-0.6434773,-18.974186,7.9671803,-84.541214,
18664,-0.2143957,0.82009196,6.686778,0.20425385,-0.033222836,0.024620404,-18.872435,8.10007,-83.972755,
18714,0.35413122,1.7227882,6.21447,0.15578437,-0.04210003,0.10327236,-21.437428,8.605906,-83.75868,
18764,0.19163793,2.106464,7.7575574,-0.1561603,-0.23899625,-0.06645962,-21.128218,7.673511,-83.97234,
18814,-0.057092603,1.847353,11.2729225,-0.46792746,-0.2543538,-0.1526572,-22.130207,9.03647,-83.858284,
18864,-1.1510278,0.6607926,14.439745,-0.12118415,-0.16709094,-0.25075018,-21.590963,8.696054,-84.15045,
18914,-0.10180823,1.9016504,13.039986,0.45538968,0.09372107,0.633241,-22.050987,7.41498,-83.91492,
18964,1.8385295,-0.7968561,15.593167,0.113883995,-0.12625585,0.20766819,-22.256216,8.474721,-85.1446,
19014,-1.2188997,-2.3591073,10.978278,0.6498003,0.23966217,-0.27835828,-23.896812,7.6736746,-84.50549,
19064,0.91746795,0.62486047,5.9825077,0.45370302,0.085554056,0.80261785,-22.357162,7.00448,-84.76898,
19114,1.6484882,0.953041,9.291062,-0.8804507,-0.60109705,0.24841453,-23.12928,8.141473,-83.56323,44.0
19164,-0.85159296,0.07270264,8.797195,-0.51160324,0.33748886,-0.21169055,-25.180084,8.732904,-84.704445,41.0
19214,-0.5489642,0.11302651,7.8641562,-0.20826945,0.09958002,0.21885347,-23.207842,10.4054575,-84.90691,
19264,1.436089,0.567369,7.7707324,0.061153453,-0.11240742,0.26235175,-23.539911,10.263275,-85.8679,
19314,-0.47230887,1.5383363,7.59746,0.2266244,0.22421584,-0.16623932,-24.744797,10.291037,-86.104546,
19364,0.18924242,1.1722273,11.23699,-0.13112661,0.030337885,0.037936207,-23.333075,9.712763,-86.733376,
19414,0.5809032,1.2045662,11.142368,0.29346967,-0.17978534,0.041753404,-24.05236,10.299223,-86.24218,
19464,0.28386387,1.8401664,11.236989,0.09950294,0.18781935,0.11534536,-24.205656,10.193213,-86.60587,38.0
19514,1.3893771,1.1877979,11.956831,0.09479802,-0.3108127,0.06492288,-24.511549,10.406045,-88.49892,
19564,1.1446391,-1.2691647,12.847549,-0.12082907,-0.12270496,-0.35124004,-24.460989,10.078696,-87.43632,
19614,1.2157049,-1.1717484,8.496562,0.23887491,0.4266159,0.15174186,-25.435137,9.748384,-87.19878,35.0
19664,1.8600887,0.6935308,8.059787,-0.2385407,0.007257176,-0.13339368,-24.357443,10.356541,-88.67508,
19714,-2.4338064,0.8284761,9.5960865,-0.7243896,0.5075759,-0.72789943,-24.740732,9.4409075,-88.725586,
19764,-1.1262746,0.10264611,10.047235,0.0030965805,-3.7721792E-4,0.2504563,-23.793518,10.801151,-89.07891,
19814,1.5031624,0.73625016,6.46879,0.45698762,-0.10095585,0.22923979,-23.663654,10.105536,-89.71246,
19864,0.17367183,1.1382914,7.4042244,-0.027440963,0.3206222,0.13878116,-23.176714,9.826217,-89.15543,
19914,1.1043153,1.5674813,10.07159,0.07082959,-0.4990981,0.34242404,-24.738325,9.553575,-91.04831,33.0
19964,1.5957876,1.2812215,10.967099,0.020850984,-0.13548814,0.060661834,-24.971346,10.376264,-90.03187,
20014,-0.5545536,0.70870215,12.240696,0.24899492,0.12914108,-0.00804767,-24.123978,9.793291,-90.41674,
20064,-0.44675708,1.8513454,11.647415,0.2837935,0.12461371,0.42906547,-25.27706,9.18769,-90.335236,
20114,1.7355238,0.59132373,13.167746,0.033545367,-0.14942533,0.26252928,-25.661112,9.247065,-90.91294,
20164,-0.31340882,-1.5358611,11.469352,0.18046296,0.22137515,-0.1509705,-25.583275,8.82594,-91.21566,
20214,-0.3796837,0.33620524,6.687976,0.33501497,0.33713377,0.37091982,-24.118843,7.4092665,-92.09141,
20264,0.095419526,0.782962,10.18298,-0.5598952,-0.52288896,-0.16890246,-24.197733,8.061541,-91.12076,
20314,-0.65276825,0.45717692,8.839116,0.2572507,0.34885168,-0.107117176,-26.428879,8.637649,-91.46666,30.0
20364,-0.0794504,0.8588188,6.172949,0.20052542,0.63088024,0.10087553,-24.401682,7.7052097,-91.74076,
20414,-0.070666976,0.96741384,6.2412195,-0.07324729,-0.099446714,-0.13481404,-24.501064,6.3588257,-92.939964,
20464,-0.83801866,1.6094021,8.628314,-0.5174622,-0.12918532,-0.206453,-23.067041,7.07972,-92.16461,
20514,-0.3892656,1.4608824,10.927973,-0.39460182,0.04684947,0.01822883,-23.65733,7.8503904,-92.62672,
20564,-0.25112638,1.3986,11.609088,0.004783258,-0.14303374,0.01938287,-23.58255,8.314245,-91.263145,33.0
20614,0.30302763,1.205764,11.649012,0.11317382,0.13278073,0.18725063,-23.5039,7.713423,-92.079636,
20664,-0.027548373,0.29268742,13.941485,-0.107602045,0.17787689,0.036959715,-25.115633,5.7602386,-92.92252,
20714,0.57850766,-2.1946177,12.440718,0.13199347,-0.3677156,-0.037697498,-23.194893,6.6148415,-91.904465,36.0
20764,2.0788758,-0.6559221,8.451846,0.54194236,-0.068997934,0.3972851,-24.808886,5.1500707,-91.30859,
20814,2.7476134,1.4956169,8.895409,-0.16929854,-0.17241727,-0.17334105,-26.039783,4.096966,-89.85676,
20864,-1.9591025,0.72706753,10.42093,-0.4910969,0.3025127,-1.1404228,-25.064201,3.7328072,-90.52471,
20914,-0.5928813,0.21044265,8.628314,0.11352891,0.09531895,-0.20884983,-23.116302,4.205763,-90.40435,
20964,0.23116332,0.88996,5.98131,0.28681177,-0.19123691,-0.10152455,-23.77962,1.5465304,-90.10632,38.0
21014,0.043118253,1.4429164,7.5898743,-0.020339211,0.20486356,-0.009112935,-23.960205,2.2098503,-89.93794,
21064,0.3884664,1.5958277,9.590498,-0.047680974,-0.33930856,0.016187081,-23.216179,1.8046328,-89.83735,41.0
21114,-0.3605199,0.81769645,12.520967,-0.03702833,-0.18111694,-0.06859014,-24.34436,0.82331467,-88.615944,
21164,-0.5050471,1.0712179,11.125999,0.46897185,0.0673558,0.30913454,-24.80487,0.1276296,-88.67092,
21214,-0.05150316,1.8980572,11.387905,0.10465171,0.010452968,0.48321638,-24.419003,-0.6554165,-88.83282,46.0
21264,0.2878563,-0.6112065,14.0620575,-0.3084042,-0.42559487,0.057466038,-24.035166,-0.78424835,-87.97056,
21314,-0.9426212,-1.3861438,9.641602,0.35516617,0.06726702,0.053915158,-25.884415,-0.33529282,-85.7003,
21364,0.03473407,1.0552481,7.490462,0.054850653,0.5629696,0.5533462,-25.061605,-1.1260096,-86.805626,
21414,0.6419879,0.49790007,10.445284,-0.48213097,-0.32315207,0.013612698,-25.576206,-0.4101181,-86.07869,49.0
21464,-0.32299072,0.25036728,7.3539186,0.09186855,0.23593377,-0.21843722,-24.960669,-0.8134206,-85.72338,
21514,-0.7222371,0.15295115,8.536088,-0.3518137,0.40974924,-0.072673656,-23.72935,-0.61016655,-86.49472,
21564,0.24713318,0.9634214,7.136729,0.080683276,-0.2610117,0.115789205,-24.190163,-0.77114105,-86.94282,54.0
21614,-0.13414717,1.7219896,10.157827,-0.401526,0.0606979,0.002427424,-24.114914,0.41007042,-86.90304,
21664,0.18684694,1.458487,10.566256,0.09799381,-0.13477795,-0.029619254,-23.883509,-0.2704773,-86.63147,
21714,-0.39245963,1.1534628,10.456862,0.025999753,0.029450176,-0.061310846,-23.269892,0.14777946,-85.56348,
21764,-0.73062134,1.1434815,12.558096,-0.07298098,-0.14489797,0.12218079,-24.344019,-1.882768,-85.54089,58.0
21814,1.1893548,0.49630308,13.745854,0.17318366,-0.40766296,0.21210682,-24.190765,-1.5591183,-85.41186,
21864,1.9056028,-1.8412848,14.656536,0.4351497,-0.7164118,-0.26078144,-24.14141,-2.0875015,-83.00565,54.0
21914,1.8505068,-0.8834925,6.870033,1.075817,0.078629844,0.11499027,-25.651545,-4.629402,-82.23997,50.0
21964,2.0122015,1.0141257,6.5622134,-0.5512843,0.19598638,-0.3172404,-23.575485,-5.191242,-80.78895,
22014,-1.5494758,0.8803782,9.947424,-0.9584813,0.36287764,-0.62092924,-23.11253,-5.1793594,-82.09306,
22064,-0.5976722,0.3805216,8.278574,-0.22824313,0.26602745,-0.027488725,-22.343786,-4.703592,-82.26002,57.0
22114,0.09621801,0.91551185,6.8836074,-0.25398698,0.43638083,-0.03361399,-22.420334,-4.3719997,-83.01379,
22164,0.20121981,0.94825,8.2222805,-0.24821684,0.042854737,0.011926025,-20.70185,-3.63089,-84.44988,64.0
22214,0.5234117,1.3363175,9.842821,-0.13290204,-0.118088834,-0.019410478,-18.034328,-4.906683,-83.67232,
22264,0.237152,0.7027135,11.659791,0.15045804,-0.128919,-0.0522561,-20.087393,-3.22383,-84.12978,
22314,-0.3325726,0.5873313,11.374331,0.0860096,-0.06606846,0.0904892,-19.727638,-4.5557346,-83.17683,69.0
22364,0.0479092,1.2141482,12.826389,0.17762224,-0.033577923,0.22338082,-19.317776,-4.9064484,-82.38874,
22414,-0.0594881,-0.87071675,12.822797,-0.27014348,-0.07263758,-0.20920491,-19.344193,-4.4622936,-82.239784,
22464,-1.2576265,-2.6461654,13.125824,0.13474542,-0.06633478,-0.07862136,-19.882574,-4.7122865,-81.99233,
22514,0.11378484,-0.04507506,6.446831,0.45423567,0.11005512,0.6405203,-18.959053,-4.6084995,-82.53804,
22564,1.2767897,0.79733485,9.152924,-0.5891012,-0.2343801,0.099277645,-19.267176,-5.2825484,-81.29978,
22614,-0.43477973,-0.34211436,8.435877,-0.22717789,-0.090036884,-0.4783615,-18.96025,-4.230711,-81.92338,
22664,-1.2037283,-0.4890371,8.247433,-0.23339193,0.43797874,-0.21896984,-17.678413,-3.9924595,-82.04902,
22714,-0.11298708,0.030781725,8.019064,0.05138854,-0.1020211,0.10886499,-17.038193,-3.610733,-81.80537,74.0
22764,0.32698244,1.5327468,6.7969704,0.089027844,-0.012982826,0.1354078,-16.39755,-4.247748,-80.67291,
22814,-0.11777806,1.2261256,10.486405,-0.4285127,0.27987587,0.004202865,-16.03962,-3.2880058,-80.93307,
22864,0.028745383,0.9961596,11.526843,-0.07093922,-0.3634545,-0.0902505,-15.475789,-3.107465,-80.921135,
22914,-0.20321679,0.66558355,11.815099,0.022892732,0.12994002,-0.04479926,-15.731838,-2.4887962,-82.01801,
22964,0.34614626,0.106239334,13.552219,-0.08354484,0.020928055,0.0965257,-14.552798,-2.658952,-81.41925,
23014,-0.06986848,-2.2034013,13.108657,0.016767472,-0.774735,-0.34200776,-14.811742,-1.7122669,-80.30171,
23064,0.9929255,-2.088019,8.549263,0.3762939,0.06815473,0.29644015,-15.785217,-2.0756378,-80.63125,69.0
23114,2.5627625,0.113825,8.400744,-0.18110523,-0.107347414,0.28916085,-16.120167,-2.4448376,-78.70075,
23164,-1.292361,0.22481552,9.620042,-0.48585936,0.28848675,-0.5926998,-15.375873,-1.3822759,-80.68069,
23214,-1.0711786,-0.52576774,9.073873,-0.14861469,0.1781432,-0.12336244,-13.275116,0.1432705,-80.98142,
23264,0.46472245,0.26553863,6.752654,0.19626439,0.100822836,0.2703412,-12.761009,-0.7107633,-81.087715,
23314,0.81965256,0.7518208,7.385061,-0.03250096,-0.04476318,0.19355345,-12.659832,0.008676529,-80.73241,
23364,0.45873377,0.85003537,10.052425,-0.077330805,-0.3666503,0.026395855,-13.842064,1.3067869,-79.84826,
23414,0.72143793,0.4308267,11.247371,-0.041289397,-0.1270548,0.08090184,-15.818369,2.920578,-80.07088,
23464,-0.07905115,-0.2267322,12.093373,0.11352891,0.1832032,0.06527797,-13.636147,1.3474541,-80.61745,74.0
23514,0.152911,0.6735685,11.219422,0.22928753,0.10384108,0.34908193,-14.8174,2.0536137,-79.88118,
23564,-0.18564993,-1.4244714,12.595226,-0.27440456,0.081115454,-0.1278898,-14.664024,2.8098419,-80.402,
23614,-1.2947565,-2.348727,10.759491,0.074025385,0.04445263,-0.17449507,-14.511856,3.678625,-79.96977,79.0
23664,0.5365869,-0.87111586,7.407818,0.045529585,0.196519,0.3450872,-13.9983015,3.6038227,-80.5494,
23714,-0.50424856,-0.8515528,11.065312,-0.65568006,0.09452,-0.1465319,-13.586742,3.1581717,-81.178856,
23764,-1.4768128,-1.146596,10.531521,-0.10982134,-0.3758826,-0.1649965,-13.642228,5.6737704,-80.512924,
23814,0.3094156,-0.41238174,7.3379493,0.3121118,0.15763688,0.38689882,-13.97592,5.3843174,-79.821434,
23864,0.51742303,0.19127882,6.73349,0.20176823,0.07845228,0.1595538,-14.667895,5.225243,-79.914185,
23914,0.20880552,0.84444594,8.134846,0.050056953,-0.12252742,0.029236557,-14.743443,5.7847595,-81.85709,73.0
23964,0.2335588,0.9686116,9.9721775,-0.09029151,0.085731596,-0.039650485,-15.48724,5.4391713,-81.22674,
24014,-0.3545312,0.2882957,11.809509,-0.0032062232,0.12195056,-0.17635933,-14.977681,6.7683716,-79.93975,
24064,-0.35572895,0.65919566,10.119899,0.48317537,0.016844548,0.15103167,-15.231658,5.4538727,-80.49833,
24114,-0.19523187,0.21882683,11.815498,-0.4671285,0.40131593,0.10673447,-15.821271,5.4195843,-80.56418,
24164,0.15530647,-1.3490139,15.696571,-0.27440456,-0.2594138,-0.05545189,-15.439345,7.125256,-80.2649,
24214,0.50424784,-2.6916797,10.360245,0.6548603,-0.45568857,0.013257604,-17.515934,6.51221,-79.767784,
24264,2.029369,-0.85794073,6.8197274,0.22662441,0.31600603,0.23927103,-17.387506,6.36636,-79.78869,68.0
24314,-0.0838421,0.49071363,8.557648,-0.45221478,0.0037062988,-0.6722394,-18.207552,5.841838,-79.54507,
24364,-1.791419,-0.32374907,9.04912,-0.16095401,0.0926558,-0.2653088,-18.0026,6.546619,-80.27037,
24414,0.8587787,0.08827323,7.3323603,0.10465171,0.04178947,0.226044,-18.131592,7.230651,-80.41047,
24464,0.3221915,0.7190826,7.1039906,0.04819274,0.07862983,0.018939009,-17.79701,6.49519,-80.625786,
24514,0.6647449,0.49430683,9.67394,-0.16885468,-0.19709587,0.012724971,-17.898666,6.77108,-81.79223,
24564,0.4132197,0.11861596,10.191762,-0.019273946,-0.09500811,0.10114184,-18.976175,6.7152534,-81.173546,
24614,-0.9318415,-0.5704834,15.327269,-0.32544845,0.17148532,0.08170079,-18.131165,7.7315273,-81.422226,
24664,-0.3197967,0.5474066,12.274232,0.75392985,-0.3059303,0.52706975,-19.078032,6.366653,-81.37839,
24714,0.87195385,-0.636359,11.792741,-0.18003997,0.3307422,-0.016037159,-20.746475,6.8247576,-80.316055,
24764,-1.3897772,-2.8190393,9.917081,0.16253103,0.34476817,-0.13481402,-20.105433,7.4367223,-81.106804,
24814,0.49586365,0.018804356,6.1681576,-0.21226418,-0.22426009,0.43962938,-19.43738,6.318246,-80.97406,
24864,0.94262046,0.23280044,11.288892,-0.66287065,-0.3316742,-0.21861474,-21.696627,8.301685,-80.84687,
24914,-0.44675714,-0.49742126,9.31342,0.15684962,-0.027718976,-0.3444046,-21.97874,8.274381,-80.7504,
24964,0.066673785,-0.16085652,7.606243,0.15605068,0.18320322,-0.1694351,-21.69639,7.6714044,-80.2721,63.0
25014,-0.2515256,-0.24469826,7.7611504,0.056359764,0.035841748,-0.37059236,-20.824043,7.0493374,-80.011055,
25064,-1.2851747,0.5370262,9.01718,0.026887469,0.08626422,-0.22536142,-20.874216,6.5514035,-80.39344,
25114,0.43717447,0.96980935,10.386595,0.11281874,-0.2040201,0.040776905,-21.4395,7.186248,-80.10532,
25164,-0.6479773,0.56816745,10.143054,0.14539804,0.017288417,-0.2693035,-22.823801,6.293907,-79.252426,60.0
25214,-1.274395,0.5997079,12.293396,-0.047503423,0.3032229,0.12333483,-20.82275,5.729604,-79.53144,
25264,0.5721197,0.6064951,12.19598,0.2452665,0.22448218,0.43696618,-21.336838,6.3180203,-79.11254,
25314,-0.30063292,-2.0460982,14.440943,-0.05673571,0.059987724,-0.23849966,-20.43894,6.179983,-79.37235,
25364,0.54257554,-2.3790696,9.430001,0.7653814,-0.11001058,0.12324606,-20.923784,5.466538,-80.58846,53.0
25414,2.9536247,0.3457872,6.7227106,0.26160052,-0.13531058,0.34579733,-22.12973,4.688319,-78.85545,
25464,-0.790109,0.5202579,9.38768,-0.495358,0.32834536,-0.5073899,-21.795809,4.8299766,-79.57102,49.0
25514,-1.0132878,0.123007685,9.137354,-0.19078137,-0.17206217,-0.25696424,-21.592701,5.6558065,-78.77592,
25564,-0.074659444,0.3166422,7.369889,0.1280875,0.013027351,-0.014705565,-22.667114,4.6662507,-79.79714,45.0
25614,0.041920513,0.8835721,7.625806,0.059733097,-0.029671954,0.06829622,-21.975235,5.333148,-80.25196,
25664,0.4411669,1.170231,8.645082,-0.053007282,-0.2767243,0.09421763,-22.515297,5.5638485,-79.08153,42.0
25714,0.37608978,0.86440825,11.9532385,-0.1447975,-0.16868883,-0.006627315,-22.362188,5.4311266,-78.25077,
25764,-0.23196252,0.3964915,11.244975,0.3094486,-0.120130576,0.04814498,-23.336916,5.5668397,-78.070244,38.0
25814,-0.37848598,1.4980123,12.584446,0.19182579,-0.022037566,0.4469974,-23.745491,4.4531155,-78.19648,
25864,0.40763023,-0.21435557,12.888272,0.23434754,0.095052645,0.2814377,-23.38861,5.6198306,-77.76261,
25914,-1.8073888,-2.9551823,12.668288,-0.009331484,0.08200317,-0.41391304,-22.669764,4.9186325,-77.71082,34.0
25964,-0.43477973,-0.052261513,7.369889,0.37948972,0.13606529,0.40287775,-23.080404,4.941995,-77.38598,
26014,1.068383,1.0764081,9.957804,-0.5448039,-0.4264826,0.26536998,-23.20652,5.2500324,-79.66257,30.0
26064,0.3134081,-0.17522939,10.028072,-0.21039999,-0.16087693,-0.19713195,-22.825197,5.1064205,-76.50454,27.0
26114,-0.17007932,-0.057850957,6.11905,0.40115008,0.48271978,-0.008580302,-23.364265,5.7339325,-76.73156,
26164,0.324587,0.30466482,6.746266,0.0726938,0.14352214,-0.005917143,-21.540344,4.8462205,-78.73945,
26214,-1.2324741,1.1159335,7.961173,0.0029190406,-0.12927409,-0.14369123,-22.668797,4.399228,-77.93693,25.0
26264,0.04910694,1.1997753,9.978167,-0.23836312,-0.16780111,0.15973133,-22.874344,4.8360248,-78.10186,
26314,0.27268496,1.3858242,11.77757,0.05351906,-0.0840004,0.04219726,-23.517885,5.5116434,-76.65543,23.0
26364,-0.06707376,1.2764306,10.898029,0.24606544,0.21090005,0.04228603,-21.695086,5.048924,-78.17817,
26414,0.04351749,0.81250626,12.194383,-0.26233158,0.3548881,-0.034324173,-21.746605,4.6412973,-77.4525,
26464,-0.5294011,-2.2018042,15.523699,-0.21759051,0.33340538,-0.28102145,-22.207413,4.745554,-78.23899,20.0
26514,0.9066882,-1.5222868,9.196841,0.68877125,0.31316534,0.3843244,-21.821821,3.8938208,-78.06477,
26564,3.0410595,0.18888335,5.6088133,-0.06685572,0.27907693,0.028437614,-20.206,3.6457665,-78.176476,
26614,-1.5997807,0.60250264,9.680728,-0.7260763,0.06513651,-0.58169204,-19.51249,3.1813688,-78.69552,18.0
26664,-0.36531088,0.048747838,10.222505,-0.21226418,-0.4357149,0.03456287,-20.358507,3.9634533,-79.78317,16.0
26714,-0.20880626,0.80292434,8.183553,0.12986295,-0.057191264,-0.05633961,-19.514349,4.2915716,-78.398895,
26764,0.30901635,0.89914274,7.6868906,0.09506434,-0.0018863343,0.20527133,-20.205969,3.790088,-78.3845,
26814,0.8084736,1.4361292,8.800789,0.012506415,-0.54969805,0.047701124,-20.283447,3.8446188,-77.94855,15.0
26864,0.4982592,1.0368826,11.481329,0.069231704,-0.13983797,-0.11723718,-21.950548,3.4888847,-77.08311,
26914,-0.29184952,0.12260842,11.145961,0.28326088,0.2643408,-0.021541005,-21.435192,1.8463526,-77.335,
26964,-1.256429,1.0608375,12.136492,0.112641186,-0.44796544,0.0904892,-20.767637,0.9033292,-76.97216,
27014,0.35572818,-0.61200494,13.251587,-0.25807053,-0.12341515,0.123512365,-20.512772,1.7959213,-76.69242,15.0
27064,-1.2899656,-1.6712058,12.486232,0.11876644,0.1714853,-0.07915401,-21.22936,1.7192904,-77.818504,
27114,0.61683536,-0.33173397,7.70845,0.3377669,-0.20544045,0.5283125,-22.204767,1.6228294,-76.7325,
27164,1.2767897,0.98777544,8.932539,-0.38244003,-0.28284958,-0.0059171394,-21.127497,1.7301121,-77.19703,13.0
27214,-0.516226,-0.12252887,10.303552,-0.3230516,-0.15022427,-0.5009983,-20.436523,1.6612606,-75.91514,
27264,-1.297152,-0.21954577,7.207795,0.28983,0.22865444,-0.19944,-21.487122,1.9266142,-76.84714,
27314,-0.30702087,0.33740303,7.0984015,0.23488018,0.19864953,0.2681219,-20.664867,0.39551544,-76.52522,
27364,0.54616874,1.6668937,7.203004,0.22094297,-0.040679682,0.30638263,-20.04902,-0.10837555,-76.32351,
27414,1.2771889,1.8162117,9.082656,-0.09428625,0.10543896,0.12537658,-21.356632,-0.41763115,-75.99133,
27464,-0.46472317,1.471662,11.110029,-0.24901576,0.23273796,-0.3918976,-20.356606,0.030504862,-76.590706,12.0
27514,-0.735013,1.1223215,12.518571,-0.062328346,0.27747902,-0.11324245,-19.817635,-0.54748726,-76.33846,
27564,0.17846279,0.9746003,12.638345,0.27314088,-0.098203905,0.005800756,-19.278587,-0.3063723,-77.17905,
27614,0.41960764,-0.54093915,13.879203,0.13234857,-0.24583167,-0.14839615,-20.353191,-1.9687805,-77.18653,
27664,0.48867723,-2.4712958,10.079974,0.5327101,-0.073347755,-0.16748212,-20.04505,-2.7663715,-76.60216,
27714,2.3327963,-0.38283753,6.3853474,0.44367182,0.29638743,0.39382303,-19.583923,-3.3331757,-75.52656,
27764,0.9270498,1.8800912,8.509737,-0.62647414,-0.006058616,-0.32176778,-20.353022,-3.0082295,-76.03954,
27814,-1.1294684,0.8045214,11.486918,-0.861276,-0.04795898,-0.5931436,-19.89052,-3.0627136,-76.85282,
27864,-0.052700892,0.80332357,7.6150265,0.112641186,0.1265667,-0.104809105,-18.762636,-2.6563632,-77.08742,
27914,-0.16568764,0.75421625,6.701551,0.08787382,0.36855906,-0.032282412,-17.89038,-3.5425072,-76.41061,11.0
27964,0.103005216,1.4189615,7.223366,-0.0018746456,0.011340697,0.08196709,-17.787245,-3.2350743,-77.31439,
28014,0.4539428,1.6301628,10.202142,-0.3353021,-0.43651384,0.076640785,-17.659206,-3.472248,-76.86996,
28064,0.5593438,0.23799065,13.4564,-0.14568521,-0.21325237,-0.0668147,-18.148327,-2.681493,-76.091675,
28114,-0.65436524,1.1135381,11.996357,0.5302245,0.13473372,0.107267104,-19.044567,-3.192648,-76.52075,
28164,0.7665528,1.1470747,11.204651,0.42174515,0.2382418,0.38095108,-18.145699,-4.646173,-76.017265,
28214,0.011577805,-1.5957483,13.127022,-0.034098864,-0.15981165,-0.2655751,-18.966862,-4.1426945,-76.04352,
28264,-0.75577384,-2.16707,8.343252,0.4991543,0.100645274,-0.08883015,-19.427477,-5.054086,-75.734886,
28314,0.3748921,0.47075132,8.731319,-0.029571481,0.21542741,0.48570198,-18.120468,-6.159994,-73.75503,
28364,1.248044,-0.17882259,11.8610115,-0.29215896,-0.5591079,-0.12220838,-17.786695,-5.220323,-75.33103,
28414,-0.401243,-0.5249692,9.338174,0.11583698,0.4985212,-0.4687741,-17.505722,-5.2743053,-74.291664,
28464,0.87075603,-0.333331,8.477398,0.1762019,0.12354842,-0.09539927,-17.373493,-6.5562234,-76.33706,
28514,2.2098286,0.9290862,5.6683006,0.44926447,-0.42532858,-0.15052667,-16.5793,-6.752922,-75.48961,
28564,1.941535,1.1806114,8.319298,-0.3351246,-0.31391978,-0.6954977,-16.96386,-7.9893417,-73.98881,
28614,0.60605574,0.6991203,9.854799,-0.40054953,-0.18644322,-1.1300366,-16.501595,-7.702965,-75.012375,
28664,0.97695565,0.15135418,11.386308,-0.19983609,-0.19088183,-1.1141462,-15.526211,-8.860501,-74.51043,
28714,1.0707786,0.11342576,11.14716,0.07695486,0.14751688,-1.1753101,-14.8831215,-9.891903,-75.10154,
28764,0.8228465,0.061124478,11.377525,0.31184545,0.05306351,-1.286719,-13.523763,-10.842426,-74.2829,
28814,1.6912074,-0.5201783,11.386707,0.34327072,-0.24689695,-1.4914272,-12.494217,-13.171263,-74.926765,
28864,2.118002,-2.5491488,10.815385,0.18685453,-0.2425471,-1.7815338,-10.6477,-14.476353,-73.653404,
28914,3.7561097,-1.3837484,8.550461,0.35871702,-0.14782743,-1.411266,-8.3382225,-15.817926,-73.63201,
28964,4.0743093,0.14257075,8.115682,-0.399573,-0.6111283,-2.1593473,-6.9526963,-17.112785,-72.86031,10.0
29014,0.18445152,-1.3705732,11.779566,-1.2319877,-0.21600428,-2.9857256,-4.1059265,-16.573738,-74.13704,
29064,-1.2596228,-1.5909572,12.104953,-0.38696742,-0.36327696,-2.3912199,0.124920525,-16.393644,-74.498184,
29114,0.70786357,-0.23751184,8.20671,0.07455801,-0.2293201,-1.8357735,1.2793617,-16.867498,-74.463974,
29164,0.2319618,0.32063463,7.5599303,-0.17533505,-0.030382134,-1.899068,3.7658806,-16.340708,-74.562996,
29214,0.18924244,0.7158886,7.9839306,-0.21332943,-0.21547167,-1.7630694,4.8192987,-17.125996,-75.53367,
29264,0.03473408,1.2492818,8.917369,-0.48603693,-0.13584322,-1.7426518,7.2029934,-16.259508,-75.81973,
29314,-0.08983081,1.5111876,11.410662,-0.45780742,-0.019995814,-1.4647956,8.816546,-13.9928665,-77.01817,
29364,0.5313966,2.1404,11.341592,-0.0034725394,-0.11294005,-1.222093,10.637515,-14.407082,-76.94228,
29414,0.43597668,2.1867123,12.596424,0.51664233,-0.22825482,-1.0850291,11.584299,-13.065229,-76.88268,
29464,-0.21758966,1.8673153,10.527928,0.92153126,-0.16744603,-0.7295861,12.431554,-14.273849,-76.383316,
29514,-0.5832994,1.1398883,8.649874,0.4247634,0.19998112,-0.65705943,12.35491,-15.098753,-75.60185,
29564,-1.3450617,-0.7269879,11.693728,-0.6532833,-0.09483057,-0.6293626,13.612526,-15.482816,-76.23676,
29614,-1.4277056,-0.71780527,13.17613,-0.64831203,-0.44565734,-0.07356137,12.507761,-13.563681,-76.621796,
29664,1.3682171,0.4603709,8.411124,0.067367494,0.10677055,0.55654204,12.994481,-13.140559,-76.74355,
29714,0.47789758,0.7266683,8.882235,-0.411646,0.30996954,-0.11262103,12.891388,-12.604317,-76.932884,10.0
29764,0.23515578,0.47554228,7.901685,-0.2926916,0.31210008,-0.21683934,13.4033,-11.475277,-77.5265,
29814,-0.2970397,0.45478147,9.754189,-0.29837298,0.023591226,-0.26868212,13.659395,-10.985041,-77.86112,
29864,-0.44436166,0.8548264,7.710047,0.18055174,-0.03304529,-0.14067298,13.915718,-11.366134,-77.30866,
29914,-0.0622828,1.0009506,9.38768,-0.031346936,0.15089022,-0.02953048,13.889496,-11.189913,-77.00182,
29964,1.6724429,1.5702759,12.644733,0.35339072,-0.0021526506,-0.19287089,13.095726,-11.095351,-78.10602,
30014,-2.4757276,2.881401,8.908585,1.225664,0.22545867,-0.8046872,13.660597,-12.737736,-76.75745,
30064,-1.1134987,1.333922,12.924206,-0.01598937,0.39252752,0.053471304,15.148178,-13.976116,-75.59696,
30114,0.30901635,1.1470747,10.386595,0.5417648,0.05306351,0.48215112,14.045912,-14.261166,-75.49212,
30164,0.7094605,-0.40759084,11.556386,-0.121184155,-0.0016200095,0.38317037,15.454532,-14.339829,-73.93431,
30214,1.1067107,-0.5285625,11.102842,0.008777996,-0.76754445,0.3001686,13.815956,-15.288424,-74.94425,
30264,2.623448,1.4321367,8.180359,0.37150022,-0.271398,0.38982826,12.99503,-15.125809,-74.76021,9.0
30314,-3.0805857,0.44280404,9.570934,-0.34595478,0.6055802,-0.81480724,13.121677,-14.258959,-74.43176,
30364,-1.1638036,0.5202579,8.39755,0.013305362,-0.2932359,0.10859871,13.864215,-13.53481,-74.3959,
30414,1.0168803,1.0608375,7.185038,0.043221515,-0.26864603,0.10646816,12.043194,-13.457602,-74.00358,
30464,0.82524204,1.3235418,7.437761,0.20025912,0.36989063,0.100342885,12.47932,-13.743874,-73.86044,
30514,0.112587124,2.3184638,8.791206,0.14832753,0.06850983,0.012724966,13.276314,-15.28038,-73.87442,8.0
30564,-0.6839095,1.5535077,11.086075,-0.19255681,0.22394954,-0.0053845085,12.736081,-14.757953,-72.913734,
30614,-0.6994801,1.2033684,11.94126,0.12790997,-0.18484533,0.28028366,11.506319,-14.788982,-73.76937,
30664,-0.060286563,2.0972812,10.027272,0.557655,-0.12332637,0.52804625,11.865628,-15.753136,-72.87228,
30714,0.8204511,0.92429525,12.388018,-0.12011889,-0.027008796,0.23128153,11.42832,-15.499397,-71.90591,
30764,-1.083156,-0.7062271,11.2202215,-0.20667155,0.03859368,-0.15345615,10.634932,-15.723449,-72.95481,7.0
30814,0.08024809,0.42843118,8.115681,0.09950294,-0.10317514,0.55725217,10.890709,-15.228968,-73.00577,
30864,2.1547327,1.030894,10.160222,-0.5020158,-0.50868547,0.20367345,9.764652,-15.804345,-74.21364,
30914,-0.7637587,0.20964414,9.807687,-0.26197648,0.28351548,-0.34307304,8.584703,-15.573858,-74.0651,
30964,-0.566531,0.07509811,7.5419645,-0.055404134,0.3445906,0.09341869,10.326593,-14.657926,-73.69705,
31014,-0.3349681,0.7174856,6.310289,-0.040756762,0.041700702,0.05888639,9.738521,-15.339867,-74.34864,
31064,-1.0276606,2.0801136,7.599456,-0.26712525,-0.2884422,0.25187665,9.507352,-14.686591,-74.80045,7.0
31114,0.54257554,1.743549,9.540991,-0.11905363,-0.3996735,0.18263452,7.8149176,-15.143301,-74.08923,
31164,0.4443609,1.688453,9.654777,-0.19468734,0.24525481,-0.02402662,7.8652463,-14.550958,-73.96587,
31214,0.23515578,0.9538395,13.055957,-0.20942348,-0.019374399,-0.08581191,9.58179,-13.349865,-74.220825,
31264,1.1917502,0.3829171,12.791656,0.01330536,0.1800074,-0.063974,8.6851225,-13.903594,-74.210915,
31314,2.118002,-1.2931194,14.272061,-0.048391137,-0.35635278,-0.05438663,8.584936,-15.43224,-74.45364,
31364,2.2888794,-1.702347,9.646392,0.56484556,-0.20748219,0.004735496,7.556729,-14.061948,-73.82445,
31414,2.3783104,0.838058,7.736397,0.013926755,-0.07743127,-0.010355731,8.813541,-15.544878,-72.35733,
31464,0.10779619,1.2979898,9.02237,-0.4535464,0.079606324,-0.769711,8.070632,-14.454978,-74.32299,
31514,-1.6716452,0.78376055,9.127372,-0.109643795,0.4603493,-0.33313057,8.658164,-13.355764,-73.70205,
31564,1.0743718,1.131504,6.80775,0.44420445,-0.16913271,-0.06503928,9.044963,-14.633649,-74.09034,
31614,0.040323522,1.6461328,6.410101,0.005227109,0.5148552,-0.25305828,10.5055065,-14.285908,-73.645325,
31664,1.0659876,1.9795035,9.241556,-0.02664201,-0.47912437,-0.015238194,11.2494,-14.448146,-73.72813,
31714,1.8976178,1.1814098,10.369028,-0.10023397,-0.40038362,-0.33898953,9.968922,-15.765856,-73.48677,
31764,-1.577423,0.28110927,13.071926,-0.28709894,0.09958001,-0.41870677,9.966249,-14.017652,-73.24914,
31814,-0.52740484,1.1207246,13.765816,-0.09375362,0.21968849,0.24495241,9.815803,-14.981758,-75.12469,
31864,0.4503496,-0.548924,11.853826,0.09257872,0.13686424,0.021424627,11.301122,-14.356815,-74.24378,
31914,-0.8779433,-2.2992203,10.873675,-0.13157047,0.14298952,-0.1880772,10.736752,-14.5783825,-73.71357,
31964,0.600067,-0.11534241,7.420993,0.1939563,0.06407123,0.47274128,10.840716,-15.295096,-74.08959,
32014,0.13215017,0.4611694,9.359734,-0.59842217,-0.16487163,0.1338987,10.352564,-14.879036,-73.71965,
32064,-0.8815365,-0.26625758,9.91828,-0.33050844,0.20539618,0.044505328,10.583591,-14.179657,-74.83114,
32114,0.3237885,0.20645018,7.4848723,0.19972649,0.12940739,0.35121244,10.276007,-14.957382,-73.95279,
32164,0.7749369,0.75421625,7.6940775,0.07145099,0.24445586,0.23305696,10.02068,-14.4930725,-75.51216,
32214,0.013973246,1.6221781,7.881723,0.050056957,0.111564234,0.035894454,10.890364,-13.849424,-74.414635,
32264,-0.19882509,1.3327243,10.708786,-0.20356452,0.09354353,-0.039295394,10.531656,-13.7858,-74.73382,7.0
32314,-0.514629,0.6232634,11.768786,0.021294843,0.05643684,-0.13401508,11.044512,-14.140751,-74.33003,
32364,-1.2408582,1.3614702,11.048944,0.30900475,0.4237752,0.2080233,11.608731,-14.930202,-73.45566,
32414,1.5494751,0.2607477,12.029094,0.16776855,0.0977158,0.30540615,12.198124,-15.568378,-72.35026,
32464,-0.7665535,-2.7108436,13.516288,-0.22433718,0.12212811,-0.31076005,11.660977,-15.762424,-73.28996,
32514,2.6953123,-1.4655938,9.066687,0.40905076,-0.09855899,0.480642,11.123167,-15.971775,-73.61044,
32564,0.8144623,1.0823967,9.249941,-0.2543421,-0.0154684335,-0.23370598,11.55853,-15.427749,-73.81226,
32614,-1.2244891,0.34379092,9.634415,-0.2881642,-0.06287266,-0.59261096,12.427971,-13.5266285,-74.070595,
32664,-1.2755927,-0.109353736,8.774439,-0.07377993,-0.17117445,-0.3167965,12.327911,-14.646881,-74.93711,
32714,-0.33177415,0.339,8.067772,0.12409277,0.44073066,0.077439725,12.274654,-13.970032,-73.99189,
32764,-0.17007934,1.4800463,7.010168,0.30367842,0.024123853,0.09812359,12.378589,-14.831067,-74.1599,
32814,0.3102141,1.824995,8.265798,-0.026375696,-0.3470317,0.083032355,12.508463,-15.888639,-74.35077,
32864,0.6539653,0.8320693,11.7951355,-0.17320453,-0.45702013,-0.028642764,11.916626,-14.880256,-73.70652,
32914,-0.10500219,1.1430823,12.255069,0.18294859,-0.2913717,-0.0890077,12.045477,-15.4418335,-73.593636,
32964,0.39645132,1.196182,12.742548,0.049968183,-0.067311265,0.13966887,11.147903,-15.476933,-73.4092,
33014,-0.37648973,-2.0676575,14.36309,-0.26925582,-0.44876438,-0.3643783,11.123373,-15.6850605,-74.15543,
33064,-1.0072991,-1.3562002,8.356427,0.5941403,0.18657653,0.055513065,10.634701,-15.430945,-73.112976,
33114,0.3325719,0.5290413,7.151901,0.02528958,-0.039703175,0.40048093,10.7369,-15.376392,-72.85312,
33164,0.013174757,-0.76451707,11.302866,-0.6918103,-0.3050426,-0.16836983,10.634415,-15.137671,-73.21956,
33214,-1.1150956,-0.7273872,9.241556,0.06869907,0.22927584,-0.04133716,11.120741,-13.696199,-74.25591,
33264,0.5337921,0.074698865,7.1870346,0.18259351,0.2309625,0.30798054,10.94317,-15.050946,-74.29623,6.0
33314,0.43358126,0.9662161,6.0950956,0.051921166,0.0023747198,-0.036543466,11.891413,-15.151667,-73.75559,
33364,-0.53219587,1.6078051,10.147048,-0.33814284,0.7554273,0.07770604,12.1735735,-14.449581,-74.73688,
33414,-0.8000902,1.1362951,12.776085,0.28840968,-0.5156096,-0.05864768,11.736023,-14.264915,-73.460205,
33464,0.09621802,1.0360842,9.968984,0.29213807,0.27108744,0.12937133,12.172844,-14.874047,-73.54545,
33514,-0.31620353,1.26086,11.136379,0.1363433,0.634076,0.1557366,12.5826,-15.416292,-72.41984,
33564,-0.24952938,0.568966,11.461368,-0.049989045,-0.36274433,-0.06468418,13.042432,-14.494476,-72.032166,
33614,0.06467754,-2.5024366,13.5845585,-0.28337052,-0.34383592,-0.35479093,12.888592,-13.869616,-72.81705,
33664,0.1113894,-1.6220984,9.408441,0.3871241,0.16083266,0.33549985,12.4274645,-13.736935,-73.34594,
33714,1.8469137,1.1626453,7.9312296,-0.15820207,-0.30282328,0.15866607,12.044407,-15.282846,-72.82168,
33764,-0.44196618,1.186201,8.584396,-0.22735542,0.19456601,-0.32247794,11.862248,-13.778417,-72.27617,
33814,-0.47550285,0.5146684,7.586281,-0.11639047,-0.080449514,-0.07622453,13.963398,-12.668211,-72.41732,6.0
33864,0.12416527,0.65280765,7.1766534,-0.03294483,-0.12021934,-0.11013541,13.040408,-12.055415,-73.24699,
33914,-0.26230526,1.2321143,8.273783,-0.092155725,-0.09323268,-0.032815047,12.88656,-12.757099,-72.36569,
33964,0.7150499,1.4137713,10.206136,-0.040934306,-0.37943348,0.07166955,12.988652,-12.291065,-72.52331,
34014,-0.0071868002,1.1913911,11.551995,0.16404015,-0.046627395,-0.21550775,12.578529,-12.250473,-72.68875,
34064,-1.1310655,0.95623493,12.184002,0.18880753,0.107036866,0.18352222,12.834546,-12.096852,-72.529396,
34114,-0.26829398,1.6489275,12.082594,0.51557714,-0.0056147426,0.59489155,13.194658,-12.251553,-73.36985,
34164,1.5087519,-0.09617857,11.300071,0.27775702,-0.35315698,0.37171876,12.939265,-13.42661,-72.820915,
34214,-0.2191867,-1.5933527,10.1769905,-0.09100169,0.44135204,-0.24719931,12.194403,-12.40719,-72.92864,
34264,-1.3785982,-0.08819368,8.659455,-0.14195679,0.43460536,0.032166027,14.321071,-11.8738785,-72.23706,
34314,0.039525032,-0.31177166,10.900425,-0.6241661,-0.46021596,-0.00804767,12.731346,-11.438545,-72.77173,
34364,-0.74539346,-0.440329,8.888622,-0.07591045,0.26416323,-0.12469402,14.47388,-10.4105835,-73.127205,
34414,-0.26829398,-0.06503738,8.217489,-0.09029151,0.18125023,0.07699587,14.114965,-10.754194,-72.74524,
34464,0.43398046,0.727866,7.1870346,0.14193594,-0.21866745,0.16559029,13.857582,-9.973058,-72.838066,
34514,0.06347981,1.26086,8.509738,-0.06898624,-0.040502135,0.030479364,13.882345,-10.081614,-71.90761,
34564,-0.45713755,0.94745153,11.157939,-0.2998821,0.12967372,-0.019765563,13.497106,-8.9451,-72.75576,
34614,-0.72103935,0.6871429,12.760514,0.10713732,-0.32102153,0.04592568,13.572594,-8.249464,-72.32345,
34664,0.82683897,1.4409202,10.425721,0.5520624,-0.029583178,0.39941564,12.370862,-9.759213,-73.49658,
34714,0.31500506,0.4176515,12.532944,-0.08549782,0.08395615,-0.004496788,13.189659,-9.218086,-72.63128,
34764,1.1933472,-2.1650734,12.230315,-0.032767285,-0.1976285,-0.16251089,12.728551,-9.206315,-73.02979,
34814,1.7570832,-1.0843134,9.048719,0.30669668,0.27357304,0.07415517,12.958208,-9.212324,-72.01805,
34864,1.8201642,0.83246857,7.5383716,0.14886016,0.16669163,-0.12922138,13.49513,-7.9538817,-72.19982,5.0
34914,-1.6373099,0.4967023,9.752991,-0.49313867,0.10970003,-0.75195664,13.265308,-8.4764,-72.40584,
34964,-0.31101334,-0.01233686,9.710271,-0.14781573,-0.08044952,-0.12096559,14.673175,-6.856524,-72.2864,
35014,0.66234946,0.8835721,6.950281,0.33528128,0.018797532,-0.03823014,14.648533,-6.62899,-73.47618,
35064,-0.23116405,1.2860125,7.6246085,0.07216117,0.071084216,-0.1143077,15.441528,-6.447899,-72.014084,
35114,0.8647674,1.2321142,9.707477,0.06488187,-0.4005612,0.11428008,14.3402195,-6.9145813,-72.551956,
35164,0.3525342,0.93707114,10.633328,0.1078475,-0.19310112,-0.048793994,13.134915,-6.495275,-72.896324,
35214,0.06827076,1.1003629,11.517261,0.06488187,0.035841748,0.046990946,12.725088,-6.79632,-72.90302,
35264,-0.25591734,1.5439258,12.485034,0.099059075,0.085465275,0.09847868,13.187861,-7.67454,-72.93294,
35314,0.6803155,-0.32854003,12.801237,-0.00578061,0.14751689,-0.029175395,13.110416,-7.0173855,-73.277794,
35364,-1.1781765,-1.6428591,10.372222,0.09399907,0.16296321,-0.3521278,13.288188,-6.581946,-72.272446,
35414,-0.73661,0.65001297,8.251026,0.022271335,0.13721932,0.3450872,12.88003,-7.6047325,-72.88982,
35464,0.61084664,0.6979226,10.71238,-0.4370348,-0.72520024,0.054802876,12.468704,-6.848573,-72.857216,
35514,-0.6463803,-0.10256654,9.31342,0.039138004,0.09265581,-0.24382599,12.417328,-6.7998276,-72.83326,
35564,-0.45993224,-0.012336858,8.000698,0.09985803,0.36323273,0.10087553,12.621574,-6.640428,-72.23676,
35614,0.09382255,0.75661176,7.044104,0.2278672,-0.29758573,0.056045692,11.725931,-7.2560368,-73.077324,
35664,-0.023955151,1.6668937,7.841399,-0.11399363,0.18027373,0.08676078,11.39137,-6.472594,-72.93995,
35714,-0.23036556,1.7267805,9.608065,-0.07306976,0.37867904,0.038291294,12.265022,-7.546158,-73.2927,
35764,-1.2133102,1.6872551,11.239386,0.055649586,0.665235,0.18796083,13.494433,-6.738598,-73.09091,
35814,-0.47550282,1.4536961,11.356763,0.32551634,-0.16105445,0.083565,12.033323,-7.6094646,-72.36914,
35864,-1.4468694,1.2680464,13.058751,-0.02717465,-0.1709969,0.0854292,12.213918,-8.321149,-72.48538,
35914,0.74299717,-0.74615175,13.951068,0.18454647,-0.3604363,0.18600786,13.185959,-7.070236,-71.95981,
35964,0.89710635,-1.3681777,8.782822,0.54939926,-0.21307483,0.08729341,11.291379,-8.727477,-72.452034,
36014,2.5268302,0.25835225,6.786989,0.06576959,0.133846,0.06882886,11.649311,-9.287342,-70.81162,
36064,-0.74379647,1.4297411,9.344562,-0.68604016,-0.044496875,-0.64587414,10.624385,-9.215058,-71.534386,
36114,-0.8356231,0.8141032,10.087958,-0.12331468,0.011695775,-0.03929539,11.494175,-7.463276,-71.91995,
36164,0.5821009,1.2476848,7.889309,0.16883385,-0.022925291,-0.008846616,10.4697485,-8.338344,-71.90951,
36214,0.28306535,1.1047546,7.361904,0.10394153,0.07259334,-0.09255857,11.881237,-8.14163,-73.29536,
36264,-0.20002285,1.8273907,8.7421,-0.049278866,-0.0919011,0.05666709,11.495429,-8.275959,-72.03948,
36314,0.376489,1.4121743,11.320033,-0.05425009,-0.28569028,-0.102678575,9.883486,-9.719776,-73.32677,6.0
36364,-1.3654232,1.0548488,10.857307,0.2404728,0.26948953,0.03349761,9.650962,-9.241425,-72.33212,
36414,-0.75257975,1.6956393,11.870194,0.13820753,-0.042100023,0.3951546,9.111487,-8.608507,-72.198105,
36464,0.14492609,0.43921083,13.06474,0.16306366,-0.3920391,0.24157907,8.3185625,-9.465924,-72.87854,
36514,-1.0903424,-1.1877183,10.530324,0.28042018,0.019685254,0.0955492,7.8072033,-11.060602,-72.20215,
36564,-0.37489277,0.021199822,7.334756,0.20460892,0.29736397,0.60678697,8.269252,-11.615578,-71.977875,
36614,0.15131402,0.8540278,9.945827,-0.3848369,-0.49670124,0.388763,8.267664,-10.098911,-72.433975,
36664,-1.04922,0.40926737,10.082369,-0.21208663,-0.033045292,0.13238956,7.5505815,-10.313687,-72.939415,
36714,-0.7078643,0.13458583,9.166497,-0.081503086,0.20717165,0.3663925,8.423588,-11.499281,-72.56865,
36764,0.31141183,0.33620524,7.787501,0.053519066,-0.21999903,0.4622662,6.166836,-10.7792425,-73.12321,6.0
36814,-0.28705856,1.0384797,8.796795,-0.060464136,-0.2176022,0.3514788,5.9596195,-9.765411,-72.495255,
36864,-0.31141257,1.3075719,9.760178,-0.07804098,0.1059716,0.4217862,4.8327994,-10.595981,-72.694214,
36914,-1.8968201,1.3642648,10.757095,0.037273794,-0.1523548,0.29209033,4.652191,-10.728357,-71.51065,
36964,-1.274395,1.1842046,10.538708,0.22360615,-0.13424532,0.73905706,5.1426473,-12.308772,-72.51191,
37014,-1.1166927,1.5974246,11.536426,0.29693177,-0.26926747,1.0529548,2.2691374,-10.855619,-72.72918,
37064,0.52221394,1.6776732,11.153149,0.5758532,-0.32492748,1.30631,1.552105,-11.481105,-72.76557,
37114,-2.2018442,-1.0104529,12.715001,0.11317383,-0.23597799,0.8297821,-1.2685976,-12.14608,-71.71889,
37164,-0.52221465,-1.0795225,9.40924,0.7755902,0.3298545,2.0764954,-1.4741274,-12.240128,-71.23283,
37214,1.6421002,0.7917454,7.3882546,0.7533972,0.19066006,2.1427193,-3.4246817,-11.061613,-71.01126,
37264,-0.5090395,0.5206571,8.772042,0.49950942,0.6098413,1.451541,-4.755421,-13.020802,-70.89269,
37314,-1.9838558,0.52664584,9.242354,0.24792965,0.95445406,1.6380508,-5.194231,-12.457579,-68.94978,
37364,0.8000895,0.23918839,11.202255,0.017300105,-0.0144031895,2.2662897,-7.220436,-11.562447,-69.526436,
37414,1.9223713,0.7677906,8.703372,0.4705697,0.17734425,1.837255,-10.658604,-9.892883,-69.50231,
37464,1.0108916,0.4044764,10.020086,-0.22753297,0.9368771,1.3929514,-10.965294,-10.344796,-69.840034,
37514,1.1917502,0.4100659,8.666641,0.0031853616,0.5137012,1.2425716,-11.045587,-7.334116,-70.54754,7.0
37564,0.7402024,1.0524533,8.04741,-0.2664151,0.43797874,1.0895289,-11.071502,-6.341881,-71.53985,8.0
37614,0.9066882,1.2484833,9.834836,-0.5294464,0.42768118,0.9187316,-11.125229,-4.4044743,-71.74418,9.0
37664,0.774937,1.5171762,10.032064,-0.15846838,-0.016711248,0.8152235,-11.535023,-3.958187,-72.71393,
37714,2.3431768,1.858532,9.71666,0.035409577,0.05963264,1.0300515,-10.741783,-2.9361305,-72.52547,
37764,1.100722,2.2370176,12.41317,-0.01838622,0.019507715,0.70141786,-12.20357,-2.0612538,-73.371574,
37814,1.8421226,2.3112774,11.535227,0.399996,-0.018930547,0.8814474,-13.819987,-2.0223446,-72.45785,
37864,1.7530905,2.372761,10.495191,0.27669176,0.25972462,0.5435813,-12.255803,-1.904583,-72.70405,
37914,0.9797504,0.98777544,11.681351,-0.4687264,0.079606324,0.22577766,-11.590055,-1.5451069,-72.33053,
37964,0.055494826,-0.7365698,10.283588,-0.12313712,0.7863199,0.031722166,-11.436577,-0.5731748,-73.21497,
38014,-1.8133776,-0.03988485,6.812541,-0.37551582,0.52968013,0.23643032,-10.435059,-0.67556953,-74.47858,
38064,-0.16169518,0.6312484,10.499981,-0.623811,-0.25124675,0.44646478,-10.565813,1.5274416,-74.92004,
38114,-0.32937866,0.41525608,9.454754,-0.20374207,0.23114006,0.13496396,-12.59281,1.8783493,-74.09752,
38164,-0.8324292,0.28071,8.493369,0.054939408,0.17947477,0.37526965,-10.9253645,2.2536342,-75.2985,
38214,0.4539428,1.0871878,5.9789147,0.14060435,0.010364195,0.3972851,-10.592428,2.4084177,-75.13726,
38264,-0.50983804,1.3203477,8.544472,-0.4350818,0.08022773,0.09865623,-11.336739,2.7933128,-74.95387,10.0
38314,-0.74020326,1.1494702,11.778368,-0.2325042,0.11023265,0.21219556,-10.515808,3.0648193,-75.68463,16.0
38364,0.1201728,1.0704194,11.972402,0.1728286,-0.14330007,0.2383833,-10.978584,4.256637,-76.045265,25.0
38414,0.48867726,1.4393232,11.9795885,0.26337597,0.30996954,0.35547352,-10.824739,4.668909,-76.56209,32.0
38464,1.0320517,0.72147804,13.96544,0.22857738,-0.29652047,0.0427299,-9.951644,3.771572,-76.633156,43.0
38514,0.85159224,-1.4460307,13.035994,0.5307571,-0.46394438,-0.0067160875,-11.133665,3.9573069,-74.5496,51.0
38564,2.440593,-1.0990857,8.858279,0.68273467,0.22297303,0.34846056,-11.389058,3.0958462,-74.39121,
38614,2.7464156,0.7422389,5.284226,0.1416696,-0.05967688,-0.13907507,-11.285986,3.2835245,-75.08726,
38664,-0.8044819,1.2157451,8.77364,-0.78138125,0.11342844,-0.6754352,-11.387016,2.3932679,-75.3632,72.0
38714,-0.433582,0.5817418,8.764856,-0.40880528,0.35080466,-0.29797688,-9.593698,3.7421656,-75.66954,134.0
38764,0.08264365,0.96022743,7.054484,-0.06552414,0.34219378,-0.14706457,-8.67173,4.2525563,-75.31719,191.0
38814,0.41561514,1.2920012,6.727502,-0.07040659,-0.03304528,-0.19233827,-9.209364,4.1855984,-75.97465,240.0
38864,0.35013875,1.7531308,8.792005,-0.19788313,-0.23251587,-0.12149824,-9.389784,4.436664,-75.44036,289.0
38914,0.37848523,1.2967921,13.25518,-0.28292668,-0.38955346,-0.03805259,-10.595537,4.6207113,-75.08557,341.0
38964,0.54257554,1.0560466,12.169629,0.43381813,-0.28950748,0.082233414,-10.365417,5.066828,-75.05922,392.0
39014,-0.35453117,1.348295,12.501802,0.34344825,0.279432,0.09386254,-10.519356,4.8487844,-74.69941,430.0
39064,0.3525342,-0.055455446,11.732055,0.34034127,0.05217579,0.12031658,-10.8774,4.179995,-74.70057,471.0
39114,-0.16169518,-2.5323803,12.4155655,-0.21244173,-0.2530222,-0.2413404,-9.671944,4.3375845,-75.21408,
39164,-0.6144406,-0.19199781,8.1715765,0.23168439,0.24951585,0.2481482,-10.9297495,5.254812,-75.07543,517.0
39214,0.50664335,0.27152735,10.253646,-0.49917516,-0.2650952,0.23092647,-11.211851,6.0715666,-76.04629,
39264,-0.43078724,-0.3532933,9.068283,-0.20667155,-0.07246003,-0.1092477,-12.265668,6.5244775,-74.29795,
39314,0.015570253,-0.07461929,7.491659,0.011796239,0.28529093,0.16789836,-11.293278,7.4329824,-73.66523,476.0
39364,0.7549746,0.3733352,7.2285557,0.13368014,-0.08977057,0.17144923,-11.548295,7.7967033,-75.3782,
39414,-0.040723495,1.5219672,7.612631,0.035587132,0.15674917,0.05764358,-11.215912,7.355814,-73.97193,409.0
39464,0.48668098,1.9272022,8.621926,0.07642223,0.003972614,0.13682815,-11.190242,7.9588246,-74.75211,375.0
39514,1.3151174,1.5519106,9.381692,-0.11266205,0.024123853,-0.1408505,-12.447003,7.631954,-74.00577,332.0
39564,-0.8444066,0.51945937,13.596536,-0.383239,0.08493264,-0.5832899,-10.882237,7.4284,-74.37719,290.0
39614,0.39405584,0.6775609,13.21326,-0.06632309,-0.37250924,0.04645832,-11.524225,8.445129,-74.76605,246.0
39664,1.5303112,-1.846475,14.160272,-0.33050847,-0.40189278,-0.18354982,-12.012319,8.546821,-74.05713,199.0
39714,0.22397691,-2.4425497,10.971092,0.35179284,0.08040527,-0.032371182,-13.218756,8.378174,-72.640724,159.0
39764,3.5784452,0.18968184,6.190515,0.6146466,0.07800843,0.576782,-12.936919,8.650388,-72.791626,135.0
39814,-0.58449715,1.0871878,10.121895,-0.57658434,0.34831905,-0.44125485,-11.9105,8.17227,-72.91532,116.0
39864,-0.38926563,0.46356487,10.229292,-0.16832206,0.018619988,-0.10179086,-12.474608,8.694946,-73.55447,99.0
39914,0.91147923,0.8320693,7.3215804,0.34380338,0.3928826,0.111794464,-11.294807,8.176977,-73.209595,84.0
39964,0.51303124,1.2045662,6.2655735,0.32382968,0.36962432,-0.110845596,-11.909074,8.587476,-74.725685,76.0
40014,-0.16768387,1.2273233,8.310913,-0.07306975,-0.2670482,-0.14617683,-11.214767,7.2682123,-74.89949,67.0
40064,1.0072984,1.3950068,9.951817,-0.07750835,-0.2895075,0.11871868,-11.8068495,8.207522,-73.944916,57.0
40114,0.04591298,0.91790724,11.650609,-0.024777807,-0.29563275,-0.22429615,-13.139265,7.6214485,-74.02286,49.0
40164,-0.73661005,1.4548938,12.846752,0.04046958,-0.12439163,0.16132924,-12.732009,8.511497,-72.423805,42.0
40214,0.62801427,-0.826001,13.372159,-0.13094907,-0.15004672,-0.060423125,-12.681589,8.620198,-71.77896,36.0
40264,-1.5355021,-3.1013064,12.079,0.06390539,0.34991696,-0.21923615,-12.833275,8.1068125,-73.09228,31.0
40314,-0.741401,-0.1488791,7.958378,0.20851488,0.36056957,0.66768456,-14.295453,7.99794,-72.35357,28.0
40364,1.6852188,0.1325896,10.0129,-0.5313107,-0.5262623,0.10673448,-12.525762,7.727656,-72.46118,24.0
40414,-0.6104482,-0.498619,9.033948,-0.09650555,0.02501156,-0.11421892,-13.679821,7.858713,-72.414024,22.0
40464,0.30302763,-0.4375343,7.713241,0.23274964,0.36855906,0.5490852,-14.4767685,9.466992,-72.529854,20.0
40514,1.0743717,0.39090204,7.119162,0.3164616,-0.14081444,0.20944364,-14.2188225,8.147676,-72.27601,18.0
40564,-0.23116405,1.5842495,8.119274,0.09080328,0.0047715753,0.028437609,-15.040189,8.195557,-71.54897,
40614,0.6136414,1.7587203,10.734737,-0.28132877,0.404778,0.17340223,-14.370869,7.397872,-72.96755,16.0
40664,-0.10540143,1.4872327,11.416651,0.28494757,-0.08710742,-0.22509512,-14.2194395,8.49356,-72.15107,15.0
40714,-0.40443698,1.626969,9.738219,0.21029036,-0.03908178,-0.049948033,-14.294675,7.553397,-72.50317,
40764,-0.31141257,0.5038887,12.537735,-0.692698,0.9091803,-0.03760873,-13.756745,8.050616,-72.65031,14.0
40814,-3.9962927E-4,-2.185036,15.8890085,-0.19699542,0.43478298,0.06279235,-12.60294,9.104869,-73.94931,
40864,0.5078411,-1.9862112,8.40793,1.2079985,-0.62826127,0.1623945,-13.654073,8.050629,-72.75092,13.0
40914,1.4033508,1.0233084,6.292722,0.16998787,-0.48649248,0.16931872,-13.294355,6.91218,-72.00656,
40964,-0.09342402,1.2824192,9.473917,-0.60081905,-0.10441794,-0.59554046,-14.832568,6.862722,-72.14743,
41014,-1.4512612,0.40128243,8.798392,-0.23090631,0.039658945,-0.5433426,-13.987094,7.125104,-71.87149,
41064,-0.11857656,0.6583971,6.800564,0.12950785,-0.25248957,-0.07906523,-15.651909,6.4494596,-72.67891,
41114,0.22078289,1.1366943,7.654951,-0.0013420116,-0.17925271,0.023910236,-14.757181,7.7767725,-71.8982,
41164,0.29823673,1.3818316,8.998415,-0.013947629,-0.09234495,0.14215447,-15.448237,6.134096,-70.96778,
41214,0.81805557,1.0935758,10.388191,-0.012527279,-0.33877593,0.19914606,-15.293698,5.9340963,-71.34853,
41264,-0.66833884,0.7194818,13.9869995,-0.18474488,0.057324562,0.10202956,-16.423494,6.614536,-70.73966,14.0
41314,1.217302,1.6277676,11.343987,0.52676237,0.08360106,0.7032821,-16.601288,6.2758255,-71.849304,15.0
41364,0.5198184,-0.8220086,12.755723,-0.17746557,0.20805933,-0.112976134,-16.781523,6.0179067,-70.84483,
41414,-0.8396156,-1.9007725,12.623174,-0.08123677,-0.17872007,-0.23308456,-15.678352,6.725112,-72.29585,19.0
41464,0.7366092,0.7218773,7.108382,0.35055003,-0.2524896,0.6724782,-16.216242,5.72084,-71.54957,22.0
41514,1.6900097,0.29029194,9.966588,-0.5150653,0.03672947,0.31206402,-17.295801,7.1636715,-70.94828,24.0
41564,-0.5844971,-0.49382803,9.702686,0.0050495663,-0.3368229,-0.37893692,-16.782518,6.079397,-70.020164,31.0
41614,0.5034494,0.01401339,6.856458,0.37895706,0.3714885,0.17810716,-17.60382,5.7887278,-68.92808,36.0
41664,2.2745066,0.70151573,7.610235,0.18365876,0.1002902,0.16914117,-17.294334,6.444631,-71.37841,
41714,-0.09621876,1.516777,7.3499274,0.16856751,-0.029316865,-0.3798246,-16.369568,4.3850145,-70.35139,40.0
41764,0.04431598,1.9028482,10.674052,-0.27795544,0.41170225,-0.022073636,-17.396986,5.7207,-70.3924,45.0
41814,0.12895621,1.4113759,11.164327,0.16670331,0.11236318,-0.21790457,-16.67617,5.162142,-72.30256,49.0
41864,-0.9773556,1.899255,10.96151,0.10962295,0.08857229,-0.15274595,-16.112188,4.8340816,-71.794655,53.0
41914,1.2564281,1.1502687,13.301892,-0.15340838,-0.12865269,0.21086401,-15.4467325,4.908004,-70.798775,57.0
41964,0.06108439,-2.8162446,13.143791,-0.021049386,-0.4417514,-0.5499117,-16.57323,3.9042962,-71.07311,62.0
42014,1.3570381,-0.88828355,8.676224,0.44260657,0.017022096,0.4185904,-17.368174,3.7732534,-70.833435,
42064,3.7848554,1.131504,8.485783,-0.16024381,-0.004638262,0.2618191,-17.291224,3.4604404,-70.466774,68.0
42114,-0.9833444,0.45717692,9.081059,-0.50308114,0.30863798,-0.7843584,-17.21479,3.4198065,-69.97433,
42164,-0.28985327,0.19966298,9.8799515,-0.26872316,-0.12696601,-0.022428721,-17.392519,3.2008495,-71.29171,
42214,1.7722545,1.0911803,6.809347,0.5081203,-0.037306346,0.25400716,-17.444702,3.5498142,-70.91013,
42264,0.6791178,1.448905,7.974348,0.013749222,0.12869723,-0.18878739,-16.828943,2.7334874,-70.24051,
42314,1.0711778,1.8768972,9.395665,0.08201486,-0.18777482,0.0060670767,-17.136852,2.6113806,-69.885635,
42364,0.935434,1.550713,11.139973,0.008955538,-0.20384257,-0.17032282,-16.674767,2.7795532,-70.59832,
42414,-0.42400008,0.7386457,11.592718,0.1347454,0.27215272,-0.27569512,-17.44329,2.517953,-70.898155,61.0
42464,-0.4747044,1.9391798,11.795934,0.3661739,0.111653,0.35591736,-16.109327,1.9497057,-70.781,
42514,2.6601787,0.17810367,11.2729225,0.08361274,-0.17738849,-0.05651714,-16.981756,2.3798618,-70.7303,56.0
42564,-1.2372651,-2.1427157,11.897344,-0.26375192,0.5203591,-0.48262253,-16.313673,0.6338107,-69.84226,
42614,0.09462106,0.0056292415,8.191139,0.2908065,0.064160004,0.6042125,-15.517833,1.2111874,-71.45418,48.0
42664,1.2364658,0.8843706,10.179786,-0.49225095,-0.47370926,-0.019588014,-15.748775,1.740851,-71.95615,
42714,-0.17367256,-0.39800888,9.540991,-0.036495708,0.17681162,-0.35851932,-16.287344,1.5657196,-71.632195,44.0
42764,-0.44276464,-0.04986603,8.191539,0.14442156,0.23131762,0.014677949,-15.029738,0.337602,-71.199776,41.0
42814,0.79769397,1.0273008,6.7119308,0.18507911,0.047648415,0.13309973,-16.132496,1.265131,-72.166534,
42864,0.5593439,1.858532,7.3754783,-0.12366978,0.19279058,-0.17848982,-15.285192,0.5624059,-72.343666,38.0
42914,-0.8647681,2.0322042,10.048832,-0.32438317,0.16216426,-0.28608143,-14.669239,-0.039373398,-72.11502,
42964,-0.6663427,1.915225,11.483724,0.07482433,-0.17348254,-0.06894524,-15.028392,0.56089145,-72.69838,33.0
43014,-0.5305989,1.508792,11.01421,0.23887491,-0.053285297,-0.018700302,-14.668292,-0.92035294,-71.87266,
43064,-0.049906176,1.9679254,12.393208,-0.026553243,0.03211333,0.25507244,-14.207568,-0.44462457,-71.73774,30.0
43114,1.0899425,-0.30817842,15.212286,0.028485373,-0.51241386,-0.16703825,-15.514213,-0.50139236,-72.594986,23.0
43164,0.19363415,-2.4301732,11.005427,0.6260982,0.03530912,-0.025624504,-14.873027,-1.0973727,-72.00467,17.0
43214,3.375229,0.11342579,6.205287,0.5595192,0.11236319,0.628181,-14.43719,-2.2963905,-70.458084,15.0
43264,1.2236899,1.7395564,7.361904,-0.3084042,-0.066068456,-0.34200776,-14.35916,-2.2135494,-71.56626,
43314,-1.6037732,0.69073606,9.550573,-0.6147562,0.24889445,-0.577431,-13.512421,-2.3780918,-71.90441,
43364,-0.13774039,1.058442,8.14283,-0.105737835,0.077742115,0.0819671,-13.385994,-1.1223959,-71.86422,
43414,0.41801062,1.678871,7.303614,0.10571697,0.0780972,0.101674475,-13.820628,-2.3032646,-71.526024,
43464,0.54976195,2.2042792,8.142032,-0.017320964,-0.1387727,0.0635913,-13.385024,-1.6659864,-72.06425,
43514,0.5102365,2.0801136,10.259634,-0.013237455,-0.4041121,0.0026049686,-12.666555,-1.1319618,-73.21329,
43564,0.27028945,1.2157451,11.593917,0.0085116755,-0.24529906,-0.11537297,-13.642551,-1.1723366,-71.66367,16.0
43614,-1.3079317,1.8034358,12.419159,0.114771724,0.2107225,-0.06326383,-14.28264,-1.9417477,-71.5417,
43664,-0.25352183,1.2404984,12.241494,0.13660963,0.109700024,0.19967872,-12.613734,-2.4060287,-73.01667,
43714,1.4540551,-1.339432,12.525757,-0.14959118,-0.08258004,0.067408495,-13.28211,-1.862133,-72.1368,
43764,-0.65117127,-0.7613232,9.220796,0.07349275,0.5698939,0.06305866,-12.768963,-1.4732271,-72.928154,
43814,0.88752437,1.5291536,8.033037,-0.058688696,-0.13442288,0.4910283,-12.435106,-2.5126343,-72.10821,
43864,0.6671404,0.33660448,10.293969,-0.43357268,-0.41840437,-0.1380098,-13.0262375,-1.7065862,-71.8485,18.0
43914,-1.1402481,-0.055455476,8.696585,-0.0034725394,0.3532903,-0.20210315,-12.745516,-0.8888531,-71.67043,
43964,0.8763456,0.5498021,7.302017,0.15525173,0.29532218,0.27344823,-12.15446,-1.5974007,-71.98285,
44014,0.64558107,1.5315491,6.528677,0.11352891,0.55409247,0.07007165,-11.899202,-1.0959702,-71.569595,
44064,-0.4259963,2.2330248,8.927749,-0.1571368,0.12354843,-0.13827614,-10.923042,-1.1542562,-73.14387,19.0
44114,-0.8216495,1.5435264,11.5172615,-0.05904378,-0.24378991,-0.27241054,-9.1266,-2.4037914,-73.033134,
44164,-1.2037283,1.4337336,11.737644,0.19440016,-0.2530222,-0.21524143,-11.63842,-1.9706358,-74.44192,
44214,-0.24314144,1.6968372,12.353283,0.25396612,-0.13069446,0.049476564,-10.203888,-2.4143429,-72.6729,21.0
44264,1.7283373,0.885169,14.141907,0.17389384,-0.9185456,-0.007781353,-10.307014,-2.3118336,-72.28974,
44314,1.426507,-1.4867538,11.01421,0.4625802,-0.37091136,-0.25572142,-11.359627,-2.116188,-71.312225,23.0
44364,2.1124125,0.12101141,7.092812,0.5304908,0.31423062,0.21885344,-10.717049,-3.044295,-71.56922,
44414,0.57251894,1.793854,6.775411,-0.17622276,-0.04866916,-0.41391304,-11.74099,-4.0464478,-71.84102,
44464,-2.249754,0.67995644,9.850009,-0.71240544,0.2785443,-0.6416131,-10.870515,-3.775182,-70.99711,34.0
44514,-0.05150315,0.8823744,7.769535,-0.033832546,0.040990528,0.17357977,-9.0490055,-4.148369,-71.463356,58.0
44564,0.120172806,1.7826751,7.8976936,-0.04049045,2.441923E-4,0.14481765,-9.486573,-3.1192589,-71.2282,84.0
44614,1.4001567,2.5160906,7.762348,0.19590926,-0.16229726,0.36000094,-10.666929,-2.1114712,-71.681946,121.0
44664,2.0086083,2.5819664,9.26072,-0.07591045,-0.06873161,0.087293416,-9.896926,-2.7861621,-71.55181,169.0
44714,-0.13454638,1.3802346,11.704906,0.03700748,0.019685252,-0.19588912,-10.665364,-3.507225,-71.356224,258.0
44764,0.3365644,2.0705318,11.924492,0.31051385,-0.18910637,0.38956195,-10.614826,-2.797058,-71.569534,336.0
44814,1.3905749,2.7424634,11.7081,0.1762019,0.010985601,0.23181419,-9.589441,-2.2483273,-72.04048,411.0
44864,0.46592018,0.024793029,12.147272,-0.16778943,-0.023990553,-0.4232341,-10.4599905,-3.1939926,-71.97379,509.0
44914,-1.443276,-0.7525397,9.612057,0.022448875,0.47366503,-0.016747316,-10.356676,-3.3713608,-72.43347,617.0
44964,0.20720853,1.8872776,7.6557493,-0.34915057,-0.25169063,0.5477536,-8.8186655,-3.1744957,-72.29432,700.0
45014,1.5271173,1.1039561,10.85052,-0.6653562,-0.40269175,-5.8164198E-5,-9.589331,-1.4537926,-73.133026,781.0
45064,-0.89231616,0.13019413,9.090641,-0.071915716,0.46416646,-0.36810672,-9.845408,-1.293045,-73.63135,849.0
45114,-0.7262296,-0.18960226,7.8050675,0.058312744,0.313698,0.12209203,-7.356973,-1.8772259,-74.07857,902.0
45164,0.37489206,1.1506679,5.9106436,0.16057803,0.04977895,0.2782419,-8.306874,-1.2720133,-73.748085,
45214,-0.015570973,1.9958726,9.0060005,-0.33743265,0.033178598,0.16310467,-7.3593307,-1.3392887,-72.61459,
45264,0.25631586,1.6117976,11.53882,-0.038892545,-0.48125494,-0.013906616,-7.7449875,0.16459148,-73.54439,
45314,0.08743459,1.8417635,11.018203,0.27704686,0.017022101,0.12155939,-8.052316,0.17947006,-73.887535,835.0
45364,1.105513,2.1579666,11.63464,0.24047281,-0.117467426,0.27797562,-8.2062025,-0.47346497,-73.0326,777.0
45414,1.445671,1.507195,12.606404,-0.029393941,-0.3160503,-0.15594174,-8.897696,-0.4218502,-73.82422,704.0
45464,1.0384395,-1.3945279,13.609711,0.18108436,-0.3803212,-0.3364151,-9.076182,-1.5231895,-73.35161,623.0
45514,2.1347702,-0.5289617,8.177165,0.522235,0.14893724,0.13771589,-6.4355183,-1.4082508,-73.20987,556.0
45564,1.3893772,1.5255604,7.9851284,-0.19122523,0.13073897,-0.38408569,-7.2303567,-1.9265925,-72.57878,499.0
45614,-1.008896,1.3714513,9.433993,-0.40560952,0.22741164,-0.5121836,-7.433681,-1.1575642,-75.17216,436.0
45664,0.64917433,1.0524533,7.953986,0.04872538,-0.022392653,0.0033151384,-6.717186,-1.2002958,-73.812546,374.0
45714,0.1744703,1.4816433,7.1359305,0.017033786,0.13153791,-0.08820875,-7.6660643,-0.34336472,-74.72307,318.0
45764,0.6886997,1.9795036,8.975658,-0.06792099,-0.124302864,0.13842607,-6.1532326,-0.900781,-74.05994,269.0
45814,1.7842318,2.1443923,9.45156,0.034610633,-0.20455271,0.087027095,-7.0489945,-1.6595497,-74.6151,223.0
45864,0.062282085,1.0608375,11.63464,0.055116955,0.02092806,-0.26175794,-6.15383,-0.79633075,-73.64846,190.0
45914,-0.047510684,1.9200158,11.367145,0.51664233,-0.26207697,0.14961132,-5.588416,-1.1916695,-74.35204,167.0
45964,1.1330609,2.7867796,10.957916,0.31184545,-0.01102985,0.25791314,-6.766945,-1.8967069,-74.32161,147.0
46014,1.6828232,0.10663858,12.691844,-0.04235466,-0.35768434,-0.22749193,-6.4343367,-2.1476116,-73.35605,
46064,-0.60006773,0.09426193,9.539793,0.15986787,0.44987416,-0.16712701,-5.844526,-1.7782478,-73.88732,
46114,0.9490083,1.9176203,8.616337,-0.03409886,0.001043126,0.38689882,-4.2793226,-3.0730877,-73.291725,184.0
46164,0.99292547,0.89195627,8.709761,-0.3125765,-0.27557027,-0.18914247,-5.1256967,-1.7797076,-74.69484,249.0
46214,-0.58809036,0.5050865,7.880924,-0.29801792,0.7472602,-0.3007288,-4.7433157,-0.9484501,-73.714775,371.0
46264,-1.2444515,0.39010352,9.145737,-0.37595966,0.19705164,-0.16961265,-3.7943916,-0.6722946,-74.26183,515.0
46314,0.29264727,1.6636995,6.9746346,0.14087069,0.1363316,0.35573983,-3.5878744,-0.59137154,-75.624725,622.0
46364,0.67792004,2.0298085,8.772042,-0.18154907,0.14325581,0.06225973,-3.3832715,-0.4849688,-75.285545,726.0
46414,-0.2567158,1.9224113,10.592606,-0.16991995,0.091590546,-0.13747719,-3.205349,0.23795319,-74.773605,828.0
46464,0.48508403,2.453808,11.145962,0.07375907,-0.13318007,0.084807806,-2.8722732,0.41498947,-74.76739,911.0
46514,0.87714404,2.0932887,12.124913,-0.049012553,-0.06473689,0.043617614,-3.4363232,0.020288467,-74.312546,974.0
46564,0.78930986,1.5974247,13.553417,-0.083012216,-0.114360414,-0.09930525,-2.7203228,1.214316,-74.05062,
46614,1.7075766,-0.78128546,12.511384,0.16270857,-0.38458225,-0.25279194,-3.898715,1.4723177,-75.34683,1066.0
46664,2.5128567,-0.25907117,7.854574,0.46826163,0.41099206,-0.034324165,-3.6944504,0.61838657,-73.50048,
46714,1.2811812,1.1622461,7.19422,-0.03729465,-0.045029506,-0.48848152,-2.744834,0.90945625,-74.69256,
46764,-1.6421008,1.1566566,8.7504835,-0.44200602,0.20717162,-0.6479159,-2.0534096,1.2205721,-74.292046,
46814,-0.40443698,0.9945626,8.588389,-0.16619153,-0.082580045,-0.1779572,-0.3611908,2.0419464,-75.265434,
46864,-0.21319795,1.4788486,7.6305966,0.038782913,0.064781405,-0.12540421,-1.8482031,1.6566461,-74.91105,
46914,0.027547628,1.8034359,7.738394,0.006114833,0.056969482,-0.08101822,-2.5173168,3.3440504,-74.79248,921.0
46964,-0.41801134,2.0485733,10.285985,-0.14941363,-0.2805415,-0.039295394,-2.4653084,2.394389,-74.2643,813.0
47014,-0.19762734,1.5531085,13.343813,0.07535697,-0.33451486,0.11951763,-3.286335,3.402606,-75.044426,698.0
47064,-0.25990978,2.134012,11.082082,0.48335287,0.12816459,0.35059106,-2.6187274,2.6277015,-74.94146,595.0
47114,-0.17846352,2.7712092,10.779453,0.18294857,-0.0053484403,0.35760403,-3.516262,2.2302551,-74.340126,499.0
47164,-0.17207557,-0.18640828,11.164327,-0.15527259,-0.040502127,0.07184709,-3.4423447,3.7186406,-73.47853,400.0
47214,-1.5307112,-1.2424151,9.624832,-0.16406101,0.6420655,0.07797235,-4.287219,4.2684126,-75.31149,320.0
47264,-0.7501845,0.64801675,9.651183,-0.45922777,-0.096606016,0.46546197,-2.1108348,5.8846583,-74.55384,258.0
47314,0.08144592,0.20684943,11.205849,-0.28416947,-0.40695277,0.12803975,-3.5975027,6.2666235,-75.47224,202.0
47364,-0.8180563,-0.001956448,8.060585,-0.037205886,0.39448047,0.2602212,-5.597669,6.7468014,-75.88867,166.0
47414,-0.08024889,0.121809945,7.599456,0.014370628,0.08626422,0.47158724,-4.9832754,7.347706,-75.75137,139.0
47464,0.39325738,1.2444909,7.2213693,0.025289582,-0.19975902,0.3939118,-5.5977483,7.471493,-76.72248,120.0
47514,0.30901638,2.0633454,9.343365,-0.443959,0.03433263,0.10247342,-6.985182,9.37066,-76.521034,101.0
47564,-0.54976267,1.2612593,13.087097,-0.04892377,0.089460015,0.019826727,-6.6281743,11.090476,-76.893196,86.0
47614,0.18325374,1.7483399,9.669149,0.6719045,-0.07139477,0.3394946,-6.909669,10.8378105,-77.07782,77.0
47664,0.872353,1.5702759,10.927175,0.15684964,0.066201754,0.21672295,-6.678257,10.880798,-77.717415,69.0
47714,0.52460945,1.0057416,11.91491,-0.007999908,-0.25382116,0.124045,-6.987544,12.224291,-77.94702,61.0
47764,2.2305896,-1.420878,12.464274,-0.03507535,-0.3773029,-0.0046743304,-8.064931,12.432152,-77.769875,52.0
47814,2.4314103,-0.3225513,8.68341,0.4617813,0.3557759,0.23243558,-9.218158,13.058679,-79.09551,47.0
47864,2.568352,1.1007622,6.4596076,0.19147068,0.1379295,-0.22429614,-8.420985,12.098685,-79.99316,44.0
47914,-1.4265078,0.6979225,9.917082,-0.6563015,-0.07494565,-0.89860797,-9.448597,14.136424,-80.738754,38.0
47964,0.32298997,0.45398295,10.482414,-0.20693786,-0.4761949,-0.22189932,-10.268218,13.823364,-81.14243,34.0
48014,1.1534225,1.3291311,8.319298,0.25077036,-0.17632324,-0.17991018,-9.758008,15.529825,-80.91735,32.0
48064,1.2165035,1.9192172,7.9695573,0.34247178,0.18693163,-0.30498987,-10.575942,14.3982935,-81.827385,
48114,0.44436088,2.0813112,8.478597,0.23248334,-0.3022019,-0.33064497,-10.832842,14.473514,-81.473526,29.0
48164,0.84440583,1.5710745,10.919189,0.018365365,-0.1422348,-0.15478772,-11.805558,15.137231,-83.77529,
48214,-0.80488116,1.4021933,12.488627,0.25964755,-0.30415487,-0.14635436,-11.677086,14.291258,-82.962685,26.0
48264,0.5258072,2.6937554,10.286784,0.57523185,0.24099374,0.4619999,-12.369044,15.120952,-84.305,
48314,0.73660934,0.5470074,11.938866,-0.05868869,-0.04653862,-0.11137822,-11.521204,14.483438,-85.050354,23.0
48364,-0.58729184,-0.97691613,11.261743,-0.081503086,0.28120744,-0.22216563,-12.163414,15.454892,-85.18075,
48414,0.049106933,0.97699577,8.675026,0.090270646,0.14982493,0.37597987,-11.058739,14.477701,-85.889984,
48464,1.6085634,0.95783204,9.595289,-0.1909589,-0.2777896,0.32085246,-11.853297,15.37877,-87.28727,21.0
48514,-0.28027135,0.59731245,8.691794,-0.17480242,0.096739314,-0.20458877,-11.366068,15.409185,-87.378685,
48564,0.035532553,0.44280407,8.841512,-0.17258312,0.17175162,0.081434466,-10.622047,15.486453,-87.87695,19.0
48614,0.8971064,1.1207244,7.4904613,9.660597E-4,-0.07086215,0.15902115,-10.673416,16.572327,-89.1547,
48664,0.3645116,1.5000086,8.363214,-0.12464626,0.14804952,0.018051289,-10.672986,16.446012,-89.385376,
48714,1.1546203,1.7471421,9.556562,-0.08798345,0.0038838417,0.031544626,-11.0583315,17.366817,-89.86992,
48764,0.13294871,1.6253719,10.414542,0.20265594,0.15896845,-0.19047402,-10.46663,16.915009,-91.0881,
48814,0.38447392,1.8082268,11.329216,0.07873029,-0.2445001,-0.028287677,-10.592351,15.288088,-91.30453,
48864,0.5545529,2.2250402,10.285985,0.33794442,-0.29190433,0.09155447,-11.285135,15.284532,-90.857414,
