Date created: 2021-10-22-22-16-6-737000000
Timestamp,acc_x,acc_y,acc_z,gyro_x,gyro_y,gyro_z,mag_x,mag_y,mag_z,light
33194650,0.5425755,-0.3562211,10.414277,0.029684087,-0.061271362,-0.0017154254,-3.6083326,-52.299217,-25.2527,
33194700,0.61670923,-0.19578007,9.450089,-0.010742665,0.0063196025,0.019589845,-4.437121,-52.9453,-26.225372,
33194750,1.0529321,-0.17798418,10.571646,-0.04349951,0.116521105,0.03258606,-3.6680083,-52.759056,-26.363165,
33194800,0.7588872,0.12300768,9.99122,0.054611254,-0.043801043,0.02768585,-3.5452824,-52.781574,-26.019367,
33194850,1.6889321,0.35093743,9.528056,-0.013512348,-0.24987623,0.004463102,-3.822682,-52.92392,-25.40556,
33194900,1.7189953,0.15115455,10.236877,-0.13894713,0.101128064,-0.025896907,-3.76158,-52.10676,-26.032562,
33194950,1.8846426,-0.19259663,10.921146,0.11437253,0.038170986,-0.12928073,-3.607415,-52.195656,-26.213415,
33195000,1.2040868,0.08599754,10.1783085,0.203109,-0.016903138,-0.22105317,-3.607111,-52.518097,-26.085861,
33195050,0.92046213,0.28566074,10.232687,0.26671708,-0.0028712517,-0.19289473,-4.037652,-52.84569,-25.876108,
33195100,0.23319945,0.37716797,9.675618,0.23032649,0.06091436,-0.14195737,-2.7457643,-52.705833,-25.690826,
33195150,0.0754572,0.56401527,9.720172,0.43927795,-0.03352126,-0.061956078,-2.6851616,-53.09773,-24.353807,
33195200,0.13211027,1.1309054,8.425538,0.20635803,-0.11203115,-0.050611027,-3.2692757,-53.72062,-24.020641,
33195250,0.020991595,1.056551,9.069461,0.08832683,0.02133982,-0.103128515,-3.7929797,-53.343445,-23.914227,
33195300,-0.62486094,1.0925776,9.047523,-0.22491391,0.07966299,-0.08608429,-2.408463,-53.467064,-23.692638,
33195350,-0.10695852,0.64845586,10.42085,-0.2074968,0.29026562,0.13309368,-2.7781017,-53.756367,-22.955616,
33195400,0.581023,0.4454391,9.81767,-0.11977239,-0.16135286,0.016340796,-2.1331608,-53.065235,-22.730907,
33195450,0.5002953,0.42795205,10.553081,-0.05468478,0.04056783,-0.03505817,-2.7176137,-53.365223,-22.494343,68.0
33195500,0.59934837,0.6124039,9.866296,0.11698244,-0.11101916,-0.12214346,-2.5953548,-53.12101,-22.060793,
33195550,0.10396342,1.3454202,9.925706,0.1552254,-0.18260488,-0.13929419,-2.1946723,-53.18224,-22.607267,
33195600,0.7387651,1.551791,9.727119,0.16001907,-0.057702728,-0.09412704,-3.0583797,-52.992016,-20.866642,61.0
33195650,0.29799715,1.6656958,10.621711,0.20167089,-0.17509477,-0.2251012,-2.8441334,-52.915886,-19.933605,
33195700,0.5975517,0.93567383,11.213033,0.19804898,0.018303828,-0.14078557,-3.0900543,-53.704052,-19.156773,
33195750,0.52820265,1.1427628,10.950849,0.20007297,-0.30692112,-0.2881648,-3.3994706,-53.10658,-18.33566,56.0
33195800,0.49909765,0.23451717,10.976362,-0.40180093,0.11124806,-0.015670381,-3.24715,-52.794598,-17.344994,
33195850,1.8676533,-1.5576727,12.810442,-0.29026777,0.044296246,0.013943948,-3.4953365,-51.323784,-17.337246,52.0
33195900,1.7015078,-0.9859792,10.386236,-0.31418294,-0.05056549,-0.18680495,-4.479576,-51.51654,-17.4214,
33195950,1.2603806,-0.30470496,10.941747,0.056262422,0.15364555,-0.04762828,-4.5430818,-50.27553,-17.189728,46.0
33196000,1.5922744,0.20732853,9.014227,0.029417777,0.14768007,-0.17604579,-4.022889,-49.506,-15.545198,
33196050,1.040476,0.24745286,8.927629,-0.24052,0.19657567,-0.136418,-5.3444185,-50.095493,-16.190304,
33196100,0.5975517,0.21128103,9.788084,0.0055026053,0.04456257,-0.08635062,-5.1010637,-48.404808,-15.770487,42.0
33196150,0.7665528,0.59479725,8.468537,0.059458196,-0.035065886,-0.06083756,-5.902051,-48.055756,-15.299205,
33196200,0.8270386,0.93818915,9.044767,0.28447145,-0.05151828,-0.0032778117,-5.8709216,-48.320625,-15.295364,
33196250,1.2570269,1.392252,8.30121,0.40668076,-0.04316188,-0.018546589,-5.9039555,-47.711998,-14.003214,
33196300,1.0094541,1.352607,9.408759,0.26793027,-0.1147476,-0.102329575,-5.9662886,-48.62856,-12.136976,
33196350,0.7718228,1.2488825,10.902102,0.21258983,-0.030698305,0.041321218,-6.428276,-48.484444,-11.902514,
33196400,1.8697968,1.1753162,10.8603945,0.19591846,-0.18542783,0.032373004,-7.1668806,-48.579926,-11.641203,
33196450,1.2730768,0.99424326,11.232319,-0.05963826,0.07710637,-0.0075743734,-7.413994,-48.570686,-10.780774,38.0
33196500,0.3504581,0.047550075,10.475706,-0.44094935,-0.010724611,-0.053061128,-7.9679313,-48.63528,-10.60809,
33196550,0.14516564,-1.2072017,12.678349,-0.4745584,0.09580174,0.17538464,-8.214018,-47.62661,-11.925911,33.0
33196600,0.22637239,-0.3662688,8.709401,0.20721026,-0.2737914,0.0041435184,-9.783556,-46.950264,-12.468033,
33196650,-0.4734667,0.071504906,8.955894,-0.16041219,0.060648035,0.1686202,-9.505728,-47.42148,-12.703285,30.0
33196700,0.70271325,-0.29093093,8.480753,0.19490647,-0.12769055,0.19152337,-10.767545,-47.00164,-12.9562025,
33196750,-0.09893362,0.5099973,7.896975,-0.010955716,0.18256745,0.06816586,-10.922703,-46.43641,-12.471362,28.0
33196800,0.48580265,0.13354778,9.311864,0.100896955,0.19204828,0.286971,-11.507469,-46.732224,-11.956281,
33196850,0.997836,0.4672379,8.168621,0.15975276,-0.07602527,0.08030985,-11.416571,-46.827904,-10.560034,
33196900,0.56473374,0.50664365,9.783173,-0.110131755,0.21947882,0.08094901,-12.493637,-46.6388,-10.650922,26.0
33196950,0.61527824,0.15414892,10.462531,0.115278006,0.07279205,0.11493093,-11.137726,-46.99427,-12.098816,
33197000,1.358173,-0.06264192,11.807745,-0.09638986,0.23370011,0.10289345,-11.93849,-46.9087,-11.500667,
33197050,2.0175917,0.22110252,11.226091,0.17312184,-0.08257663,-0.15948096,-11.414711,-47.48948,-11.419008,23.0
33197100,1.57862,-0.07533795,10.084525,-0.4847849,0.23636326,-0.3669943,-12.122903,-47.000877,-11.566092,
33197150,0.979391,-1.1686344,12.067862,-0.46097627,0.35045296,-0.26217237,-10.58313,-47.285778,-12.422125,
33197200,0.8112284,-0.38435462,10.355213,0.046035882,-0.37477842,-0.37056294,-11.351529,-46.84474,-13.715416,21.0
33197250,0.740442,-0.04347808,8.236294,-0.40771312,0.0017389863,-0.11218325,-10.766986,-46.835407,-13.670033,
33197300,0.9378296,-0.17127688,9.640642,-0.21601892,-0.092110746,-0.16880201,-10.243143,-46.838123,-14.368886,
33197350,0.49191108,0.5707227,7.234744,-0.17264494,-0.13727199,-0.15803693,-9.689304,-46.801167,-14.417445,
33197400,0.57671106,0.6308492,8.584716,-0.0015281275,-0.07330884,-0.03303417,-8.980983,-46.509964,-15.362737,
33197450,1.3169138,0.38926512,8.638494,0.15463951,-0.077090524,-0.11431378,-8.180765,-47.196125,-14.715833,
33197500,1.0322113,0.56617117,10.00284,0.22601219,-0.14031391,-0.17503378,-7.873689,-46.6046,-14.900755,
33197550,0.7506039,1.2208302,9.016887,0.13802138,-0.3099571,-0.17263696,-7.7813454,-47.008995,-14.429486,
33197600,0.18349329,0.96250325,11.718121,-0.27657917,0.18539041,0.111255765,-6.857025,-47.649147,-14.770517,23.0
33197650,1.722708,0.3627951,11.475939,0.14776856,-0.05946042,0.14555725,-6.7634797,-48.53266,-14.788912,
33197700,0.6271359,0.3195567,11.28023,-0.50092363,0.050741095,-0.040437758,-6.239757,-48.273285,-15.707474,
33197750,-0.27188718,-1.4493845,12.835373,-0.5754921,-0.010777871,0.27850217,-4.701089,-47.67513,-16.666618,26.0
33197800,0.32255083,-1.808347,12.624453,0.16598456,-0.23975627,0.30167162,-4.238588,-48.144463,-16.95921,29.0
33197850,0.45993152,-0.99400395,8.448533,0.2824179,0.015480885,0.29687792,-4.575591,-48.400276,-17.955122,
33197900,0.46088973,-0.58102345,8.497282,0.08225484,0.013137296,0.13272083,-4.5132966,-48.930485,-17.978386,
33197950,0.20385484,-0.30734003,8.044894,0.069098845,0.15913165,0.10896544,-4.3596096,-49.244576,-17.444729,
33198000,0.12552269,-0.34075692,7.7282133,0.19943383,0.0021650784,0.08888523,-3.4029746,-49.99169,-19.052784,
33198050,0.6060557,-0.45514107,8.403738,0.2922183,0.08898407,0.16031116,-3.9878132,-50.083923,-18.72578,
33198100,0.31752658,-0.034778718,8.876183,0.3274785,-0.18612024,0.044889856,-2.4167583,-50.89625,-19.389212,27.0
33198150,0.2789531,0.36399284,9.603514,0.3276383,0.03247183,0.19748886,-2.6937287,-51.652153,-18.396858,
33198200,1.6597068,-0.22026439,10.123573,-0.02901193,-0.15181875,0.14529094,-4.0785775,-52.710888,-16.840443,
33198250,2.1423957,-0.98549986,12.181646,-0.1670168,-0.032296196,-0.0666965,-3.4947152,-52.229378,-16.76959,
33198300,1.9309947,-0.5494031,11.011694,0.11863359,-0.09083242,-0.24827066,-3.3384812,-53.15627,-17.776417,29.0
33198350,1.7185158,-0.9627428,10.276402,-0.58252287,0.18576325,-0.19974789,-2.0168388,-52.249886,-17.630224,
33198400,1.3827896,-1.3552421,12.15434,-0.28089347,0.13431102,-0.21482137,-1.924284,-51.383484,-18.93798,33.0
33198450,1.2648124,-0.3631547,8.739702,-0.1220627,-0.18713221,-0.21482138,-0.41713294,-50.86266,-19.123192,
33198500,0.6647449,-0.10156844,9.008476,-0.3761103,0.11892387,-0.058908243,-0.9694508,-50.138355,-21.404879,37.0
33198550,0.94717187,0.081565894,8.099871,-0.25069326,0.13713396,0.0046761557,-0.57075846,-49.044235,-21.59335,
33198600,0.8296736,-0.027069053,9.274373,-0.24611263,0.27071804,0.095330074,0.5670292,-48.61375,-21.53908,40.0
33198650,0.6980421,0.3763295,8.212459,0.22633171,-0.10324274,-0.14296935,1.1206402,-48.284286,-21.745796,
33198700,0.5812814,0.7954437,8.620875,0.2288351,0.17537692,0.11242757,0.44306603,-47.735332,-21.830914,
33198750,1.543047,0.30147082,9.366602,0.2523242,-0.08492021,-0.02877312,1.6120903,-47.947426,-21.39699,
33198800,0.89399225,0.759127,9.385884,0.104359046,0.029755402,0.04425069,2.349474,-47.633064,-20.825138,
33198850,1.3793161,0.09294443,11.103802,-0.031462036,0.15524343,0.12654229,2.840691,-47.350986,-20.197124,
33198900,1.1809704,-0.10995259,12.109664,0.03996388,0.0709811,-0.07202281,2.777877,-46.64019,-19.928343,44.0
33198950,-0.5882101,-0.09677746,10.759932,-0.1378286,-0.03501262,-0.13258305,4.7448416,-45.221416,-19.67918,
33199000,0.14875884,-1.4201596,11.754174,-0.71094036,0.2708778,0.2577295,4.7735214,-43.543266,-19.883617,49.0
33199050,0.010060644,-1.6400646,12.63595,-0.1959387,-0.051311154,0.053039115,5.3883724,-42.3985,-20.841118,54.0
33199100,-0.60126555,-0.7766142,9.2726965,0.042147674,-0.30415145,0.07652818,6.4944115,-41.173866,-20.889696,
33199150,0.46975294,-1.4003968,9.670466,-0.068693,0.1314348,0.20851433,6.9849367,-39.435303,-21.45478,61.0
33199200,0.19079952,-0.70870245,7.6989884,0.18467993,-0.050672002,-0.044379227,7.5978956,-37.83117,-21.272392,
33199250,-0.4849587,-0.28441277,7.5585446,-0.02459109,0.1774542,-0.008373316,8.430856,-38.311577,-22.669943,
33199300,-0.28374484,-0.53047884,8.618494,0.16507909,-0.07847537,0.12238777,9.1049595,-37.019695,-21.73955,
33199350,0.36195648,-0.18792543,8.389483,0.16955319,0.024056247,0.10742082,10.089403,-37.17701,-21.403711,65.0
33199400,0.25439945,-0.15247235,9.686996,0.25637218,-0.066224836,0.10369239,11.35022,-36.33886,-21.815395,
33199450,0.44064793,-0.71552956,10.497266,0.03841925,-0.13541369,0.055595756,12.21165,-36.614582,-21.388388,
33199500,1.2678066,-1.3699745,11.482288,-0.072261624,-0.05898104,0.1375145,12.765167,-35.7918,-22.127016,69.0
33199550,2.3829021,-1.1461167,11.683505,0.13791488,-0.28130156,-0.21503444,12.889044,-35.655964,-23.023144,
33199600,0.7797278,-1.0730547,9.475354,-0.6265656,0.047492042,-0.42393854,13.748792,-34.548817,-22.797909,76.0
33199650,0.5577868,-2.722342,13.69032,-0.6091545,0.4174048,-0.122995675,14.885462,-32.424603,-23.846634,83.0
33199700,1.3765614,-1.3333237,9.413073,0.2460391,-0.15373623,-0.3619343,16.147377,-32.643166,-23.936522,
33199750,-0.08935169,-0.30578297,9.366839,-0.3272857,0.05191288,-0.14355525,18.269737,-30.837574,-25.576097,89.0
33199800,1.2104099,-0.7834287,9.459041,0.04140199,-0.04784904,0.11562334,18.391907,-29.752756,-26.111822,
33199850,0.93591297,-0.14899893,7.9016447,0.11330728,0.06373731,0.05245322,19.31524,-29.945583,-26.117573,
33199900,1.0880258,-0.14840004,8.145624,-0.031195724,-0.018341245,-0.022328272,20.331264,-29.071201,-27.804834,97.0
33199950,1.2052845,-0.12492434,8.88511,0.24374881,0.0046151867,-0.052102387,20.30143,-29.055157,-28.672445,
33200000,2.0668187,-0.24206324,8.885707,0.29871637,-0.042682514,-0.18339613,21.25595,-29.455744,-28.798828,
33200050,0.6754048,0.3644719,9.247784,-0.040623304,-0.22494909,-0.42744797,22.209679,-28.774769,-29.556812,104.0
33200100,0.44759482,-0.16756387,11.827955,0.015569352,0.066240676,-0.017641114,23.099064,-27.015314,-29.121725,
33200150,0.869199,-0.26026887,11.665422,0.090990014,-0.07586549,-0.01774764,25.192135,-27.169256,-29.655987,113.0
33200200,0.55958337,-0.49790034,11.098412,-0.027999923,0.090475425,0.050322693,26.084814,-26.495703,-30.848743,
33200250,-0.25008827,-1.7283379,11.465878,-0.44686157,0.07508237,0.08355892,27.716074,-25.957886,-31.990604,124.0
33200300,0.52568734,-1.8269117,11.597269,0.06094957,0.09244616,0.30710444,29.19226,-25.11647,-32.396973,
33200350,0.16588654,-0.86464804,8.227191,0.06355947,-0.33062324,0.061774276,29.379206,-25.752705,-33.715923,138.0
33200400,0.29974964,-1.4082705,8.7981415,-0.20707074,0.12973037,0.1720823,30.64303,-26.141378,-35.320488,
33200450,0.5485642,-1.4844782,8.749287,0.03793988,-0.050831784,-0.028187227,30.981958,-26.345394,-35.49542,153.0
33200500,-0.09318447,-0.5022122,7.5769386,-0.014630875,0.0343893,-0.065684505,31.44393,-26.40245,-35.823746,
33200550,0.10528092,-0.42232305,8.605317,0.10031106,0.1053891,0.079777226,32.70741,-26.98916,-36.868877,
33200600,0.52880144,-0.27332425,8.583879,0.07394579,-0.10579938,0.041161433,33.509544,-28.250757,-37.236706,164.0
33200650,0.60940933,-0.45777613,10.604941,0.23879531,-0.009552819,0.014370051,34.15875,-29.758423,-38.131683,
33200700,0.49382758,-0.49885854,9.525781,0.15772876,-0.05802232,-0.04400639,34.929195,-30.197779,-38.695534,
33200750,0.50628406,-1.4253098,12.254471,-0.068426676,0.056901872,0.026727114,34.684765,-31.874104,-38.156006,
33200800,0.94022495,-1.2852942,12.119844,0.14526519,-0.17536108,-0.045977127,35.271973,-32.94233,-39.181427,180.0
33200850,1.8676344,-0.72271615,9.669148,-0.026987929,-0.14516085,-0.058280922,34.6898,-33.735794,-40.393883,
33200900,2.8300178,-2.160722,11.118175,-0.5891275,0.38805678,-0.045977123,33.39698,-33.89216,-39.712315,193.0
33200950,2.5270402,-1.7547325,11.200174,0.01594219,0.11865165,-0.42750126,35.612514,-33.77565,-40.02999,
33201000,2.072328,-0.9459745,8.540998,0.031015668,0.099370375,-0.4831612,34.47646,-33.6213,-42.3815,206.0
33201050,1.616708,-0.51933986,7.996028,-0.09846711,-0.04550546,-0.66116685,34.720757,-32.72477,-41.828655,
33201100,0.9907695,-0.5368269,8.352835,-0.26427537,0.020061508,-0.7012207,34.719383,-30.96976,-42.7776,221.0
33201150,0.63312465,-0.47107092,9.316054,-0.14171681,0.013669926,-0.64737165,35.640472,-29.366978,-42.98992,
33201200,1.5430473,-0.39776927,8.738986,0.20609172,-0.002628605,-0.57051283,35.950294,-29.738327,-44.46365,237.0
33201250,1.3939285,0.13833874,9.071717,0.23836923,-0.097809896,-0.74281925,35.9506,-29.858105,-44.586067,
33201300,1.3971626,0.50616455,8.773119,0.12571758,-0.02249577,-0.665268,37.059597,-29.801792,-45.859154,253.0
33201350,1.3878201,0.26793414,10.461454,0.030163456,-0.009552814,-0.6245217,37.460022,-29.078135,-47.157597,
33201400,1.7321699,-0.63779616,11.640508,-0.026881406,0.1314348,-0.6012456,38.939037,-29.60585,-48.41472,
33201450,1.8075078,-0.7167273,12.079839,0.32508168,0.038224243,-0.6596754,39.894676,-30.397577,-49.062737,
33201500,1.4228508,-1.0357105,9.591296,-0.051009633,0.1101828,-0.85083705,40.94476,-32.11388,-50.502483,275.0
33201550,0.121809766,-2.0434632,12.527075,-0.5894471,0.27061146,-0.46920627,41.37575,-31.21333,-51.833168,
33201600,2.327686,-2.1526966,11.292924,0.1546395,-0.22649375,-0.5306187,41.594902,-32.476097,-53.67027,
33201650,1.1173705,-1.1178501,9.082976,-0.025176983,-0.30015674,-0.76700073,39.567036,-33.38319,-55.134033,
33201700,1.7413925,-1.2718794,8.860315,0.19895448,-0.100046955,-0.7813817,39.016136,-34.096085,-56.903797,255.0
33201750,0.84967595,-0.4419659,7.3357124,-0.0563892,0.12120827,-0.9392006,38.802723,-34.18333,-58.57955,
33201800,0.6422275,-0.5456902,8.83744,-0.048506256,0.4152743,-0.9425562,40.12567,-33.96012,-58.765892,223.0
33201850,0.32243106,-0.0438374,7.437761,-0.06475152,-0.040498726,-1.0467391,40.15664,-33.35444,-59.700733,208.0
33201900,0.79434043,0.03784842,8.758028,-0.007469938,0.19917375,-0.8451318,42.002678,-32.660847,-60.498573,190.0
33201950,1.1998949,0.2947635,7.640898,0.023185974,-0.13115266,-1.0334765,41.75888,-33.100956,-62.078136,177.0
33202000,0.8944713,0.19247656,10.268498,-0.031941414,0.12877166,-1.0777915,43.23507,-32.433186,-62.26582,159.0
33202050,1.1669571,0.72846496,8.233658,0.16193655,-0.3152302,-1.1214674,44.130566,-33.099743,-64.34062,147.0
33202100,1.130098,0.31874353,10.249547,-0.15151724,0.13154134,-1.0349145,44.869022,-32.741707,-64.790695,130.0
33202150,1.4103377,0.037010007,10.60195,-0.074072585,-0.26159418,-1.0907876,46.56507,-34.18565,-66.403244,113.0
33202200,2.6370618,-0.2690124,11.128834,0.024783876,-0.2770937,-1.2688997,45.85894,-34.85333,-66.97023,98.0
33202250,1.6243734,-1.0547293,9.979363,-0.3839577,0.046266973,-1.4599016,45.891273,-35.250023,-67.89341,86.0
33202300,1.8683532,-2.0735261,12.087504,-0.18347514,0.35029322,-1.2504706,46.71914,-33.375893,-67.615944,74.0
33202350,1.5479579,-0.69097596,9.531889,0.07080327,-0.07213704,-1.3756392,45.516476,-32.691933,-66.044235,65.0
33202400,2.5263906,-1.026343,9.986071,-0.26134592,0.26730916,-1.160243,44.742596,-30.035883,-65.1347,58.0
33202450,2.2174938,-0.63360417,9.024763,-0.099692166,0.062458992,-1.4528176,43.9699,-28.524525,-63.871407,
33202500,1.5135828,-0.3213536,9.842222,-0.11290141,0.17420512,-1.4552677,43.535656,-26.689753,-63.005817,53.0
33202550,1.6050901,-0.13845882,8.993504,0.22894163,0.123125754,-1.502512,41.09899,-23.89622,-61.11779,
33202600,1.7171986,0.11115005,9.278208,0.1785014,0.28744262,-1.5763881,40.049397,-23.199734,-58.861458,
33202650,1.2169659,0.7012636,8.472483,0.30814397,0.24057107,-1.6057361,38.290295,-21.041748,-56.763496,60.0
33202700,1.709054,0.5692853,9.35091,-0.012553608,0.4478713,-1.4947355,37.024113,-19.377018,-54.616615,
33202750,1.0288576,-0.1637311,10.550565,0.3442564,0.11902449,-1.446426,34.370407,-16.36185,-51.498436,67.0
33202800,1.3187106,-0.8724335,10.644829,0.4272937,0.22192895,-1.4369984,30.580435,-13.942179,-49.608795,76.0
33202850,0.18289444,0.033057455,10.26754,0.6280958,-0.19916973,-1.4709804,28.423788,-13.29893,-47.84366,89.0
33202900,0.7143314,-0.5020924,9.416186,-0.06192857,-0.07570568,-1.4164387,23.43684,-11.776068,-47.552002,99.0
33202950,0.06946853,-1.9329116,12.327052,0.15304162,-0.13834319,-1.4397147,19.584349,-8.73636,-45.54728,
33203000,-0.42435932,-0.9799902,9.5124855,0.26139075,-0.6587185,-1.3281698,15.643805,-7.4334764,-45.22704,
33203050,1.4315374,-1.6919267,9.78042,-0.324516,-0.14287053,-1.0189356,9.579597,-5.805785,-44.74672,
33203100,1.9079984,-1.1286298,10.535593,0.017167242,-0.5164052,-1.3373963,7.023248,-4.940629,-43.520306,92.0
33203150,-0.324947,0.625579,7.581729,-0.122701846,-0.6752893,-1.5104482,1.4855766,-4.711956,-44.434517,82.0
33203200,1.2254066,0.42651486,8.860914,-0.3249421,-0.40721568,-1.0824254,-0.9462635,-4.8482394,-43.255314,61.0
33203250,0.7917052,0.22027671,8.776833,-0.3962615,-0.2064668,-1.4755609,-4.1477957,-4.497321,-42.255657,49.0
33203300,0.39956543,0.81925356,8.967274,-0.3122655,-0.38223523,-1.4659202,-7.102229,-4.444898,-41.741642,41.0
33203350,0.13079278,0.8344647,10.07099,-0.45005736,0.030234773,-1.4204867,-8.302061,-5.853682,-40.114677,
33203400,0.37034056,0.86979806,10.626741,-0.2270977,-0.22489586,-1.3005912,-9.936283,-6.873066,-35.686302,38.0
33203450,0.51071566,0.636239,10.594642,-0.43956447,-0.34622937,-1.2848786,-13.009494,-7.313842,-38.45054,
33203500,0.017486647,0.37884477,12.864598,-0.36771247,0.076786794,-0.9913451,-15.194849,-8.000986,-36.88739,
33203550,0.8103901,-0.78607637,13.0089245,-0.12328774,-0.07229684,-1.2610167,-16.825878,-8.281341,-36.274708,35.0
33203600,-1.0271816,-0.6816336,11.198303,-0.22235724,-0.091524854,-1.0992032,-19.564108,-9.336693,-35.12343,
33203650,0.17702551,-1.9121907,12.336275,-0.5142928,0.279826,-0.54207027,-21.657234,-9.26888,-34.433414,
33203700,0.4934682,-0.5513195,11.070982,0.20007297,-0.21855752,-0.2292557,-23.35027,-9.630738,-33.295128,32.0
33203750,2.8990076,-0.85195196,8.801985,-0.044564776,-0.034693044,-0.02818722,-24.458261,-9.324174,-33.388138,
33203800,2.585919,-0.6920223,8.639157,-0.17186376,0.10134111,-0.4655311,-26.552328,-9.4175005,-31.643879,
33203850,0.31919703,-0.11654017,8.601365,-0.38358486,0.05446952,-0.3658225,-27.690557,-9.552705,-31.67062,30.0
33203900,0.91219795,0.014971601,8.520517,-0.30443582,-0.0535482,-0.077828504,-28.060028,-9.265342,-31.806952,
33203950,1.2735558,0.004191947,9.49859,-0.04557678,0.15103568,-0.08587124,-29.107355,-9.496225,-30.43745,
33204000,1.5789793,0.5029305,8.187547,0.33600062,-0.20087413,-0.13897462,-29.16842,-9.763885,-30.528728,27.0
33204050,1.1239581,0.86333025,8.831331,0.15948644,0.072792046,-0.21807046,-29.47453,-10.889326,-30.554264,
33204100,1.6702471,0.070426956,9.768321,0.26569325,0.011858977,-1.17530304E-4,-29.780811,-12.388766,-29.956415,
33204150,1.9938761,-0.45466202,10.768076,0.15752755,-0.19148207,-0.2160938,-30.91872,-12.904454,-29.793026,
33204200,0.46340495,0.1668449,12.728775,0.2558928,-0.25259268,-0.19910875,-30.148884,-13.596174,-29.487293,
33204250,0.88009846,0.26769456,10.857186,0.15629064,0.023417085,0.17085727,-31.164562,-13.89621,-28.82812,
33204300,0.37213716,-1.3936895,11.906286,-0.5917907,0.12504323,0.19993897,-31.257788,-13.624863,-28.338333,25.0
33204350,1.0344051,-1.2171363,12.934754,0.13301465,-0.109208226,0.35184553,-29.626572,-13.40486,-29.043177,
33204400,1.1093459,-0.2727254,8.234018,0.24614565,-0.10489391,0.14923242,-30.888515,-13.764814,-28.203716,
33204450,0.83518326,-0.28266662,9.007397,0.18531908,0.13756005,0.1461964,-31.532887,-14.376764,-29.048386,23.0
33204500,1.0019084,0.015810017,6.282302,0.09727506,-0.0053982884,0.06454396,-31.072454,-14.529048,-27.85896,
33204550,0.57575285,-0.32854006,8.408649,0.018019453,0.24520496,0.07082902,-31.410572,-15.146353,-27.395926,
33204600,0.49215063,0.17870255,7.3498473,0.29094,-0.042575993,0.03524922,-31.532593,-16.291061,-26.921412,22.0
33204650,1.0712576,0.108275495,9.054111,-0.012553612,0.19023737,0.16068399,-30.637304,-16.375864,-29.529156,
33204700,0.7242726,-0.23739202,10.50062,0.22025971,-0.09765011,0.02736627,-29.929785,-16.797623,-28.856663,
33204750,1.2082789,-1.3995584,11.522291,-0.059265412,0.23215547,0.11162861,-29.563412,-17.767366,-25.06007,
33204800,2.1610806,-1.0838344,12.365979,0.5760045,-0.3025003,-0.044858597,-30.482656,-17.542147,-28.79989,
33204850,2.6870077,-0.08480008,7.275347,-0.15535216,-0.13147222,-0.507396,-31.710932,-18.953415,-29.278387,
33204900,0.7746973,-1.2533145,12.545519,-0.976617,0.43119994,-0.48848754,-30.69667,-18.663406,-28.637463,
33204950,0.89118063,-0.59355557,11.774333,-0.17473997,-0.12801012,-0.2116256,-31.097372,-17.936138,-28.903477,20.0
33205000,1.6436573,-0.57239974,9.527097,-0.38901773,-0.15181878,-0.19026707,-31.312168,-18.236538,-29.060104,
33205050,0.8417708,-0.07677521,9.8654585,-0.124193214,-0.25392428,-0.17945465,-31.5581,-18.214039,-29.283148,
33205100,0.9779539,0.23284033,7.473334,-0.41479713,0.15652177,-0.10786893,-32.418964,-18.582745,-29.424107,
33205150,0.30985484,0.27080873,9.7357435,0.06457147,0.18400557,-0.03633649,-32.265358,-18.432537,-29.391071,
33205200,0.79937077,0.4249577,8.873731,0.21152456,-0.041564,-0.059559237,-32.17109,-19.296764,-30.090637,
33205250,0.6027021,0.6485757,8.510336,0.28662565,0.11945059,-0.0057634255,-33.27616,-20.85265,-30.502493,
33205300,0.5824603,0.23870926,10.15076,-0.047062226,0.051812276,-0.0016207331,-33.247147,-19.844707,-30.172962,
33205350,0.78703403,-0.27152762,10.693456,0.20300245,0.09537564,0.22161707,-33.830254,-20.481033,-30.73725,
33205400,0.9349548,-0.38363603,11.420723,0.11202897,0.10506952,0.21197644,-33.922985,-20.38982,-30.462036,
33205450,-0.24290188,-0.9608265,11.755373,-0.3489105,0.24994537,0.28707752,-34.538025,-19.824345,-31.474375,
33205500,-0.22624698,-1.715396,13.182751,-0.19796273,0.15891862,0.524365,-34.293545,-19.132801,-30.826288,22.0
33205550,0.15115431,-0.9605869,10.774303,0.17045867,-0.24875772,0.3653211,-35.218147,-17.736313,-31.174992,23.0
33205600,0.15534644,-0.07222382,7.9842896,0.28135258,-0.13115266,0.49645504,-36.819687,-17.88345,-29.572617,25.0
33205650,1.4514201,-0.8296741,8.335585,-0.28776446,0.085788265,0.25980678,-36.759808,-16.268429,-30.085077,
33205700,0.32039484,-0.14049491,7.4600387,0.0833201,-0.07368168,0.03162732,-37.162216,-15.51846,-28.834705,28.0
33205750,0.5196987,-0.5249693,8.432006,-0.27833685,0.030767402,0.06965723,-36.208916,-14.397573,-29.752558,
33205800,0.09773517,-0.23415816,9.504221,0.42574906,-0.27767962,0.032586057,-37.288475,-13.335895,-28.677399,30.0
33205850,1.2246878,0.07150489,8.27055,0.5132605,0.039928667,0.17027137,-37.135212,-13.586386,-27.83496,
33205900,0.4741847,0.432743,9.564827,0.21924774,-0.2653226,-0.066483445,-36.951427,-13.312228,-27.431173,
33205950,0.8789007,-0.18517062,10.00763,-0.043446243,0.14304617,0.13043053,-36.27605,-12.703054,-26.802374,
33206000,1.8235576,-1.1455181,13.568031,-0.15066503,-0.02190988,-0.13157105,-35.354446,-11.078201,-27.510181,
33206050,0.9675839,-0.114333816,10.837952,0.23336247,-0.26867813,-0.33125466,-36.00097,-11.690447,-26.404871,
33206100,2.0304072,-1.2208556,11.2201,-0.25090632,-0.0031612378,-0.17982748,-35.539944,-11.676958,-25.960217,
33206150,1.6224571,-1.1232401,10.32036,-0.04051678,-0.0128018735,-0.33722016,-35.51136,-10.8080845,-25.071936,
33206200,1.6799486,-0.6059365,8.611906,-0.18683071,-0.04044546,-0.24683256,-34.5277,-10.665487,-24.399109,
33206250,1.6769543,-0.9064492,9.855277,-0.5256911,0.19167545,-0.27985573,-34.069817,-10.552267,-21.231838,
33206300,1.2787058,-0.14312997,9.163584,-0.14352776,-0.18271141,-0.36182776,-34.499832,-8.889626,-23.985641,
33206350,0.83242834,0.6672604,7.4309335,-0.19146463,0.014628661,-0.19346285,-32.96187,-8.426832,-24.138462,
33206400,1.3050563,0.38722903,8.591543,-0.07353995,-0.13525392,-0.16209085,-32.83979,-7.4276786,-24.487478,
33206450,1.3357184,0.4540628,9.306232,0.05603161,0.060571108,-0.2694753,-34.22509,-7.7567763,-23.434772,
33206500,0.9950814,0.6706141,9.5750065,0.31783786,-0.1085158,-0.2168454,-32.409954,-7.206431,-23.9222,
33206550,0.56149983,0.55898476,10.653572,0.13003191,-0.015358506,-0.1281622,-31.058765,-6.630661,-22.254753,
33206600,0.6708533,0.39657134,10.792867,0.32028794,-0.14010085,0.11285367,-31.397736,-6.570811,-21.86149,
33206650,1.0768932,0.24977893,11.113309,0.033039667,0.23433927,0.17602378,-28.692282,-4.9971313,-21.843372,
33206700,0.61240363,-0.6243815,11.920538,-0.4387656,0.27375403,0.27125838,-28.261877,-4.494036,-22.14802,
33206750,1.7879848,-2.223244,14.242477,-0.1609448,0.18549694,0.23871455,-25.679327,-3.242818,-21.881603,33.0
33206800,0.8101505,-0.989333,9.074232,0.4699575,-0.71965754,-0.10387419,-23.95676,-2.7772224,-22.029865,
33206850,0.48232913,-1.3693752,9.709871,-0.14619091,0.24680285,-0.012421327,-21.95853,-1.9724709,-21.463278,
33206900,0.036770225,-0.63132846,7.7771997,0.2271307,-0.29632175,-0.08134387,-19.834667,-1.3157429,-23.027607,
33206950,0.38375527,0.066833705,6.9924417,0.04821967,0.23327398,0.094903976,-18.018784,-1.4411627,-23.352423,30.0
33207000,0.69420934,0.3399182,7.3388276,-0.07146268,-0.04699684,0.03972333,-15.710706,-1.1238339,-24.134413,
33207050,0.56629086,0.124205425,8.749404,0.04262704,0.064110145,0.08824608,-14.1100445,-1.4860601,-24.307072,
33207100,0.9514837,-0.07102607,9.703164,0.2555732,-0.1720055,0.10502398,-13.709433,-1.5463663,-24.791655,
33207150,1.0560462,-0.20026214,10.154713,0.13461253,-9.774447E-4,0.12542377,-12.168856,-2.0445938,-26.109497,
33207200,1.6741239,-0.75972605,11.393704,0.11852708,-0.070805475,-0.013699639,-10.690227,-3.1171784,-26.338873,
33207250,1.2358271,-0.79050803,11.277235,0.06180178,-0.28098196,-0.10770917,-10.842982,-4.0601516,-26.146032,
33207300,2.439196,-0.7927836,9.825693,-0.38193375,-0.029579777,-0.070105344,-9.057111,-4.688155,-26.52768,
33207350,2.864633,-1.3503317,11.975754,-0.768731,0.31529927,-0.15905485,-8.040904,-3.8741257,-28.307098,
33207400,2.041306,-0.4776585,11.0957775,0.098606646,-0.3063885,-0.29365087,-7.0865974,-3.8665996,-28.747742,35.0
33207450,1.7260616,-0.5983907,9.59429,-0.1609448,0.21164915,-0.1938357,-5.5780487,-3.3933213,-30.139532,
33207500,1.1159332,-0.1752294,8.967513,0.095144525,-0.09775665,-0.25535467,-4.2837706,-3.7773578,-31.464817,
33207550,1.297271,0.06264162,8.029085,-0.21543305,0.26338544,-0.21591625,-2.8360076,-4.3280745,-32.258152,
33207600,0.75565326,0.42447862,8.4447,0.19357486,0.06442974,-0.20187846,-1.4192215,-3.9502022,-34.02256,38.0
33207650,1.1424035,0.8065575,7.6753936,0.1362637,0.12296597,-0.14584558,-0.7399601,-5.1584125,-34.64168,
33207700,0.9020171,0.9804692,9.074711,0.14361402,0.049249727,-0.06850745,0.21632996,-6.10357,-35.690304,
33207750,1.2955122,0.50710374,9.915316,0.16033867,0.04983562,0.010961209,1.6353645,-7.521308,-37.24814,
33207800,1.1020395,0.33716342,10.80257,0.20215026,0.017185297,0.063052595,2.0983555,-9.299724,-36.349342,
33207850,1.0940146,0.2503274,11.06763,0.30239156,-0.12619917,0.13122945,2.1323872,-10.963673,-37.22687,
33207900,0.83326685,0.5870118,11.448629,0.3744034,-0.055998307,0.13596988,2.6265125,-11.559736,-38.136265,
33207950,1.0443084,0.5498819,10.3752165,-0.13564481,-0.11767707,0.2249194,2.2910728,-13.659935,-38.244102,
33208000,1.0479016,-0.74259853,12.539171,-0.106243536,0.39471468,0.23754278,1.3995613,-12.988611,-39.790733,
33208050,-0.06803197,-0.1283978,9.095431,-0.010210022,-0.28987688,0.19498548,0.3264183,-13.720096,-42.28519,43.0
33208100,0.59060484,-1.0336492,10.556913,-0.25037366,0.28792202,0.37304428,-0.041313935,-14.179507,-43.06284,
33208150,0.7610432,-0.4951455,8.279653,0.15746245,-0.25786573,0.11210797,-2.0719066,-13.892509,-43.55001,47.0
33208200,0.5024513,-0.06731308,8.91026,0.010722396,0.2855252,0.111309014,-2.8714206,-13.447301,-44.53459,
33208250,-0.029225206,0.6586367,7.5459166,0.18872795,-0.09807621,0.12094967,-4.07236,-12.670428,-44.63537,
33208300,0.48652133,0.4976605,8.981405,0.052853566,0.079663,0.2551196,-4.8410764,-12.7461605,-44.99409,51.0
33208350,0.55770487,0.40447634,8.898625,0.08763442,-0.11741076,0.20441309,-5.2426124,-11.834125,-44.73606,
33208400,0.48472467,0.44112724,9.585307,0.2473174,-0.08673115,0.2546935,-6.750226,-12.117245,-44.429802,
33208450,0.593719,0.27188665,9.799343,-0.3086968,-0.062070318,0.20350759,-6.935411,-11.793894,-44.314342,
33208500,0.761642,-0.7397239,12.492702,-0.09596373,-0.03565178,0.30529353,-7.891961,-9.658512,-44.517628,
33208550,1.5366992,-0.67911834,10.8132305,-0.011967719,-0.27427083,0.166756,-8.107956,-9.479793,-44.184593,55.0
33208600,1.4263874,-1.5865256,11.477615,-0.5209507,0.26049146,0.23360129,-8.634043,-7.160521,-44.348347,
33208650,1.7452253,-2.125029,12.435688,0.09099,0.12248659,0.10997745,-8.789503,-5.7228794,-44.678387,
33208700,1.0747311,-0.75960636,9.050997,0.23061647,-0.07809069,0.08454725,-8.7895565,-5.2590456,-45.209953,61.0
33208750,2.952786,-1.2862524,10.04476,0.1463837,0.05196615,0.23946023,-7.434892,-5.076898,-46.19982,
33208800,2.8609195,-0.41980773,9.053151,0.6296936,-0.39336723,-0.27937636,-7.4025116,-5.908407,-46.622723,
33208850,1.6059284,1.1934273,6.5697594,0.29935557,-0.38985187,-0.18621905,-9.371415,-5.8830323,-46.919613,56.0
33208900,3.7546608,0.12155781,7.6998763,-0.04797362,0.036413297,-0.26920307,-9.493324,-6.5081873,-47.19398,
33208950,1.0125682,1.138331,8.585794,-0.22704439,-0.52604574,-0.7290773,-10.357138,-4.8403344,-47.20383,
33209000,1.2543919,0.73349535,7.8673897,-0.052660774,0.07273878,-0.17940135,-11.650345,-4.0653257,-47.337837,52.0
33209050,1.3954856,0.53455085,8.610708,-0.1920505,-0.22979605,-0.280921,-11.651932,-3.378442,-46.757713,
33209100,1.3951263,0.98406255,8.683168,-0.026295507,-0.19938278,-0.050397985,-13.038591,-2.9368436,-45.435402,
33209150,2.8345695,1.0664669,9.181549,-0.21207745,-0.442902,-0.15015988,-13.74703,-2.242335,-45.61583,
33209200,3.2780921,1.3538047,9.806768,0.005715657,-0.12619917,-0.18728432,-15.718046,-1.8704243,-44.431038,
33209250,2.830018,0.86860037,9.9846325,0.051788308,-0.5870854,-0.26899,-16.734034,-1.4716976,-44.368073,
33209300,2.3975139,1.1177301,8.982007,0.17626436,-0.42244893,-0.18451461,-17.411634,-1.8775746,-43.234974,
33209350,3.3415723,1.0473032,10.535953,-0.06017089,0.64840716,0.18321432,-18.089993,-1.2313713,-42.733128,
33209400,2.3626602,-0.08683624,11.219024,-0.042008143,-0.20763855,-0.06643019,-16.246418,0.045071412,-42.02109,56.0
33209450,2.4634967,-0.205362,9.805504,0.122894645,0.02128656,0.02800543,-16.893082,-0.1599884,-41.291935,
33209500,2.4368002,-0.2702101,10.528887,0.07181526,-0.07485347,-0.0402247,-17.755024,0.23829365,-41.410847,60.0
33209550,2.4023051,-0.39896715,9.804853,0.2574907,-0.08396148,-0.09274219,-17.109396,-0.12173023,-40.49298,
33209600,2.1233516,0.08096703,9.448764,0.25642544,-0.28945082,-0.21018751,-17.478441,-0.24526063,-40.50073,
33209650,2.2688775,0.16313194,9.193169,0.11501169,0.07891731,-0.010503848,-18.094501,0.04438858,-40.24083,
33209700,1.740794,-0.25020784,9.480864,0.2148269,0.064163424,-0.0018752143,-17.2332,-0.08485107,-39.877434,
33209750,2.5079458,-0.0838419,8.976136,0.017220508,0.07151373,0.06939092,-17.510065,-0.118535236,-39.88393,
33209800,2.6214516,-0.010340615,10.536712,0.010296293,0.1871481,-0.035910383,-16.895594,-0.020386696,-39.188816,
