Date created: 2021-10-22-22-16-6-642000000
Timestamp,acc_x,acc_y,acc_z,gyro_x,gyro_y,gyro_z,mag_x,mag_y,mag_z,light
33194675,0.49706143,-0.37884507,10.937555,-0.030077195,0.0086099235,-0.0062960587,,,,
33194680,0.48268858,-0.34171516,10.750708,0.0066743963,-0.04678378,-0.005230794,-4.224455,-51.864014,-25.118301,
33194685,0.54377323,-0.35249484,10.51116,0.036501773,-0.08353537,-0.0036328998,,,,
33194690,0.56653035,-0.3405174,10.174595,0.0604702,-0.09685116,-9.697409E-4,-2.9922104,-52.734417,-25.3871,
33194695,0.600067,-0.3788451,9.959002,0.07485126,-0.08779643,0.007552367,,,,
33194700,0.63120824,-0.34291288,9.7278385,0.08177547,-0.069154315,0.01128079,-5.452944,-52.490856,-26.379715,
33194705,0.7246319,-0.34171516,9.616449,0.07272073,-0.05477326,0.011813422,,,,
33194710,0.7533777,-0.29380557,9.4703245,0.055676516,-0.053175364,0.008084999,-3.9146576,-53.913803,-24.467796,
33194715,0.7114568,-0.23511633,9.356539,0.034371246,-0.052642733,0.0070197354,,,,
33194720,0.65636075,-0.14887914,9.217602,0.007207028,-0.04252273,0.0070197354,-5.452074,-52.502438,-27.153381,
33194725,0.59048504,-0.16564748,9.219996,-0.01942456,-0.009499556,0.01128079,,,,
33194730,0.5425755,-0.13809948,9.215206,-0.046588782,0.03311098,0.016607108,-3.2979126,-53.054752,-26.783867,
33194735,0.53538907,-0.118935645,9.333782,-0.07108984,0.073591,0.027792374,,,,
33194740,0.5114343,-0.07581705,9.512245,-0.100384586,0.106614165,0.04110817,-4.068016,-52.76466,-26.342094,
33194745,0.49706143,-0.081805736,9.71586,-0.12168986,0.13164786,0.053891335,,,,
33194750,0.58928734,-0.108155996,9.921873,-0.13500565,0.14815944,0.062946066,-4.221361,-52.628853,-26.966537,
33194755,0.7390048,-0.16325201,10.1374655,-0.1376688,0.15668155,0.065609224,,,,
33194760,0.94980687,-0.19798644,10.420132,-0.1259509,0.15348576,0.061348174,-4.0672016,-52.486057,-27.428658,
33194765,1.0899423,-0.23152316,10.644109,-0.10677617,0.1454963,0.048565015,,,,
33194770,1.1989367,-0.18600905,10.868086,-0.075350896,0.13164786,0.03844501,-3.4528008,-53.911434,-24.76587,
33194775,1.2648124,-0.19678871,10.93516,-0.03700141,0.11194048,0.02939027,,,,
33194780,1.2935581,-0.23272088,10.8968315,8.154468E-4,0.089569956,0.019802896,-3.2984333,-53.047806,-26.319672,
33194785,1.2624168,-0.19559097,10.773465,0.033838615,0.07891732,0.0064871036,,,,
33194790,1.12827,-0.17882262,10.624945,0.06366599,0.0751889,-0.0020350046,-3.3002453,-51.721127,-26.335083,
33194795,1.0132871,-0.08899218,10.494392,0.08443864,0.074123636,-0.0046981634,,,,
33194800,0.8503945,0.008024707,10.411748,0.10095022,0.06826468,9.552261E-5,-4.070471,-51.7189,-25.425674,
33194805,0.71624774,-0.020721033,10.302753,0.110004954,0.052818358,0.008084999,,,,
33194810,0.664745,0.012815654,10.053623,0.10840706,0.03257835,0.016607108,-2.8381157,-53.16968,-25.068703,
33194815,0.66594267,0.02958402,9.864381,0.093493365,0.010740451,0.022466058,,,,
33194820,0.66115165,0.14097378,9.75898,0.07325336,-0.017489033,0.027259743,-5.453081,-51.765392,-27.161942,
33194825,0.65516305,0.24158385,9.70628,0.0503502,-0.049979575,0.03258606,,,,
33194830,0.78930986,0.2487703,9.83803,0.021055454,-0.084068,0.039510276,-2.373579,-54.50557,-26.125023,
33194835,0.87554705,0.21762908,9.935047,0.0018807102,-0.12028696,0.042706065,,,,
33194840,0.8096714,0.15534663,9.984155,-0.006108766,-0.15064697,0.042706065,-2.9911652,-52.748318,-26.315498,
33194845,0.90069956,0.19606976,10.057217,-0.0071740285,-0.17994171,0.044836592,,,,
33194850,1.1869593,0.282307,10.153036,-0.0050435024,-0.22787857,0.04377133,-3.9176693,-50.834427,-25.586884,
33194855,1.3103263,0.27751604,10.064404,2.8281525E-4,-0.28060913,0.036847115,,,,
33194860,1.5486765,0.2942844,10.091951,0.008272292,-0.30830595,0.028325005,-3.451931,-53.923016,-25.539536,
33194865,1.6361115,0.2763183,10.063206,0.023718612,-0.32907858,0.016074475,,,,
33194870,1.6744392,0.32422787,9.730234,0.030110193,-0.3407965,0.0070197354,-4.5290966,-53.211575,-26.193619,
33194875,1.7367215,0.36016005,9.320606,0.024251245,-0.31096914,6.281544E-4,,,,
33194880,1.840925,0.41046512,9.0595,2.8281525E-4,-0.25451016,-0.0068286904,-2.9918613,-52.73905,-25.696564,
33194885,1.964292,0.45238596,8.950506,-0.035403512,-0.20604067,-0.01801396,,,,
33194890,2.001422,0.44280407,8.9157715,-0.07322037,-0.15490802,-0.028666591,-4.222851,-53.911526,-24.0112,
33194895,1.9894446,0.3889058,8.931341,-0.10837407,-0.0856659,-0.03452554,,,,
33194900,1.9199756,0.34578717,9.121782,-0.13500565,-0.012695347,-0.0355908,-3.9137516,-53.202236,-26.178421,
33194905,1.8181678,0.35057813,9.448765,-0.14672354,0.049622566,-0.03452554,,,,
33194910,1.7331283,0.35177588,9.677534,-0.15737617,0.09436364,-0.036656067,-2.8409367,-51.105957,-25.092667,
33194915,1.6229362,0.2427816,9.9458275,-0.1658983,0.1188647,-0.036123432,,,,
33194920,1.5702357,0.20445395,10.192562,-0.17069197,0.13004997,-0.029731857,-4.2224216,-51.60162,-27.287994,
33194925,1.5654448,0.1385783,10.405759,-0.16962671,0.1305826,-0.023340276,,,,
33194930,1.5750268,0.10025063,10.617759,-0.1493867,0.12845208,-0.013752902,-4.223118,-51.592354,-26.66906,
33194935,1.6588686,0.016408876,10.799814,-0.12808144,0.12685417,-0.0100244805,,,,
33194940,1.794213,-0.07342157,10.96151,-0.10198248,0.12632155,-0.014285535,-3.6076717,-53.031628,-24.934677,
33194945,1.9319531,-0.16564748,11.197464,-0.06469826,0.1188647,-0.024938168,,,,
33194950,1.969083,-0.2423028,11.401081,-0.021555087,0.09862469,-0.045710806,-2.8386574,-52.1494,-25.854347,
33194955,2.0253768,-0.25428018,11.441803,0.018924925,0.06826468,-0.06701609,,,,
33194960,2.0505292,-0.22912768,11.284899,0.061002832,0.03896993,-0.0856582,-3.4544048,-51.863922,-25.87297,
33194965,2.019388,-0.28661913,11.093262,0.093493365,0.01713203,-0.108028725,,,,
33194970,2.006213,-0.2339186,10.851317,0.11639654,0.010207819,-0.12560557,-4.2199516,-53.660713,-26.954552,
33194975,1.9151847,-0.2027774,10.743521,0.1392997,0.017664662,-0.14264978,,,,
33194980,1.821761,-0.1692407,10.698008,0.16007236,0.030447824,-0.16075927,-3.3012905,-51.707226,-25.406677,
33194985,1.7942129,-0.15367009,10.596199,0.17977972,0.037904665,-0.17620559,,,,
33194990,1.6624618,-0.105760545,10.560267,0.19362815,0.034176245,-0.18685822,-4.2227707,-51.596985,-26.978523,
33194995,1.5822132,-0.048269033,10.541103,0.20268288,0.028317297,-0.19431508,,,,
33195000,1.5882019,-0.081805736,10.4476795,0.21067236,0.018729925,-0.20123929,-3.6046963,-54.084343,-26.315285,
33195005,1.5127443,-0.07461929,10.386595,0.21386816,0.009675187,-0.21135928,,,,
33195010,1.5019647,-0.0650374,10.305149,0.21333553,-0.0015100804,-0.22414245,-3.9155655,-51.875557,-26.193832,
33195015,1.3390721,0.021199837,10.260832,0.21067236,-0.019086929,-0.2353277,,,,
33195020,1.1654,0.06551619,10.270414,0.20215026,-0.038261674,-0.23799087,-4.5309105,-51.884895,-26.20903,
33195025,1.0755695,0.05593428,10.155432,0.19842182,-0.053707995,-0.23958877,,,,
33195030,1.0276599,0.13019413,10.000923,0.19735657,-0.05583852,-0.23372982,-2.8390598,-51.854584,-25.857773,
33195035,0.9821458,0.19606978,9.924268,0.19895446,-0.038261674,-0.22201191,,,,
33195040,0.9486091,0.2703296,9.931454,0.19575869,-0.01056482,-0.20922875,-3.1453228,-52.891113,-25.853386,
33195045,0.8995018,0.34219396,10.100335,0.18989973,0.019795189,-0.19591296,,,,
33195050,0.8923153,0.34219396,10.284787,0.19256288,0.041100457,-0.18579297,-3.4521255,-52.907364,-26.634651,
33195055,0.8995018,0.31704146,10.490798,0.20694394,0.052285723,-0.17780347,,,,
33195060,0.89830405,0.28949344,10.736335,0.231445,0.051753093,-0.17727086,-4.529848,-52.912125,-25.88758,
33195065,0.90549046,0.3218324,10.852516,0.26926187,0.037372034,-0.17673822,,,,
33195070,0.91866565,0.27272508,10.748312,0.30388293,0.015001505,-0.17993401,-5.452944,-52.490856,-26.379715,
33195075,0.9821458,0.23918839,10.387793,0.31826398,-0.015358507,-0.18792349,,,,
33195080,1.0156826,0.18289465,10.067997,0.31133977,-0.04891431,-0.20017402,-3.2993412,-53.75937,-24.609047,
33195085,1.0013096,0.25954995,9.798505,0.29429555,-0.07448063,-0.21775086,,,,
33195090,0.94381815,0.29308665,9.549376,,,,-3.4540024,-52.158737,-25.869545,
33195095,0.74738896,0.33860075,9.410438,0.27245766,-0.084600635,-0.23266454,,,,
33195100,0.627615,0.34339172,9.30863,0.24848923,-0.07927432,-0.23586035,-1.2974129,-53.611725,-26.572899,
33195105,0.46472248,0.39489448,9.336178,0.22771658,-0.06276273,-0.23159929,,,,
33195110,0.30063218,0.43082666,9.381692,0.211205,-0.03346799,-0.21721822,-4.069372,-52.02298,-26.041183,
33195115,0.16888086,0.44879276,9.518234,0.20001973,0.0027509737,-0.19378243,,,,
33195120,0.11138937,0.46077013,9.675138,0.19575869,0.04269835,-0.16448769,-2.223341,-51.994965,-25.99559,
33195125,0.08024818,0.4260357,9.763771,0.20108499,0.0751889,-0.13359503,,,,
33195130,0.06707303,0.41405833,9.817669,0.21227026,0.10980996,-0.100571886,-1.9157696,-53.291504,-24.270523,
33195135,0.11857581,0.30745953,9.8931265,0.23890185,0.15028998,-0.069679245,,,,
33195140,0.18445146,0.2763183,9.967386,0.26926187,0.19023734,-0.045178175,-4.222925,-52.60801,-25.573936,
33195145,0.20840627,0.26913187,10.094347,0.2985566,0.21367316,-0.02760133,,,,
33195150,0.22397688,0.254759,10.187771,0.32572085,0.21740158,-0.019611852,-2.2253094,-51.679302,-24.606415,
33195155,0.21798816,0.26553863,10.250052,0.35501558,0.19556367,-0.019079221,,,,
33195160,0.15690346,0.28350472,10.275206,0.3843103,0.1577468,-0.026536064,-1.9157696,-53.291504,-24.270523,
33195165,0.12935546,0.36974198,10.33629,0.40987664,0.10182048,-0.043047648,,,,
33195170,0.06228207,0.39728996,10.2249,0.4413019,0.027784664,-0.060091868,-3.3014088,-51.995094,-24.939056,
33195175,0.05030468,0.5050865,10.006911,0.47539034,-0.060099576,-0.07394029,,,,
33195180,0.015570253,0.65121067,9.677534,0.49722826,-0.14798382,-0.0856582,-3.6074257,-54.337463,-23.526665,
33195185,-0.016768724,0.81410325,9.209217,0.51160926,-0.22574805,-0.094712935,,,,
33195190,-0.06467829,0.98777544,8.728924,0.50734824,-0.28433755,-0.09790872,-2.3758945,-54.185272,-24.426376,
33195195,-0.02036193,1.1111426,8.304924,0.4849777,-0.3173607,-0.09897399,,,,
33195200,0.0011973679,1.1518657,7.9324274,0.44343245,-0.32588282,-0.09204978,-3.9146576,-53.913803,-24.467796,
33195205,0.01916346,1.1937866,7.7587547,0.38484293,-0.3056428,-0.082995035,,,,
33195210,0.010779291,1.2273233,7.7970824,0.32092714,-0.2630323,-0.07394029,-4.2227974,-54.201706,-23.698303,
33195215,-0.014373235,1.2824192,7.9132633,0.25541344,-0.20497541,-0.059559226,,,,
33195220,0.062282085,1.2213346,8.074959,0.20001973,-0.13626592,-0.04358028,-2.8392162,-52.865597,-24.453186,
33195225,0.12216905,1.2081594,8.282167,0.15208288,-0.069154315,-0.029199222,,,,
33195230,0.25392035,1.1303064,8.5923815,0.111070216,-0.012162715,-0.023872906,-2.377222,-53.58869,-23.969032,
33195235,0.30063218,1.0189166,8.9289465,0.07857968,0.03311098,-0.024405537,,,,
33195240,0.29703897,0.9722048,9.312223,0.061535466,0.07039521,-0.030797118,-2.992485,-54.03331,-23.514893,
33195245,0.26829326,0.90273595,9.66316,0.055676516,0.093298376,-0.045710806,,,,
33195250,0.17127635,0.88476986,9.9194765,0.06419863,0.09489627,-0.06115713,-3.6081753,-54.038017,-23.22062,
33195255,0.06467757,0.9302839,10.0117035,0.08710179,0.081580475,-0.07766872,,,,
33195260,-0.046712197,0.96980935,9.863183,0.12012496,0.05761204,-0.089919254,-3.9147758,-54.20167,-24.000175,
33195265,-0.12216977,1.0141256,9.598482,0.14995235,0.028317297,-0.09418031,,,,
33195270,-0.03593255,1.0536511,9.102618,0.16806182,0.0027509737,-0.09790872,-4.2230453,-52.895874,-25.106316,
33195275,0.041920513,1.1123403,8.625918,0.15794182,-0.016956402,-0.10430031,,,,
33195280,0.045513734,1.1590521,8.389963,0.11959233,-0.024413245,-0.11388768,-3.147005,-53.15814,-23.993164,
33195285,0.058688864,1.1818092,8.289353,0.06366599,-0.018021666,-0.121344514,,,,
33195290,0.044315994,1.1446793,8.218687,0.0034786055,-0.005771134,-0.1309319,-4.0718975,-52.42352,-23.250854,
33195295,-3.5762787E-7,1.1590521,8.249828,-0.050849836,0.013403608,-0.13998663,,,,
33195300,-0.100610465,1.1291087,8.393557,-0.10198248,0.029915193,-0.14478031,-2.53232,-52.416386,-24.295998,
33195305,-0.20960474,1.131504,8.581602,-0.14832145,0.04216572,-0.1479761,,,,
33195310,-0.36531085,1.118329,8.809172,-0.18240987,0.049089935,-0.14584558,-2.5323296,-53.28463,-23.202583,
33195315,-0.49346894,1.118329,8.968472,-0.21117198,0.052818358,-0.13838872,,,,
33195320,-0.6671411,1.0704194,9.1074095,-0.23727094,0.05761204,-0.12454032,-2.0691452,-53.87884,-23.958008,
33195325,-0.80248564,1.0488601,9.173285,-0.25058672,0.07305837,-0.10376768,,,,
33195330,-0.9426212,1.0943742,9.217602,-0.26177198,0.0954289,-0.073407665,-2.9935474,-53.006073,-23.836342,
33195335,-0.99412394,1.1386905,9.290664,-0.27402255,0.11566891,-0.03452554,,,,
33195340,-0.91507316,1.1147358,9.433194,-0.2852078,0.13164786,0.0064871036,-1.9149723,-54.749382,-23.170265,
33195345,-0.7581693,0.9614252,9.500268,-0.29639307,0.14922471,0.045901854,,,,
33195350,-0.5832994,0.9063291,9.390076,-0.30438256,0.18491104,0.07892502,-3.455183,-54.169186,-22.286713,
33195355,-0.40244076,0.86560607,9.7278385,-0.30757833,0.24243528,0.10662187,,,,
33195360,-0.2515256,0.755414,9.966188,-0.2947952,0.28877422,0.13112293,-2.531725,-53.726852,-23.197449,
33195365,-0.06946924,0.66438586,10.169804,-0.27934885,0.31647107,0.14923242,,,,
33195370,0.043118253,0.59851015,10.3818035,-0.25591305,0.3404395,0.155624,-2.531725,-53.726852,-23.197449,
33195375,0.06587529,0.5266458,10.595001,-0.21756357,0.3553532,0.15349348,,,,
33195380,0.040722772,0.5290413,10.826165,-0.17069197,0.3558858,0.15029767,-0.68538284,-54.426617,-22.524368,
33195385,0.040722772,0.5386232,11.00942,-0.1259509,0.32978687,0.1439061,,,,
33195390,0.029943109,0.54101866,11.105238,-0.07961195,0.2797195,0.13591662,-4.686493,-52.732304,-23.572098,
33195395,0.016767979,0.55898476,11.036967,-0.039131936,0.20887947,0.12579663,,,,
33195400,0.031140864,0.59611464,10.736335,-0.0103698205,0.11992996,0.11727451,-1.9187164,-52.383884,-22.733467,
33195405,0.085039124,0.64522195,10.375815,-0.006108766,0.016066767,0.10289345,,,,
33195410,0.2587113,0.585335,10.035658,-0.027414037,-0.09844906,0.08638187,-2.072525,-52.531315,-22.580818,
33195415,0.56413484,0.44999048,9.723047,-0.060437202,-0.20444278,0.061348174,,,,
33195420,0.8216488,0.33979848,9.3649235,-0.10251512,-0.28114173,0.028857639,-2.378788,-53.567844,-22.576431,
33195425,0.9090837,0.33261204,9.230776,-0.14512564,-0.30830595,-0.0068286904,,,,
33195430,0.9054905,0.3230301,9.269104,-0.18507303,-0.29126176,-0.03505817,-2.0711975,-53.127895,-23.038162,
33195435,0.8863267,0.33500755,9.471521,-0.21170463,-0.24811858,-0.05370028,,,,
33195440,0.7569709,0.40208092,9.794912,-0.22448778,-0.18846382,-0.06595082,-2.224577,-53.715233,-22.725655,
33195445,0.5916828,0.44519955,10.174595,-0.22448778,-0.12934169,-0.07180977,,,,
33195450,0.4910727,0.49191135,10.430911,-0.20691094,-0.07607853,-0.067548715,-2.0734787,-52.08445,-22.276482,
33195455,0.4359767,0.5266458,10.515951,-0.17495301,-0.024413245,-0.05370028,,,,
33195460,0.44316316,0.51706386,10.578234,-0.13394038,0.02618677,-0.039319225,-3.609045,-54.026436,-22.446953,
33195465,0.4886773,0.49790007,10.544697,-0.09132985,0.07092784,-0.026536064,,,,
33195470,0.48268855,0.45957243,10.508764,-0.05298036,0.102885745,-0.01801396,-1.915842,-54.7378,-22.396599,
33195475,0.49227047,0.4260357,10.524336,-0.019957192,0.11300575,-0.014818165,,,,68.0
33195480,0.5186207,0.4044764,10.529126,0.002413342,0.102885745,-0.01854659,-3.14892,-53.132656,-22.291092,
33195485,0.5234117,0.3709397,10.605781,0.019457558,0.07465626,-0.023872906,,,,
33195490,0.55335516,0.29308665,10.650098,0.04502388,0.03311098,-0.036656067,-2.8407822,-52.84475,-23.060585,
33195495,0.57371676,0.2918889,10.642911,0.06632915,-0.017489033,-0.051569756,,,,
33195500,0.59168285,0.30626178,10.499183,0.090830214,-0.07341537,-0.067548715,-2.072874,-52.52668,-22.271347,
33195505,0.6683382,0.32063466,10.297962,0.114266016,-0.12827644,-0.08352766,,,,
33195510,0.75936633,0.3829171,10.041645,0.1275818,-0.16662592,-0.09897399,-3.456997,-52.842506,-22.302116,
33195515,0.7749369,0.4499905,9.818867,0.13823445,-0.18100697,-0.11228978,,,,
33195520,0.7282251,0.4775385,9.549376,0.1424955,-0.16875646,-0.12613821,-2.9954052,-53.270786,-21.821388,
33195525,0.6515698,0.59611464,9.427206,0.13450603,-0.1325375,-0.13519295,,,,
33195530,0.57132125,0.7458321,9.500267,0.11639654,-0.092057474,-0.14318241,-2.2256203,-53.701336,-21.797256,
33195535,0.5138298,0.8512331,9.684719,0.10467864,-0.06595852,-0.1479761,,,,
33195540,0.41801062,0.9446568,9.865579,0.09828705,-0.04944694,-0.15276979,-2.2258778,-53.263744,-22.111855,
33195545,0.31620276,1.0488601,9.978166,0.10254811,-0.052110102,-0.15383504,,,,
33195550,0.24433842,1.1003629,10.096743,0.111070216,-0.07341537,-0.15330242,-1.3025379,-53.109276,-22.55497,
33195555,0.25990903,1.1386905,10.099137,0.12332074,-0.10803643,-0.15543294,,,,
33195560,0.2155927,1.2105548,10.0847645,0.13290812,-0.14532065,-0.1580961,-2.8378048,-53.89746,-24.4412,
33195565,0.1425306,1.256069,10.02368,0.14622392,-0.17994171,-0.16022663,,,,
33195570,0.10779616,1.3195492,9.955408,0.15687655,-0.20497541,-0.15862873,-2.226736,-52.383923,-22.431595,
33195575,0.049106956,1.3782384,9.873962,0.16486605,-0.22308488,-0.15490033,,,,
33195580,0.022756673,1.4165661,9.778143,0.17498603,-0.22947647,-0.14584558,-2.5356255,-52.372375,-21.356056,
33195585,-0.022757411,1.4932215,9.744607,0.17871445,-0.22947647,-0.12720346,,,,
33195590,-0.02036193,1.5555038,9.782934,0.17871445,-0.22255227,-0.10270241,-2.0706577,-54.148174,-22.252518,
33195595,0.040722758,1.5854473,9.817669,0.18457341,-0.20976909,-0.07660346,,,,
33195600,0.16648538,1.5626903,9.794912,0.19416077,-0.18420278,-0.05370028,-3.1491299,-53.85349,-21.19941,
33195605,0.33895984,1.554306,9.721849,0.20534605,-0.14958172,-0.03452554,,,,
33195610,0.4934682,1.5459218,9.6883135,0.2165313,-0.115493275,-0.022807645,-3.458004,-52.10546,-22.310677,
33195615,0.70666575,1.545922,9.527817,0.2165313,-0.084068,-0.023340276,,,,
33195620,0.9557955,1.4908259,9.374506,0.20161763,-0.056903787,-0.03878659,-2.0739803,-53.090836,-20.562431,
33195625,1.1390496,1.4836395,9.303839,0.17551868,-0.027076406,-0.0723424,,,,
33195630,1.1689931,1.4944191,9.362528,0.13716918,0.004348869,-0.116018206,-2.5372562,-52.92958,-19.182945,61.0
33195635,1.0108916,1.5698768,9.739816,0.09828705,0.022990981,-0.15969402,,,,
33195640,0.7821234,1.6321591,10.174595,0.07911231,0.018197294,-0.1964456,-4.0735283,-52.980724,-21.077744,
33195645,0.6252195,1.6381478,10.583025,0.07591652,-0.0052385023,-0.2236098,,,,
33195650,0.42759255,1.6525207,10.951928,0.0924281,-0.04252273,-0.23958877,-1.9198799,-52.657852,-21.337433,
33195655,0.31260955,1.6908484,11.192673,0.12278812,-0.092057474,-0.2502414,,,,
33195660,0.22637235,1.7100122,11.256154,0.16113761,-0.14958172,-0.25450248,-2.074438,-52.505836,-20.878746,
33195665,0.20241758,1.7950517,11.18429,0.19522604,-0.21083435,-0.25290456,,,,
33195670,0.2155927,1.7663059,10.906414,0.2245208,-0.26090175,-0.24225192,-2.539013,-51.893085,-18.885468,
33195675,0.2730842,1.7040235,10.553081,0.2447608,-0.2870007,-0.23000139,,,,
33195680,0.3677056,1.6680913,10.226098,0.25434816,-0.27581546,-0.2182835,-4.0739956,-53.263966,-20.300652,
33195685,0.35572824,1.6082044,10.048832,0.25221762,-0.22095436,-0.20390244,,,,
33195690,0.30901638,1.5638881,9.953013,0.24049973,-0.14585328,-0.18898875,-3.6133404,-54.25871,-18.265732,
33195695,0.28985256,1.4980124,9.94463,0.22878185,-0.06542589,-0.17034665,,,,
33195700,0.34255305,1.3674588,10.062008,0.20907448,0.00754466,-0.14850874,-3.150751,-53.542458,-20.119698,
33195705,0.4359767,1.2057639,10.30994,0.19522604,0.06347099,-0.1309319,,,,
33195710,0.54616874,1.0273008,10.633329,0.18191025,0.102885745,-0.12027926,-2.8434277,-53.533154,-19.802628,
33195715,0.5617394,0.95184326,11.080086,0.17392078,0.12259312,-0.116018206,,,,
33195720,0.52820265,0.9027359,11.486119,0.18084498,0.114603646,-0.12027926,-3.152666,-53.516975,-18.417625,
33195725,0.5270049,0.8512332,11.702909,0.19149762,0.07891732,-0.12933399,,,,
33195730,0.5832986,0.8045213,11.717283,0.20161763,0.022990981,-0.13732347,-3.3064365,-52.941254,-19.201942,
33195735,0.6898974,0.77457786,11.717283,0.20854184,-0.04412062,-0.14850874,,,,
33195740,0.81805557,0.7122954,11.737644,0.21599868,-0.111764856,-0.16768348,-2.9969902,-54.986416,-18.241974,
33195745,0.9426204,0.7590072,11.683746,0.22185764,-0.17408277,-0.18898875,,,,
33195750,0.9294453,0.77697337,11.616673,0.23037975,-0.21935646,-0.21562034,-2.535324,-53.9684,-19.635162,
33195755,0.96417975,0.87878114,11.668176,0.23517343,-0.25451016,-0.24491507,,,,
33195760,0.89351314,0.95543647,11.528041,0.24049973,-0.29232702,-0.27953616,-3.4639168,-52.02671,-17.049751,
33195765,0.7905075,1.1243176,11.496899,0.2431629,-0.3237523,-0.30670038,,,,
33195770,0.61683536,1.2069618,11.361555,0.241565,-0.35517758,-0.32800564,-3.460804,-53.804882,-17.648132,
33195775,0.4587338,1.3063741,11.076492,0.23623869,-0.37488493,-0.33333197,,,,
33195780,0.3257847,1.3255379,10.698008,0.21706395,-0.37381968,-0.32853827,-4.2309914,-53.07951,-17.67569,56.0
33195785,0.1880447,1.3195493,10.338685,0.17818183,-0.3477207,-0.3125593,,,,
33195790,0.09821424,1.3075719,9.99733,0.124918655,-0.29712072,-0.28592774,-3.3063164,-52.653385,-19.66957,
33195795,0.016767979,1.2261255,9.726641,0.05354599,-0.23054174,-0.24651298,,,,
33195800,0.07306172,1.1338997,9.542189,-0.035936143,-0.15544066,-0.2017719,-3.6135502,-54.97954,-17.174042,
33195805,0.17846279,1.0045438,9.572132,-0.14565828,-0.079806946,-0.15756346,,,,
33195810,0.23355877,0.8069168,9.812878,-0.26123938,-0.0031079757,-0.11388768,-3.3088055,-52.330776,-17.816193,
33195815,0.2587113,0.5781486,10.210527,-0.36297202,0.074123636,-0.067548715,,,,
33195820,0.3497395,0.37453294,10.644109,-0.44499734,0.14176786,-0.021209748,-3.3086967,-52.911144,-17.190414,
33195825,0.48628178,0.1385783,11.113623,-0.50838053,0.19556367,0.019270265,,,,
33195830,0.57850766,-0.106958255,11.557983,-0.5456647,0.23178263,0.058152385,-3.4631577,-51.457916,-18.449196,
33195835,0.7461912,-0.2973988,12.049057,-0.56910056,0.24350053,0.08904502,,,,
33195840,0.930643,-0.5046077,12.487431,-0.5781553,0.23710895,0.111948185,-2.5415401,-52.29362,-16.095123,
33195845,1.155818,-0.7824832,12.773689,-0.56590474,0.22698896,0.12686189,,,,
33195850,1.3989592,-1.081918,13.012039,-0.5280879,0.22379315,0.13165557,-4.077986,-52.34245,-17.83519,
33195855,1.5893996,-1.3274546,13.168943,-0.47908577,0.22592367,0.12579663,,,,
33195860,1.6708459,-1.4328556,13.304288,-0.41996363,0.22326052,0.10768713,-3.3117828,-51.278065,-16.435577,
33195865,1.7439079,-1.5322679,13.368965,-0.35178676,0.20834683,0.07999028,,,,
33195870,1.8049927,-1.6388668,13.419271,-0.28254464,0.16946472,0.051228173,-3.3107033,-50.568813,-18.300934,
33195875,1.8756595,-1.6963582,13.316265,-0.2180962,0.09649416,0.015541843,,,,
33195880,1.9714783,-1.6999514,12.944965,-0.17548566,-0.008434293,-0.023872906,-3.926834,-51.001854,-17.073128,52.0
33195885,2.0577154,-1.7239062,12.481441,-0.15204987,-0.12774381,-0.069679245,,,,
33195890,2.1774895,-1.7167199,11.96282,-0.14406039,-0.23693332,-0.11708347,-2.8493767,-51.427734,-17.041397,
33195895,2.2876816,-1.6640193,11.372334,-0.15151723,-0.33120912,-0.16182454,,,,
33195900,2.2876816,-1.5885618,10.762685,-0.18454039,-0.39352706,-0.19857612,-4.078472,-51.61235,-18.307945,
33195905,2.2900772,-1.4879516,10.217714,-0.23300989,-0.41536495,-0.22787087,,,,
33195910,2.2002468,-1.3034997,9.816471,-0.28733835,-0.3828744,-0.24171929,-3.4655914,-51.42549,-16.282928,
33195915,2.0409474,-1.1262343,9.620042,-0.33953625,-0.2885986,-0.24491507,,,,
33195920,1.8349363,-0.96094626,9.657171,-0.37522256,-0.1543754,-0.23479508,-5.7715397,-51.62645,-17.576073,
33195925,1.6085634,-0.8495565,9.861986,-0.39333203,-0.0041732388,-0.21135928,,,,
33195930,1.463637,-0.76212156,10.278798,-0.389071,0.13644154,-0.17833611,-5.1568527,-50.8847,-17.878906,
33195935,1.2612191,-0.66151154,10.769873,-0.3640373,0.25681633,-0.14211716,,,,
33195940,1.0791626,-0.59803134,11.240582,-0.32089412,0.34416792,-0.109093994,-3.9254246,-52.033714,-17.06115,
33195945,0.9486091,-0.5213761,11.637035,-0.2548478,0.3958332,-0.079266615,,,,
33195950,0.8671629,-0.46029136,11.8610115,-0.17495301,0.4075511,-0.056896076,-5.1598854,-49.541805,-16.81118,
33195955,0.8743493,-0.43513882,11.85622,-0.094525635,0.3851806,-0.041982386,,,,
33195960,0.9581911,-0.3740541,11.712492,-0.024750877,0.3319174,-0.03186238,-4.542948,-49.698402,-18.032135,
33195965,1.0599989,-0.37285638,11.562775,0.036501773,0.25788158,-0.025470803,,,,
33195970,1.2384621,-0.3896247,11.356764,0.0855039,0.17052998,-0.024405537,-4.2353764,-50.99494,-16.30706,
33195975,1.3570381,-0.3764496,11.0022335,0.121722855,0.09010258,-0.033460274,,,,
33195980,1.4672303,-0.2854214,10.587814,0.14196287,0.023523612,-0.045178175,-3.6170197,-51.315163,-18.609444,46.0
33195985,1.5343037,-0.18481131,10.173397,0.15634394,-0.02547851,-0.059559226,,,,
33195990,1.5630493,-0.103365034,9.829646,0.16060498,-0.051577467,-0.0723424,-5.160179,-49.827354,-16.18882,
33195995,1.684021,-0.065037385,9.475115,0.1542134,-0.053175364,-0.085125566,,,,
33196000,1.8828458,-0.10096957,9.155319,0.13770181,-0.030272195,-0.10163715,-5.3146,-50.400795,-14.9479065,
33196005,2.0505292,-0.103365034,8.899003,0.11533128,0.02032782,-0.12773609,,,,
33196010,2.0864615,-0.025511995,8.799591,0.08763442,0.08743942,-0.15916137,-3.932602,-48.03051,-15.560036,
33196015,1.9451281,0.07150489,8.865466,0.061535466,0.15348576,-0.18739085,,,,
33196020,1.7594786,0.17810369,8.974461,0.034903876,0.20088999,-0.20390244,-3.3148956,-49.499893,-15.837189,
33196025,1.5450833,0.282307,9.053511,0.012533346,0.22752157,-0.21135928,,,,
33196030,1.3318857,0.33261204,9.172088,-0.0077066612,0.23391315,-0.20816348,-3.6225681,-49.504562,-15.844788,
33196035,1.173784,0.41405833,9.140946,-0.026348772,0.21899946,-0.20070665,,,,
33196040,1.1079085,0.5218549,9.09663,-0.04978457,0.19556367,-0.18739085,-3.929781,-50.094234,-15.536072,
33196045,1.0396373,0.50269103,8.98524,-0.071622476,0.16893208,-0.17300978,,,,
33196050,0.9917277,0.46316564,8.889421,-0.09878669,0.14496365,-0.1612919,-4.0835915,-50.24166,-15.383423,
33196055,1.0288576,0.452386,8.634302,-0.13394038,0.12685417,-0.149574,,,,
33196060,1.1162927,0.42723346,8.403139,-0.18081197,0.12312575,-0.14531295,-6.238184,-49.249428,-15.912804,
33196065,1.1869593,0.30985498,8.255817,-0.23407516,0.14016996,-0.14371505,,,,
33196070,1.225287,0.25715446,8.255817,-0.2804141,0.1710626,-0.14051926,-5.92803,-50.43561,-16.665176,
33196075,1.1618066,0.20684943,8.514528,-0.31077412,0.21260789,-0.13572557,,,,
33196080,1.0839536,0.10743707,8.988833,-0.31982887,0.24776158,-0.12986661,-5.92803,-50.43561,-16.665176,
33196085,0.98214585,0.07030715,9.402054,-0.31237203,0.2680016,-0.12560557,,,,
33196090,0.87914026,0.07150489,9.798506,-0.28733835,0.2733279,-0.11921399,-4.544256,-50.115154,-16.324936,
33196095,0.7485867,0.1086348,10.133873,-0.2468583,0.25788158,-0.11335504,,,,
33196100,0.6348014,0.12779863,10.330301,-0.19412777,0.22326052,-0.105365574,-5.778488,-47.915745,-15.916817,
33196105,0.549762,0.13258958,10.398572,-0.14033195,0.18011735,-0.09524557,,,,
33196110,0.61084664,0.16612628,10.387793,-0.08653616,0.12898469,-0.08832135,-4.2384605,-49.36186,-15.552231,
33196115,0.6383947,0.18529011,10.239273,-0.035403512,0.08051521,-0.08725609,,,,
33196120,0.595276,0.17091724,10.048832,0.01359861,0.04429625,-0.08832135,-4.546829,-49.35726,-14.940895,
33196125,0.56653035,0.24637482,9.857194,0.054611254,0.015001505,-0.08832135,,,,
33196130,0.5186207,0.27512056,9.639206,0.08923232,-0.016423771,-0.08459293,-5.0067177,-49.675293,-16.031998,42.0
33196135,0.5485642,0.2703296,9.30863,0.11320074,-0.045185886,-0.079266615,,,,
33196140,0.6084511,0.254759,8.986438,0.12278812,-0.071817465,-0.07500556,-5.934822,-45.713894,-16.410492,
33196145,0.7042703,0.28350472,8.6846075,0.11799443,-0.09312274,-0.07180977,,,,
33196150,0.80847365,0.35776457,8.449851,0.107341796,-0.100046955,-0.06701609,-5.6243305,-47.77295,-16.378922,
33196155,0.85279,0.40327868,8.355228,0.09296074,-0.09099221,-0.067548715,,,,
33196160,0.8096714,0.42843118,8.29175,0.07804705,-0.071817465,-0.073407665,-5.9339256,-48.62038,-13.591057,
33196165,0.7713437,0.4990978,8.257015,0.061002832,-0.046251148,-0.07021188,,,,
33196170,0.8060782,0.5757531,8.326485,0.042893354,-0.03453325,-0.07074451,-5.932873,-47.766037,-15.612854,
33196175,0.765355,0.6571994,8.443862,0.030110193,-0.029206932,-0.069679245,,,,
33196180,0.7665528,0.69313157,8.483387,0.028512299,-0.017489033,-0.06488556,-6.3931084,-48.079445,-16.394493,
33196185,0.7318183,0.705109,8.560043,0.033838615,-4.4481683E-4,-0.05370028,,,,
33196190,0.6934906,0.7626004,8.742099,0.047154408,0.013403608,-0.043047648,-5.6260166,-48.039974,-14.5187,
33196195,0.65995395,0.865606,8.775637,0.07272073,0.026719403,-0.02813396,,,,
33196200,0.65875626,0.897945,8.919365,0.09615653,0.0384373,-0.016948694,-5.3140965,-49.394413,-16.661964,
33196205,0.6300105,0.92549294,8.985239,0.1291797,0.036306772,-0.008959216,,,,
33196210,0.6288128,0.93387717,9.155319,0.16699657,0.018197294,-0.0025676363,-5.9341736,-47.31455,-14.999062,
33196215,0.65276754,0.89914274,9.381692,0.21706395,-0.01056482,9.552261E-5,,,,
33196220,0.7126545,0.89914274,9.489489,0.2767187,-0.047849048,0.0043565766,-5.781931,-47.14627,-13.759102,
33196225,0.7785302,0.94585454,9.445171,,,,,,,
33196230,0.88153577,0.92788845,9.216404,0.34010187,-0.08886169,0.0064871036,-5.931547,-48.36262,-16.070206,
33196235,1.0611966,0.99496186,8.969669,0.39975664,-0.12295012,0.0038239448,,,,
33196240,1.1234791,0.9506455,8.594777,0.4492914,-0.14212486,-0.0036328998,-6.3928604,-49.385277,-14.986488,
33196245,1.1426429,1.0069393,8.290551,0.4849777,-0.14425538,-0.012155008,,,,
33196250,1.1342587,1.1279109,8.07975,0.5014893,-0.12614591,-0.016948694,-5.1648827,-47.883244,-14.354286,
33196255,1.0767672,1.2692442,8.003094,0.49722826,-0.10111222,-0.017481325,,,,
33196260,1.0516148,1.3962045,7.942009,0.4849777,-0.0622301,-0.014285535,-7.4735603,-48.337326,-12.858803,
33196265,1.0947332,1.4273458,7.9336247,0.4647377,-0.026011143,-0.007361322,,,,
33196270,1.1989367,1.4656734,8.041422,0.4327798,6.204467E-4,-9.697409E-4,-5.780712,-47.162487,-14.842239,
33196275,1.293558,1.5040011,8.198326,0.3976261,0.009675187,-9.697409E-4,,,,
33196280,1.3594338,1.463278,8.435478,0.36247241,0.005414132,-0.008959216,-5.6277733,-47.003475,-14.221222,
33196285,1.436089,1.4752553,8.645082,0.33051452,-0.014825874,-0.02174238,,,,
33196290,1.4612415,1.4189615,8.797195,0.30601344,-0.044653255,-0.03772133,-5.472849,-48.173462,-13.739517,
33196295,1.463637,1.3746452,8.936132,0.28896922,-0.0723501,-0.0590266,,,,
33196300,1.4049478,1.3698542,9.0547085,0.28151238,-0.09365538,-0.079266615,-5.4752846,-48.141033,-11.573257,
33196305,1.3139195,1.3722498,9.139748,0.27938184,-0.109634325,-0.100571886,,,,
33196310,1.1893548,1.4249502,9.231974,0.28097975,-0.116558544,-0.11548557,-5.012184,-48.299973,-12.798012,
33196315,1.0444283,1.4548938,9.277489,0.28470817,-0.11336275,-0.12347505,,,,
33196320,0.9414227,1.4501028,9.3242,0.28417554,-0.11229749,-0.118681364,-5.6273327,-49.324963,-11.718094,
33196325,0.87914026,1.384227,9.445171,0.28044713,-0.111764856,-0.11228978,,,,
33196330,0.82763743,1.3351198,9.521828,0.27245766,-0.109634325,-0.10483294,-6.7038383,-49.345936,-12.054161,
33196335,0.78930974,1.3327243,9.624832,0.26020712,-0.11229749,-0.09790872,,,,
33196340,0.84799904,1.2261255,9.682324,0.24103238,-0.12135222,-0.088853985,-7.012802,-48.030876,-12.541359,
33196345,0.8563832,1.1758205,9.78533,0.21440078,-0.14691855,-0.08192977,,,,
33196350,0.77014595,1.183007,9.614053,0.18989973,-0.16396277,-0.085125566,-5.16514,-50.195465,-11.2322235,
33196355,0.60725343,1.1901934,10.081171,0.17285551,-0.12401538,-0.07660346,,,,
33196360,0.5162252,1.1770182,10.482414,0.1627355,-0.0707522,-0.051569756,-6.705652,-48.019257,-12.069565,
33196365,0.4443609,1.2165437,10.864492,0.16752918,-0.026543774,-0.017481325,,,,
33196370,0.4683157,1.278826,11.166323,0.1829755,0.011805714,0.021400793,-5.474415,-48.152615,-12.346924,
33196375,0.5042479,1.3447018,11.323227,0.20747657,0.041100457,0.062413435,,,,
33196380,0.69828165,1.3494927,11.3855095,0.23037975,0.04376362,0.10076292,-7.473503,-48.627514,-12.545914,
33196385,0.9522023,1.2967923,11.386707,0.25221762,0.022990981,0.13591662,,,,
33196390,1.2456484,1.2440916,11.391499,0.27192503,-0.0073690293,0.15775453,-7.322672,-47.427372,-11.317947,
33196395,1.5115466,1.2081594,11.325623,0.28790396,-0.03400062,0.16574399,,,,
33196400,1.7319306,1.2404983,11.111227,0.29908925,-0.05903431,0.16148295,-7.780985,-49.647827,-11.458389,
33196405,1.9271622,1.2177414,10.973488,0.29536083,-0.08300274,0.14124294,,,,
33196410,2.0217834,1.2141482,10.878866,0.27938184,-0.11283012,0.10662187,-6.85915,-48.89446,-11.289429,
33196415,2.000224,1.2584646,10.834549,0.2564787,-0.15224487,0.066674486,,,,
33196420,1.9523146,1.2297188,10.77107,0.22931448,-0.19006172,0.027792374,-7.4752426,-48.60435,-10.998581,
33196425,1.9343485,1.1662385,10.77107,0.19309552,-0.22574805,-0.0025676363,,,,
33196430,1.8840435,1.118329,10.769872,0.1542134,-0.25717333,-0.02760133,-7.322378,-47.141823,-11.9403,
33196435,1.8145746,1.0752103,10.845329,0.11639654,-0.272087,-0.043047648,,,,
33196440,1.7870265,1.0847924,10.810595,0.08284073,-0.26569542,-0.051569756,-6.3966503,-48.61117,-12.519318,
33196445,1.651682,1.1195267,10.792629,0.05301336,-0.23640068,-0.055298176,,,,
33196450,1.57862,1.1255155,10.793827,0.027979668,-0.17994171,-0.04997186,-8.861326,-47.73627,-10.733574,
33196455,1.5055578,1.1434815,10.834549,0.0018807102,-0.104840636,-0.04091712,,,,
33196460,1.3881795,1.0596398,10.9363575,-0.025816139,-0.026011143,-0.02813396,-8.704834,-48.927105,-11.644485,
33196465,1.3235016,1.0680239,11.019001,-0.044990886,0.048024673,-0.01801396,,,,
33196470,1.2420553,1.0823969,11.159137,-0.06629615,0.10821207,-0.0046981634,-6.7045345,-49.33667,-11.435219,
33196475,1.1689932,1.0452669,11.316041,-0.081209846,0.15614893,0.008617631,,,,
33196480,1.1162927,1.012928,11.448989,-0.087068796,0.19183525,0.019270265,-6.85927,-49.182327,-10.8218,38.0
33196485,1.1414452,0.8907585,11.571159,-0.09612354,0.2078142,0.022466058,,,,
33196490,1.155818,0.805719,11.655001,-0.10517827,0.20035736,0.016074475,-5.9400063,-47.671066,-9.268791,
33196495,1.1103039,0.70870215,11.589125,-0.119559325,0.16946472,-4.3710915E-4,,,,
33196500,1.0240667,0.6344423,11.4382105,-0.14246249,0.11992996,-0.023340276,-8.090588,-48.61369,-11.013779,
33196505,0.96417975,0.50628424,11.118414,-0.17282249,0.0602752,-0.046243437,,,,
33196510,0.8923153,0.37812614,10.772266,-0.21862884,0.0027509737,-0.067548715,-6.554104,-47.841717,-10.210678,
33196515,0.66234946,0.2643409,10.417736,-0.27934885,-0.03985957,-0.08352766,,,,
33196520,0.39525354,0.1601376,10.174595,-0.3603089,-0.0622301,-0.09204978,-8.553059,-49.042072,-9.627441,
33196525,0.19283564,0.052341066,10.006911,-0.4561826,-0.06595852,-0.08619083,,,,
33196530,0.008383803,-0.07461931,9.942234,-0.5568501,-0.05796905,-0.07180977,-8.091688,-48.309605,-10.39827,
33196535,-0.16528839,-0.23152316,10.040448,-0.65751743,-0.044653255,-0.051569756,,,,
33196540,-0.23715273,-0.48065287,10.203341,-0.74859744,-0.023880614,-0.02174238,-8.550219,-49.36932,-11.790283,
33196545,-0.23236178,-0.73337585,10.642912,-0.8167743,0.004348869,0.013411316,,,,
33196550,-0.31740126,-0.9250142,11.106436,-0.8567217,0.036306772,0.04803238,-7.4760494,-48.014717,-11.0054245,
33196555,-0.3952543,-1.012449,11.669374,-0.86258066,0.07146047,0.090642914,,,,
33196560,-0.38687015,-1.0208333,12.277825,-0.8300901,0.10182048,0.13431874,-8.85955,-47.036285,-13.217873,
33196565,-0.23715274,-1.0244265,12.808424,-0.75765216,0.12472364,0.17533137,,,,
33196570,-0.043118976,-1.1238389,13.224039,-0.6473974,0.1375068,0.20995243,-9.014458,-46.87963,-12.449715,
33196575,0.14971705,-1.2867315,13.555813,-0.50625,0.14602892,0.2328556,,,,
33196580,0.3988468,-1.4065053,13.656424,-0.3352752,0.14016996,0.23818192,-7.9365234,-48.90385,-10.851822,33.0
33196585,0.5916828,-1.4783697,13.475565,-0.15311512,0.11194048,0.23232298,,,,
33196590,0.8192532,-1.4412398,12.833576,0.026914405,0.06879731,0.2126156,-7.783512,-47.298553,-12.104721,
33196595,0.87195385,-1.352607,12.176018,0.17658393,0.019262558,0.17959243,,,,
33196600,0.8012872,-1.2064829,11.3723345,0.28896922,-0.02281535,0.13911241,-10.243204,-47.06888,-14.025734,
33196605,0.6264173,-1.0340085,10.623747,0.36140716,-0.05850168,0.100230284,,,,
33196610,0.4743044,-0.8495566,9.841623,0.38963664,-0.09844906,0.066674486,-9.783289,-46.89594,-12.778183,
33196615,0.35213497,-0.6531273,9.079861,0.3821798,-0.1527775,0.033651326,,,,
33196620,0.27188644,-0.443523,8.433083,0.33584082,-0.22361752,9.552261E-5,-10.245694,-46.746265,-12.172363,
33196625,0.17606732,-0.2602689,7.9587774,0.26073977,-0.3051102,-0.031329747,,,,
33196630,0.116180345,-0.06982835,7.6090374,0.1643334,-0.39086387,-0.056896076,-9.321781,-46.888935,-12.766785,
33196635,-0.0011980981,0.172115,7.3910494,0.06260073,-0.46383443,-0.073407665,,,,
33196640,-0.1964296,0.30865726,7.3706875,-0.039664567,-0.50751024,-0.07394029,-9.3238125,-47.151325,-10.597099,
33196645,-0.35692668,0.37333518,7.413806,-0.13394038,-0.51443446,-0.06275502,,,,
33196650,-0.45154807,0.39130127,7.586281,-0.21063936,-0.4798134,-0.033992905,-7.9387283,-46.414116,-11.964058,
33196655,-0.53179663,0.38411486,7.815049,-0.25964147,-0.3988534,0.005954472,,,,
33196660,-0.6407909,0.32183242,8.039026,-0.27562043,-0.261967,0.05921765,-9.783235,-47.186123,-12.465286,
33196665,-0.6383954,0.24637482,8.389963,-0.26017413,-0.08619852,0.11833977,,,,
33196670,-0.58809036,0.16373082,8.7421,-0.23034672,0.08797205,0.1742661,-9.627201,-47.791954,-13.6925125,
33196675,-0.5078418,0.04635237,9.128969,-0.19093198,0.23764159,0.2227356,,,,
33196680,-0.4371752,-0.05545546,9.562551,-0.1392667,0.34949425,0.2578893,-11.01407,-47.34758,-12.184509,30.0
33196685,-0.3952543,-0.18121809,9.931454,-0.07961195,0.40701848,0.28239036,,,,
33196690,-0.3365651,-0.2878169,10.12429,-0.013032978,0.40275744,0.2967714,-9.165409,-48.367638,-13.21006,
33196695,-0.20720926,-0.3141671,10.239273,0.055143885,0.34842896,0.30263034,,,,
33196700,-0.026350632,-0.34291288,10.229691,0.12332074,0.2600121,0.303163,-10.707148,-47.043457,-11.870865,
33196705,0.085039124,-0.36447218,10.08716,0.19256288,0.14762682,0.29517353,,,,
33196710,0.27907288,-0.40040436,9.677534,0.24689132,0.022990981,0.28079244,-10.245017,-45.7422,-14.041138,
33196715,0.48747954,-0.34051743,9.121782,0.27405554,-0.09844906,0.25575876,,,,
33196720,0.66714036,-0.33213326,8.469015,0.27725133,-0.19911645,0.22593139,-10.397883,-47.204727,-13.099419,
33196725,0.8899199,-0.30817848,7.92045,0.25754395,-0.272087,0.19237559,,,,
33196730,1.1162926,-0.35968125,7.425783,0.22025973,-0.3067081,0.15455873,-10.244824,-46.757847,-12.94603,
33196735,1.2360666,-0.27224627,7.2832527,0.16806182,-0.31043652,0.11301345,,,,
33196740,1.2133095,-0.15606557,7.272473,0.11479864,-0.28273964,0.066674486,-12.242852,-48.25997,-12.823563,
33196745,1.0791626,-0.032698423,7.320382,0.074318625,-0.23799857,0.027792374,,,,
33196750,0.87315154,0.14456698,7.479682,0.041828092,-0.1847354,-0.007361322,-10.398697,-47.48333,-12.012863,
33196755,0.58569413,0.28949344,7.598258,0.017327031,-0.12508065,-0.027068699,,,,
33196760,0.31500506,0.44639727,7.599456,0.007207028,-0.05530589,-0.029199222,-9.937811,-46.020763,-13.256454,
33196765,0.052700162,0.50628424,7.4712973,2.8281525E-4,0.023523612,-0.013752902,,,,
33196770,-0.11019238,0.5386232,7.5239983,-0.0103698205,0.11673417,0.0144765815,-11.169974,-45.585632,-12.518318,
33196775,-0.2754804,0.6344423,7.6485634,-0.026881402,0.22006473,0.054423966,,,,
33196780,-0.5054463,0.7122954,7.8929014,-0.03487088,0.33351532,0.0970345,-11.169974,-45.585632,-12.518318,28.0
33196785,-0.6395931,0.7098999,8.230665,-0.040197197,0.43791112,0.1439061,,,,
33196790,-0.69708467,0.59970796,8.600765,-0.035936143,0.51247954,0.19876717,-11.9370575,-47.506676,-12.050858,
33196795,-0.5880903,0.5182617,8.924155,-0.027946668,0.54656804,0.25043246,,,,
33196800,-0.41082492,0.34938037,9.284676,-0.012500348,0.54390484,0.293043,-11.015827,-46.31108,-11.887024,
33196805,-0.22876856,0.30266857,9.527817,0.018924925,0.50875115,0.3218051,,,,
33196810,-0.058689594,0.18648785,9.52542,0.058339674,0.45495534,0.33938196,-11.4754305,-47.211803,-12.50708,
33196815,0.21439496,0.11701898,9.488291,0.08923232,0.37932163,0.35163248,,,,
33196820,0.44076768,0.10504159,9.349353,0.11533128,0.28025213,0.34470826,-9.940128,-45.70047,-11.557808,
33196825,0.71505,0.02838628,9.38768,0.124918655,0.1657363,0.31967458,,,,
33196830,0.8935131,0.0259908,9.326595,0.13610393,0.04536151,0.28398827,-12.398594,-47.36859,-12.218704,
33196835,1.0192758,0.047550112,9.204426,0.14675656,-0.06862168,0.24457349,,,,
33196840,1.1043152,0.06312072,9.046325,0.16007236,-0.16183223,0.20462611,-12.707365,-47.06917,-11.610786,
33196845,1.1689932,0.10983255,8.978054,0.17179026,-0.22734594,0.16627663,,,,
33196850,1.1390498,0.21044263,8.924155,0.18617131,-0.2550428,0.1305903,-11.168629,-47.195553,-11.725815,
33196855,1.0767672,0.26913187,8.816359,0.20321551,-0.25291225,0.10502397,,,,
33196860,0.95699334,0.29907537,8.776834,0.21919447,-0.22574805,0.08797976,-11.940784,-46.15452,-10.364204,
33196865,0.87554705,0.36016005,8.401941,0.22878185,-0.17674592,0.07945765,,,,
33196870,0.8899199,0.45597917,8.061783,0.2245208,-0.11868907,0.076261856,-11.016733,-47.022644,-10.176399,
33196875,0.9821458,0.51227295,7.8425965,0.1962913,-0.05850168,0.075196594,,,,
33196880,1.0516148,0.5757531,7.7084503,0.15900707,-0.0052385023,0.06773975,-11.324927,-47.020367,-9.719803,
33196885,1.0707785,0.65959483,7.636585,0.110004954,0.04749204,0.06401133,,,,
33196890,1.0025074,0.6524084,7.649761,0.05887231,0.10714679,0.05975028,-11.631784,-46.74643,-10.81395,
33196895,0.9330385,0.6775609,7.867749,0.011468082,0.17798682,0.057087123,,,,
33196900,0.83721936,0.67276996,8.224676,-0.039131936,0.23764159,0.060815547,-11.632132,-46.7418,-10.504486,
33196905,0.7402025,0.66318804,8.621128,-0.07748143,0.27758896,0.06773975,,,,
33196910,0.6252195,0.6320469,8.924155,-0.11156986,0.29410055,0.076261856,-12.553098,-47.50675,-11.447128,
33196915,0.53419137,0.5877305,9.309828,-0.13447301,0.28877422,0.08212081,,,,
33196920,0.4838863,0.57695085,9.628427,-0.15204987,0.26427317,0.09011028,-13.016941,-46.180122,-11.0097275,
33196925,0.49346823,0.46436337,9.968584,-0.15577827,0.23071736,0.095436595,,,,
33196930,0.5186207,0.42483798,10.30994,-0.14619091,0.19503103,0.09224081,-13.0175,-46.896324,-9.608574,26.0
33196935,0.52221394,0.364951,10.633329,-0.12648354,0.16147523,0.08744713,,,,
33196940,0.45753604,0.33620524,10.931566,-0.099319324,0.13431102,0.081055544,-12.248511,-45.869003,-10.684692,
33196945,0.43477896,0.34339172,11.2801075,-0.058839314,0.11087522,0.076261856,,,,
33196950,0.42160386,0.25954995,11.526842,-0.0050435024,0.08743942,0.075196594,-11.169572,-45.880455,-12.514893,
33196955,0.3868694,0.23559517,11.5496,0.054611254,0.07039521,0.0735987,,,,
33196960,0.3605191,0.22840872,11.426233,0.12119022,0.06293836,0.07945765,-10.705179,-47.359123,-13.26004,
33196965,0.3257847,0.22002456,11.213036,0.17818183,0.058677305,0.09330607,,,,
33196970,0.34973952,0.23559517,10.76029,0.21386816,0.052818358,0.10928503,-10.707898,-46.744003,-11.564819,
33196975,0.4323835,0.20086074,10.266821,0.22239025,0.05494888,0.12845978,,,,
33196980,0.6695359,0.16373082,9.755386,0.19575869,0.05761204,0.1423082,-11.167356,-47.50195,-12.496063,
33196985,0.86476743,0.07629584,9.398459,0.1392997,0.06932995,0.15029767,,,,
33196990,1.1126994,-0.0075459033,9.251139,0.062068097,0.093298376,0.15029767,-11.938623,-47.48583,-10.658264,
33196995,1.2288802,-0.0710261,9.47751,-0.029544564,0.12046259,0.1471019,,,,
33197000,1.2684056,-0.11773792,9.78533,-0.11156986,0.15188786,0.135384,-11.016175,-46.306446,-11.577553,
33197005,1.3115242,-0.11055148,10.232087,-0.16749619,0.1859763,0.12260082,,,,
33197010,1.3462586,-0.10935375,10.718369,-0.19679093,0.22698896,0.11674187,-11.94084,-45.864334,-10.6770935,
33197015,1.2815807,-0.14289044,11.252561,-0.19945408,0.2632079,0.11088292,,,,
33197020,1.2887671,-0.12372661,11.7220745,-0.18027934,0.2898395,0.11248082,-12.706147,-47.08539,-12.693924,
33197025,1.307931,-0.051862255,12.17961,-0.1408646,0.3063511,0.11301345,,,,
33197030,1.3294902,-0.017127812,12.631159,-0.083873,0.30315527,0.10342608,-12.091536,-47.789932,-11.122833,
33197035,1.3654225,0.004431501,12.843159,-0.02262035,0.27119738,0.09330607,,,,
33197040,1.4564506,0.021199837,12.8778925,0.039697565,0.21101,0.07306607,-11.937754,-47.49741,-11.431931,
33197045,1.5810153,-0.006348148,12.823995,0.09935232,0.12738681,0.04803238,,,,
33197050,1.7403147,0.04156141,12.762909,0.14728919,0.034708876,0.016074475,-10.398093,-47.92556,-12.007729,
33197055,1.8277497,0.11103029,12.5473175,0.19469342,-0.050512206,-0.019611852,,,,
33197060,1.9571056,0.085877754,12.186798,0.231445,-0.11442801,-0.060091868,-11.478525,-46.446964,-10.658852,
33197065,2.0768795,0.11582125,11.684944,0.2500871,-0.15224487,-0.10110451,,,,
33197070,2.2182126,0.15175343,11.2070465,0.24902184,-0.16183223,-0.1479761,-11.630915,-46.75801,-11.587616,
33197075,2.272111,0.254759,10.912403,0.22558606,-0.15064697,-0.19005401,,,,
33197080,2.1607213,0.33860075,10.681238,0.18989973,-0.12508065,-0.22893614,-11.1672735,-47.937233,-12.026726,23.0
33197085,2.0481339,0.34818265,10.380606,0.14302814,-0.08619852,-0.2603614,,,,
33197090,1.9774672,0.37573066,10.0847645,0.083905995,-0.037729044,-0.2901888,-12.398749,-48.379604,-10.814117,
33197095,1.8972186,0.38770807,9.812878,0.016261768,0.018197294,-0.3125593,,,,
33197100,1.8517045,0.36734647,9.555364,-0.07002458,0.074123636,-0.327473,-12.400095,-46.769684,-11.606613,
33197105,1.8097837,0.37093973,9.184065,-0.18081197,0.12578891,-0.34291935,,,,
33197110,1.7439079,0.3134482,9.137353,-0.3001215,0.17159525,-0.3557025,-12.245691,-47.932728,-10.660728,
33197115,1.6169477,0.20325622,9.223591,-0.41570258,0.21154262,-0.3658225,,,,
33197120,1.6373093,0.07988906,9.46793,-0.52702266,0.24296789,-0.3759425,-12.554425,-46.910164,-10.989769,
33197125,1.7355238,-0.10815601,10.004517,-0.6122437,0.26906684,-0.3908562,,,,
33197130,1.5355014,-0.2602689,10.512358,-0.66444165,0.29569843,-0.3929867,-11.477362,-46.172993,-12.054871,
33197135,1.3546427,-0.4686755,10.996244,-0.68947536,0.31274265,-0.38339934,,,,
33197140,1.2971513,-0.56449467,11.2729225,-0.69693214,0.32339528,-0.37381196,-11.936939,-47.218807,-12.518478,
33197145,1.2037276,-0.68666404,11.490911,-0.6910732,0.33671108,-0.3610288,,,,
33197150,1.0072984,-0.78727406,11.737644,-0.6724311,0.3558858,-0.34398457,-10.247607,-46.720787,-10.470291,
33197155,0.9138747,-0.92381644,11.864605,-0.6479301,0.368669,-0.31788564,,,,
33197160,0.8707561,-1.0519745,11.970007,-0.60531956,0.38305005,-0.28965616,-11.474735,-47.22107,-13.126015,
33197165,0.8539877,-1.1861215,12.033486,-0.56217635,0.3937027,-0.26142666,,,,
33197170,0.8719538,-1.2400196,12.009532,-0.50838053,0.40648586,-0.23745823,-12.242642,-47.53914,-13.915253,
33197175,0.9246543,-1.3334432,12.082594,-0.449791,0.409149,-0.21988139,,,,
33197180,0.96537745,-1.3442228,12.179611,-0.38640782,0.39210477,-0.21455508,-9.013046,-47.911495,-12.437729,
33197185,1.1019197,-1.3334432,12.1975765,-0.32249203,0.35055953,-0.2230772,,,,
33197190,1.1630044,-1.2951155,12.291,-0.26017413,0.27279526,-0.24331719,-9.937619,-47.036415,-12.161339,
33197195,1.1210835,-1.1909122,12.31256,-0.1946604,0.17212787,-0.2704814,,,,
33197200,1.1067107,-1.1214435,12.250277,-0.12009196,0.056546777,-0.30297196,-11.320524,-47.36846,-13.275238,
33197205,1.095931,-1.004065,12.061034,-0.040197197,-0.06649115,-0.3370604,,,,
33197210,1.018078,-0.8136244,11.799927,0.034371246,-0.19325751,-0.36848566,-12.399591,-45.7633,-13.320663,
33197215,0.94262034,-0.58006525,11.403477,0.08976495,-0.31629544,-0.39032355,,,,
33197220,0.89351314,-0.37285638,10.851318,0.12864707,-0.4276155,-0.40736777,-11.473984,-47.52052,-13.43206,
33197225,0.78691435,-0.18361358,10.263227,0.14089762,-0.5176302,-0.41642252,,,,
33197230,0.6886997,-0.11294697,9.548178,0.1291797,-0.57355654,-0.4116288,-11.935026,-47.24429,-14.220551,21.0
33197235,0.5844964,-0.017127827,8.9289465,0.0924281,-0.59645975,-0.39192143,,,,
33197240,0.52460945,0.12899637,8.446258,0.03809967,-0.58101344,-0.35996357,-9.628519,-46.32713,-14.3285675,
33197245,0.47071117,0.23319969,7.9995008,-0.032740355,-0.5320113,-0.31948352,,,,
33197250,0.47909534,0.26913187,7.5671167,-0.11316775,-0.44412705,-0.2736772,-10.862018,-46.163654,-12.039673,
33197255,0.5114343,0.27152735,7.1934223,-0.20531304,-0.32162175,-0.22733824,,,,
33197260,0.5270049,0.17810369,7.0856256,-0.30438256,-0.18260488,-0.1815319,-11.320268,-47.806053,-12.96064,
33197265,0.5940783,0.077493586,7.2604957,-0.39652786,-0.04412062,-0.13412768,,,,
33197270,0.6252195,-0.009941369,7.783908,-0.46790048,0.06560152,-0.09737609,-9.781724,-46.916786,-14.170784,
33197275,0.65516305,-0.079410255,8.356427,-0.5110437,0.14602892,-0.06648345,,,,
33197280,0.71624774,-0.14887913,8.878641,-0.53075105,0.18863946,-0.03985186,-10.704419,-46.79033,-14.659485,
33197285,0.8671629,-0.20517287,9.273895,-0.5344795,0.19822684,-0.023872906,,,,
33197290,1.137852,-0.3117717,9.410438,-0.5195658,0.20035736,-0.028666591,-11.166505,-46.500202,-14.519585,
33197295,1.2911625,-0.47586197,9.552969,-0.49399945,0.21101,-0.0489066,,,,
33197300,1.3091286,-0.50820094,9.657171,-0.46044365,0.21420577,-0.07766872,-11.935969,-45.92919,-15.009621,
33197305,1.2947557,-0.5381444,9.914686,-0.4141047,0.1960963,-0.108028725,,,,
33197310,1.1677954,-0.4411275,10.130279,-0.35871097,0.14709418,-0.13732347,-10.0898075,-47.494873,-13.088394,
33197315,1.0695808,-0.32374907,10.234482,-0.2947952,0.06666678,-0.16448769,,,,
33197320,0.92225885,-0.1991842,10.240471,-0.231412,-0.03985957,-0.18632558,-8.703716,-47.49471,-14.446808,
33197325,0.78571653,-0.07102607,10.070393,-0.1712246,-0.1511796,-0.2017719,,,,
33197330,0.69947934,0.046352364,9.68951,-0.11316775,-0.25291225,-0.20709823,-10.858311,-46.502483,-14.976181,
33197335,0.6443834,0.10025063,9.227184,-0.06576352,-0.328546,-0.20709823,,,,
33197340,0.7162477,0.10504158,8.724133,-0.03380562,-0.37275442,-0.2017719,-9.627914,-46.769356,-14.323425,
33197345,0.7689482,0.11701898,8.518122,-0.0167614,-0.39991862,-0.1964456,,,,
33197350,0.8695583,0.21762908,7.6150265,-0.027946668,-0.41376704,-0.19804348,-9.781322,-47.211605,-14.167358,
33197355,0.92824745,0.36375326,6.872428,-0.06629615,-0.36476493,-0.20017402,,,,
33197360,0.83242846,0.47993398,6.613716,-0.11316775,-0.28114173,-0.19751085,-9.010866,-47.50633,-14.918602,
33197365,0.7186432,0.5206571,6.3861456,,,,,,,
33197370,0.5461688,0.54101866,6.650846,-0.1611046,-0.18367013,-0.18685822,-9.780104,-47.227818,-15.250496,
33197375,0.434779,0.5925215,6.9251285,-0.2063783,-0.09152484,-0.16874874,,,,
33197380,0.292248,0.6763632,7.363501,-0.23300989,-0.01961956,-0.149574,-10.245017,-45.7422,-14.041138,
33197385,0.13055322,0.74463433,7.6988683,-0.24845621,0.02618677,-0.12933399,,,,
33197390,0.09941198,0.77817106,7.947998,-0.2537825,0.043230984,-0.108028725,-9.629215,-46.317863,-13.709633,
33197395,0.06707303,0.79254395,8.273783,-0.24366252,0.049622566,-0.0840603,,,,
33197400,0.14133288,0.81170774,8.509737,-0.22022673,0.03950256,-0.059559226,-9.01268,-46.17965,-14.934013,
33197405,0.12815773,0.75062305,8.834325,-0.18507303,0.013403608,-0.039319225,,,,
33197410,0.18325374,0.7194818,9.043929,-0.13340774,-0.018554298,-0.024938168,-8.548975,-46.780807,-16.153625,
33197415,0.2718864,0.6416288,9.064291,-0.06842668,-0.050512206,-0.016948694,,,,
33197420,0.37848523,0.60449886,8.91098,0.0040112375,-0.08619852,-0.013220271,-8.090698,-45.2835,-15.076218,
33197425,0.600067,0.5865328,8.615139,0.0604702,-0.12348275,-0.011089744,,,,
33197430,0.9198634,0.6140808,8.282167,0.10787442,-0.14745118,-0.01641606,-10.085898,-47.981113,-16.023201,
33197435,1.0707785,0.567369,8.12167,0.13237551,-0.14585328,-0.033460274,,,,
33197440,1.018078,0.5386232,8.204315,0.1392997,-0.12135222,-0.052635018,-9.166662,-46.324757,-14.626625,
33197445,1.055208,0.4739453,8.260609,0.14782181,-0.09259011,-0.06275502,,,,
33197450,1.0647898,0.45238596,8.308517,0.1542134,-0.06808905,-0.067548715,-9.164227,-46.357185,-16.7929,
33197455,1.133061,0.42364025,8.345648,0.16326813,-0.047849048,-0.0723424,,,,
33197460,1.2025298,0.41765153,8.441467,0.16912709,-0.037729044,-0.07979925,-7.7807293,-47.335613,-14.580452,
33197465,1.3031399,0.39249903,8.490574,0.16806182,-0.040924832,-0.08938662,,,,
33197470,1.3642247,0.36734647,8.601963,0.16326813,-0.056903787,-0.102169774,-8.088144,-47.777874,-14.273453,
33197475,1.4552529,0.36375326,8.669037,0.15953971,-0.07820906,-0.118681364,,,,
33197480,1.495976,0.33860075,8.755274,0.1510176,-0.09791643,-0.13359503,-8.088144,-47.777874,-14.273453,
33197485,1.4648347,0.364951,8.807974,0.14302814,-0.1160259,-0.14744347,,,,
33197490,1.4145297,0.34458944,8.865466,0.13876708,-0.12028696,-0.15969402,-7.7825775,-46.732075,-13.658905,
33197495,1.2708011,0.42723346,9.099026,0.13610393,-0.10697117,-0.17247717,,,,
33197500,1.1354564,0.47753853,9.370913,0.13344076,-0.084600635,-0.17993401,-8.089207,-46.75064,-14.594894,
33197505,1.0803604,0.5014933,9.612856,0.13716918,-0.064360626,-0.1847277,,,,
33197510,1.0480216,0.46675885,9.869171,0.15155025,-0.05530589,-0.1847277,-8.703909,-46.47906,-15.541916,
33197515,1.0013096,0.4739453,10.103928,0.16912709,-0.060099576,-0.18206453,,,,
33197520,0.9653775,0.50987744,10.344674,0.19043235,-0.08300274,-0.18206453,-6.5525227,-46.12608,-13.790085,
33197525,0.98334354,0.55539155,10.444086,0.22292289,-0.12028696,-0.17886874,,,,
33197530,0.99053,0.5925214,10.359047,0.2644682,-0.16556065,-0.17194453,-7.934473,-46.904984,-15.208321,
33197535,1.0252645,0.617674,10.22011,0.30228502,-0.21456277,-0.16502032,,,,
33197540,1.0444283,0.69313157,10.000923,0.3337103,-0.25823858,-0.1612919,-8.088337,-46.762222,-15.368561,
33197545,1.0480216,0.77338004,9.702686,0.35501558,-0.29712072,-0.15969402,,,,
33197550,1.050417,0.8512332,9.489489,0.3576787,-0.3189586,-0.16182454,-7.779602,-47.784786,-15.03952,
33197555,1.045626,0.9111201,9.489489,0.34755874,-0.32694808,-0.16502032,,,,
33197560,1.0588012,1.0009506,9.116991,0.31826398,-0.3455902,-0.1746077,-8.089363,-47.761658,-13.190315,
33197565,1.050417,1.0584421,8.872653,0.2729903,-0.36210176,-0.1847277,,,,
33197570,0.9809481,1.2033684,8.804382,0.211205,-0.35677546,-0.1948477,-7.321289,-45.56433,-14.899063,
33197575,0.8408126,1.366261,8.642687,0.1392997,-0.33919862,-0.20336981,,,,
33197580,0.5928806,1.4201593,8.744494,0.0604702,-0.31096914,-0.19591296,-7.4738617,-46.741302,-14.579697,
33197585,0.42639482,1.4321368,8.881037,-0.024218244,-0.28167439,-0.17567295,,,,
33197590,0.35093725,1.4381254,8.9816475,-0.108906694,-0.25024912,-0.15010664,-8.242611,-47.19289,-14.438835,
33197595,0.25871134,1.4453118,9.073873,-0.19412777,-0.20710595,-0.12027926,,,,
33197600,0.15570575,1.4465096,9.348156,-0.27615306,-0.14851645,-0.08619083,-7.6251984,-48.947826,-14.09362,
33197605,0.0023951232,1.3590746,9.871567,-0.3336773,-0.0622301,-0.041982386,,,,
33197610,-0.029943846,1.1949844,10.360245,-0.3640373,0.04216572,0.012878685,-6.703619,-47.756863,-14.239258,
33197615,-0.0035935715,1.0536511,10.957916,-0.37362468,0.14709418,0.06454396,,,,
33197620,0.07905042,0.9686116,11.589125,-0.36297202,0.23391315,0.11088292,-5.9341736,-47.31455,-14.999062,
33197625,0.16888088,0.8548264,12.1053505,-0.33154678,0.30049214,0.15029767,,,,
33197630,0.20960401,0.7518208,12.627565,-0.28307727,0.33937424,0.18332085,-7.317856,-47.202045,-15.963371,
33197635,0.2850616,0.7146909,13.086298,-0.22342251,0.35428795,0.21847454,,,,23.0
33197640,0.40004453,0.68115413,13.500717,-0.15045197,0.34470057,0.24297561,-6.704279,-47.02445,-14.557274,
33197645,0.56772804,0.5997079,13.734276,-0.06682879,0.30262268,0.25735667,,,,
33197650,0.774937,0.49909782,13.80135,0.022120718,0.22965209,0.25895455,-8.704063,-47.490078,-14.137337,
33197655,1.0252645,0.35297364,13.552219,0.11213548,0.13004997,0.2530956,,,,
33197660,1.2839761,0.24637482,13.11744,0.19309552,0.02618677,0.24137771,-6.6988297,-50.136257,-15.604462,
33197665,1.606168,0.1876856,12.645531,0.25115237,-0.06808905,0.2227356,,,,
33197670,1.9020095,0.22242004,11.886165,0.28737134,-0.14532065,0.196104,-6.3954334,-48.627384,-13.602455,
33197675,2.1020322,0.26793414,11.046549,0.28417554,-0.1863333,0.15455873,,,,
33197680,2.2289925,0.37333518,10.264425,0.23517343,-0.18952909,0.10449134,-7.469713,-49.40162,-15.013084,
33197685,2.1978512,0.44759503,9.64759,0.1510176,-0.16928908,0.05229344,,,,
33197690,2.1283822,0.49430686,9.3649235,0.034371246,-0.13360275,0.0064871036,-4.5493565,-47.00798,-15.587219,
33197695,1.9774671,0.5362277,9.433195,-0.09292775,-0.088329054,-0.03452554,,,,
33197700,1.71636,0.5613802,9.797308,-0.21649832,-0.03400062,-0.06648345,-7.6264553,-46.904945,-15.510185,
33197705,1.44088,0.6104876,10.202143,-0.3219594,0.012870977,-0.09311504,,,,
33197710,1.1246768,0.67157227,10.712379,-0.41357204,0.04269835,-0.105365574,-7.469614,-48.100418,-16.73056,
33197715,0.85638314,0.6607926,11.059725,-0.48121628,0.052285723,-0.100571886,,,,
33197720,0.650372,0.5889282,11.474142,-0.53075105,0.051753093,-0.08672346,-5.93095,-49.673088,-14.971664,
33197725,0.41441742,0.44879276,11.678956,-0.5722963,0.048024673,-0.0590266,,,,
33197730,0.23116331,0.24637483,11.838255,-0.59999317,0.056014147,-0.025470803,-4.3930206,-49.20983,-15.093544,
33197735,0.061084345,0.015211143,11.919701,-0.6165048,0.07465626,0.010215526,,,,
33197740,-0.057491854,-0.1872068,11.975996,-0.623429,0.09383101,0.043238696,-5.7787457,-47.478146,-16.231415,
33197745,-0.16648611,-0.42076594,12.143679,-0.63301635,0.10927733,0.07892502,,,,
33197750,-0.31141257,-0.6267771,12.251474,-0.63994056,0.11247312,0.11514397,-5.16502,-47.15778,-15.136513,
33197755,-0.40483624,-0.7848787,12.368854,-0.6420711,0.09968995,0.15189558,,,,
33197760,-0.4982599,-0.99687845,12.464673,-0.64420164,0.07305837,0.19077769,-4.54652,-47.335228,-17.750061,
33197765,-0.5234124,-1.1813304,12.611994,-0.63994056,0.036306772,0.2344535,,,,
33197770,-0.47789833,-1.3741664,12.761712,-0.6292879,-0.0047058705,0.27759665,-4.54521,-49.66829,-16.0206,
33197775,-0.40363848,-1.5622114,12.917418,-0.6058521,-0.04358799,0.3122177,,,,
33197780,-0.35093796,-1.7694204,13.127023,-0.57123107,-0.07341537,0.34577355,-4.5488358,-47.014927,-16.051414,
33197785,-0.12576298,-1.913149,13.294706,-0.5248921,-0.102177486,0.37613356,,,,26.0
33197790,0.087434605,-2.097601,13.276739,-0.46576998,-0.11283012,0.39051458,-4.6998596,-47.199417,-18.374504,
33197795,0.28985256,-2.1874313,13.279136,-0.39173415,-0.09259011,0.39051458,,,,
33197800,0.3868694,-2.2221658,13.436039,-0.3070457,-0.0723501,0.38465565,-4.5468674,-47.330597,-17.440598,
33197805,0.48628178,-2.1311376,13.62648,-0.21170463,-0.071817465,0.36974195,,,,
33197810,0.5150275,-2.1311378,13.875609,-0.10251512,-0.0957859,0.34843668,-5.1623936,-48.205853,-16.207657,
33197815,0.47789758,-2.1407194,13.837282,0.022120718,-0.14532065,0.32393566,,,,
33197820,0.42399934,-1.9862111,13.613304,0.14995235,-0.20870383,0.29730406,-4.392864,-48.198814,-16.498123,
33197825,0.31141183,-1.8364936,13.146187,0.26979446,-0.2800765,0.2717377,,,,
33197830,0.23236105,-1.6364713,12.469463,0.37365767,-0.348786,0.25522614,-3.6228695,-47.90854,-17.565681,
33197835,0.12097131,-1.4627991,11.668176,0.45301983,-0.39565757,0.24830194,,,,29.0
33197840,0.12456451,-1.32985,10.733939,0.5014893,-0.40471232,0.2530956,-3.467945,-49.07853,-17.083992,
33197845,0.14612383,-1.2064829,9.83803,0.5110766,-0.3743523,0.2642809,,,,
33197850,0.2251746,-1.1238389,9.19245,0.48710826,-0.3221544,0.27493352,-4.0841656,-47.194714,-18.668777,
33197855,0.25751358,-0.99088985,8.68341,0.44023666,-0.25930384,0.28185773,,,,
33197860,0.24673392,-0.911839,8.297738,0.38484293,-0.18100697,0.29091245,-5.46784,-48.963783,-17.289825,
33197865,0.26230454,-0.9130367,8.278574,0.33104712,-0.09365538,0.30529353,,,,
33197870,0.42998803,-1.0364039,8.082146,0.28577346,-0.011630083,0.3180767,-5.466934,-48.252216,-19.000458,
33197875,0.58569413,-1.0759293,8.0534,0.24582607,0.07731942,0.32287037,,,,
33197880,0.6683381,-1.0831157,8.140835,0.20747657,0.16307314,0.3202072,-4.3921146,-48.498264,-16.804161,
33197885,0.682711,-0.9729237,8.346846,0.1760513,0.23391315,0.30635878,,,,
33197890,0.6443833,-0.92860734,8.585196,0.14675656,0.27439317,0.28611878,-3.4669018,-49.092426,-18.01239,
33197895,0.5964738,-0.90345484,8.824743,0.1190597,0.27386054,0.26215035,,,,
33197900,0.5521574,-0.8806978,8.993624,0.10361337,0.24083737,0.23658402,-4.390896,-48.51448,-17.887299,
33197905,0.5138298,-0.80404246,9.055906,0.09828705,0.18863946,0.20569138,,,,
33197910,0.45514053,-0.73098046,8.970867,0.09828705,0.12632155,0.17799453,-5.7737637,-50.87319,-16.501503,
33197915,0.4683157,-0.6519296,8.833127,0.09881969,0.06400363,0.15668926,,,,
33197920,0.47430435,-0.5716811,8.69898,0.09615653,0.0011530784,0.13325346,-3.622118,-48.20799,-17.871727,
33197925,0.49346823,-0.5800653,8.531298,0.08656916,-0.059566945,0.108219765,,,,
33197930,0.50664335,-0.5010145,8.312111,0.076449156,-0.10057958,0.08851239,-4.386997,-49.868958,-19.728691,
33197935,0.4503496,-0.4219637,8.092924,0.06579652,-0.12295012,0.07413133,,,,
33197940,0.37728748,-0.35369256,7.8330145,0.05354599,-0.119221695,0.06880502,-4.392708,-47.1878,-17.90271,
33197945,0.31740052,-0.31416717,7.6509585,0.04502388,-0.08726379,0.077327125,,,,
33197950,0.30302766,-0.27583948,7.5323825,0.03916493,-0.027609037,0.08957765,-4.69866,-48.95211,-17.270828,
33197955,0.237152,-0.26026893,7.546755,0.029044932,0.049622566,0.10502397,,,,
33197960,0.20720853,-0.23751184,7.6222124,0.024251245,0.13164786,0.11354608,-5.4671555,-49.84129,-16.815353,
33197965,0.13773966,-0.28661913,7.810258,0.026914405,0.20461841,0.12153556,,,,
33197970,0.1604967,-0.26026887,7.993512,0.036501773,0.25788158,0.12686189,-3.6222744,-49.219006,-16.467148,
33197975,0.18684696,-0.29859656,8.203116,0.054078624,0.2765237,0.12526399,,,,
33197980,0.20720853,-0.29859653,8.448652,0.075383894,0.25947946,0.11940503,-4.0814114,-49.836494,-17.864296,
33197985,0.22517462,-0.36207673,8.521715,0.10308074,0.21154262,0.11141556,,,,
33197990,0.19283566,-0.40878856,8.461828,0.13663656,0.14975734,0.09596923,-3.928547,-48.373966,-18.806015,
33197995,0.18085827,-0.38483375,8.308517,0.1659313,0.07785205,0.081055544,,,,
33198000,0.15690348,-0.3824383,8.091726,0.18617131,0.0070120282,0.06987028,-4.07959,-50.294937,-18.942291,
33198005,0.22397688,-0.34770384,7.7934895,0.19842182,-0.04838168,0.060282912,,,,
33198010,0.2431407,-0.38842702,7.5695124,0.20534605,-0.079806946,0.05602186,-3.313631,-47.924717,-18.950691,
33198015,0.17486955,-0.3824383,7.472495,0.20534605,-0.084068,0.051228173,,,,
33198020,0.09462103,-0.333331,7.4904613,0.20001973,-0.06276273,0.05602186,-3.1560783,-50.142784,-19.540138,
33198025,0.041920513,-0.27104855,7.520405,0.19522604,-0.026543774,0.06987028,,,,
33198030,0.043118253,-0.2662576,7.5958624,0.19575869,0.019262558,0.09011028,-3.4631386,-49.721436,-20.636002,
33198035,0.027547643,-0.278235,7.7563596,0.19682394,0.06453626,0.116209246,,,,
33198040,0.101807475,-0.35728574,7.928834,0.20108499,0.10128785,0.14443873,-3.0024357,-51.87461,-17.194794,
33198045,0.14732157,-0.40040436,8.062981,0.21013974,0.13111523,0.17479874,,,,
33198050,0.2611068,-0.37165862,8.251026,0.2245208,0.14922471,0.2008977,-3.465765,-48.673363,-19.564857,
33198055,0.36291462,-0.3896247,8.3540325,0.24369554,0.1577468,0.21847454,,,,
33198060,0.47190893,-0.41837046,8.463026,0.25701132,0.15455103,0.22060508,-4.5406036,-50.163795,-19.574333,
33198065,0.58569413,-0.46628004,8.51333,0.27405554,0.13910471,0.21634401,,,,
33198070,0.6779201,-0.53694665,8.542076,0.29376292,0.118332066,0.19876717,-3.3099499,-50.868267,-18.60698,
33198075,0.7749369,-0.5656924,8.479794,0.31133977,0.09436364,0.17479874,,,,
33198080,0.80128723,-0.53934216,8.367207,0.31986186,0.06719942,0.14337346,-3.9269981,-50.131294,-18.011803,
33198085,0.7964963,-0.5070032,8.338461,0.32572085,0.037904665,0.10768713,,,,
33198090,0.7258296,-0.41717273,8.320495,0.33157977,0.0038162372,0.075196594,-4.6957493,-50.58288,-17.870934,
33198095,0.6024625,-0.33931968,8.407929,0.3406345,-0.032402724,0.04696712,,,,
33198100,0.489875,-0.26146662,8.51333,0.33956927,-0.06542589,0.025661847,-2.8480034,-50.43293,-19.529114,
33198105,0.37608975,-0.19798644,8.627116,0.3406345,-0.10111222,0.016607108,,,,
33198110,0.33057567,-0.07222383,8.732517,0.33477557,-0.14372276,0.012878685,-3.4619389,-51.474133,-19.532333,
33198115,0.24793164,0.004431486,8.816359,0.32572085,-0.19006172,0.0123460535,,,,
33198120,0.2467339,0.045154616,8.909782,0.31773135,-0.23799857,0.01767237,-2.2338524,-50.55247,-18.274338,
33198125,0.23116331,0.07150489,8.962482,0.3118724,-0.2683586,0.030455532,,,,
33198130,0.28386384,0.03796818,8.945715,0.3140029,-0.27102175,0.049097646,-1.7699986,-51.01086,-19.805138,
33198135,0.2862593,-0.009941369,8.999613,0.31986186,-0.24705331,0.07200081,,,,27.0
33198140,0.31141186,0.010420188,9.118189,0.3273187,-0.20018172,0.09437133,-1.7699986,-51.01086,-19.805138,
33198145,0.35572824,0.036770448,9.198439,0.3432977,-0.13626592,0.117807135,,,,
33198150,0.35093725,0.10743706,9.302641,0.3566135,-0.06169747,0.13857979,-3.923256,-52.496788,-18.448608,
33198155,0.30901638,0.16852178,9.369715,0.36992928,0.01713203,0.15615663,,,,
33198160,0.20960401,0.23559517,9.460743,0.37472296,0.08104784,0.17373349,-3.617485,-51.5984,-17.832352,
33198165,0.1640899,0.28470248,9.57333,0.37632084,0.12312575,0.1875819,,,,
33198170,0.11378485,0.36974198,9.620042,0.36833137,0.12898469,0.20196296,-1.9240723,-51.588932,-18.873695,
33198175,0.09581877,0.4619679,9.687116,0.35022187,0.108744696,0.21368085,,,,
33198180,0.1760673,0.49550456,9.677533,0.32359028,0.06453626,0.2195398,-1.9240723,-51.588932,-18.873695,
33198185,0.3030277,0.53503,9.690708,0.28790396,0.011273082,0.22593139,,,,
33198190,0.43597677,0.51466846,9.812878,0.25115237,-0.046251148,0.22859456,-2.0797577,-50.987736,-17.95594,
33198195,0.6312082,0.46675885,9.8404255,0.21759658,-0.102177486,0.22912717,,,,
33198200,0.880338,0.39130127,9.761374,0.17658393,-0.15597329,0.22380087,-3.9237232,-52.78002,-17.671516,
33198205,1.1665976,0.22242004,9.798505,0.13184287,-0.20284489,0.21208297,,,,
33198210,1.4145298,0.089470975,9.80689,0.081242844,-0.23906384,0.19823453,-4.3868217,-52.621086,-16.446762,
33198215,1.601377,-0.083003476,9.806889,0.031708088,-0.25291225,0.18012506,,,,
33198220,1.7594786,-0.18361358,9.829646,-0.022087717,-0.2385312,0.15828717,-4.386366,-53.206093,-16.130447,
33198225,1.858891,-0.31296945,9.895522,-0.06842668,-0.20284489,0.13751452,,,,
33198230,1.9523146,-0.43753427,10.057217,-0.111037225,-0.14851645,0.11354608,-3.6167717,-52.620995,-17.201431,
33198235,1.9930378,-0.5656924,10.359047,-0.14459302,-0.08140484,0.09224081,,,,
33198240,1.9846536,-0.6387545,10.77107,-0.17388776,-0.019086929,0.07572922,-4.0792046,-52.326233,-16.752052,
33198245,1.9858513,-0.6842686,11.149555,-0.19146462,0.022990981,0.061348174,,,,
33198250,2.0217834,-0.7705058,11.381916,-0.20904146,0.036306772,0.042706065,-3.466545,-50.978634,-15.9786,
33198255,2.0553203,-0.88788426,11.561577,-0.22448778,0.021925718,0.020335529,,,,
33198260,2.0996366,-1.0232289,11.749622,-0.2298141,-0.0041732388,-0.005230794,-3.4647865,-52.01513,-16.276085,
33198265,2.0948453,-1.1154547,11.796334,-0.22182462,-0.0286743,-0.026003433,,,,
33198270,2.1451507,-1.0423925,11.801125,-0.21276988,-0.03719641,-0.045710806,-2.8494415,-52.00579,-16.260887,
33198275,2.1798851,-1.0088558,12.099362,-0.19093198,-0.030804828,-0.07074451,,,,
33198280,2.194258,-1.0208333,12.405983,-0.16216986,-0.030272195,-0.10003925,-3.461811,-53.067837,-17.656693,
33198285,2.2301903,-0.99088985,12.760514,-0.12808144,-0.045718517,-0.13252978,,,,
33198290,2.2158175,-0.98969203,13.04917,-0.08014458,-0.08033958,-0.1628898,-4.2309914,-53.07951,-17.67569,
33198295,2.1870716,-1.0052626,13.210865,-0.010902451,-0.12401538,-0.18685822,,,,
33198300,2.165512,-0.9310028,13.198887,0.074318625,-0.1676912,-0.20922875,-4.231743,-52.78006,-17.369652,
33198305,2.1607213,-0.88189554,12.921011,0.15155025,-0.20550804,-0.23106666,,,,
33198310,2.147546,-0.7848787,12.331724,0.21493343,-0.22308488,-0.24970877,-3.461462,-53.07247,-17.966164,
33198315,2.0553203,-0.6351613,11.599905,0.2447608,-0.21562804,-0.26142666,,,,
33198320,1.9906423,-0.5249692,10.960312,0.23570605,-0.17994171,-0.2683509,-3.1537895,-53.067802,-17.958565,
33198325,1.8804502,-0.37165868,10.397374,0.20161763,-0.11389538,-0.26781827,,,,
33198330,1.8193656,-0.35848352,9.985352,0.1440934,-0.037729044,-0.26302457,-3.3080006,-52.92041,-17.809341,
33198335,1.721151,-0.32734227,9.729036,0.06952494,0.030980458,-0.25450248,,,,29.0
33198340,1.7007895,-0.32854,9.555364,-0.021555087,0.08584153,-0.24384981,-2.5374107,-53.940605,-17.778358,
33198345,1.6684504,-0.35009935,9.437985,-0.12861407,0.118332066,-0.23372982,,,,
33198350,1.6696482,-0.36566994,9.397263,-0.24259727,0.13004997,-0.22201191,-2.3846092,-53.05613,-17.939568,
33198355,1.684021,-0.47825742,9.415228,-0.35551518,0.14123523,-0.21402244,,,,
33198360,1.7654673,-0.62917256,9.531409,-0.46044365,0.14656155,-0.20869613,-0.0796051,-51.54007,-17.435493,
33198365,1.7954108,-0.8327882,9.702686,-0.5568501,0.14975734,-0.20550033,,,,
33198370,1.8301452,-0.98490113,10.05003,-0.6367448,0.15561628,-0.20656559,-2.5372925,-53.65273,-18.24598,
33198375,1.8133768,-1.1202457,10.349464,-0.6910732,0.16733418,-0.20230454,,,,
33198380,1.7151623,-1.1957031,10.676448,-0.72462904,0.18917209,-0.19591296,-3.9262295,-51.444077,-17.067993,
33198385,1.6540775,-1.2555902,10.932764,-0.73368376,0.22006473,-0.1884561,,,,
33198390,1.6337159,-1.3466184,11.222616,-0.72356373,0.2562837,-0.17886874,-1.1564579,-51.55641,-17.46209,
33198395,1.6241341,-1.4184828,11.486119,-0.70012796,0.3015574,-0.17514032,,,,
33198400,1.5378969,-1.4807651,11.817894,-0.65378904,0.34097216,-0.17993401,-2.8452473,-53.074715,-18.724632,
33198405,1.5067556,-1.5502341,12.2371025,-0.5904058,0.34789634,-0.18259716,,,,
33198410,1.4444733,-1.5837708,12.566481,-0.50678265,0.32233003,-0.19058664,-1.3101101,-50.69282,-18.714035,
33198415,1.4480665,-1.5502341,12.718594,-0.4125068,0.27013212,-0.20390244,,,,
33198420,1.4109364,-1.5490363,12.703022,-0.31396994,0.20302053,-0.21295717,-1.7712708,-50.704456,-19.03489,
33198425,1.4097388,-1.4951379,12.57726,-0.21383515,0.12632155,-0.2230772,,,,
33198430,1.3546427,-1.3585958,12.382029,-0.12222249,0.04749204,-0.23000139,-2.5407696,-50.856594,-18.587982,
33198435,1.2791852,-1.159771,11.999949,-0.044990886,-0.030804828,-0.23745823,,,,33.0
33198440,1.2468462,-1.0244265,11.518458,0.008272292,-0.10803643,-0.24278456,-1.1540222,-51.58884,-19.628365,
33198445,1.1893547,-0.8004492,11.022594,0.041295458,-0.1762133,-0.24491507,,,,
33198450,1.123479,-0.6555228,10.549488,0.05993757,-0.23373751,-0.24118665,-1.1559563,-50.550026,-19.17614,
33198455,1.1330609,-0.5668901,9.90151,0.05940494,-0.2736849,-0.23106666,,,,
33198460,1.142643,-0.44711623,9.29785,0.033305984,-0.29126176,-0.2182835,-0.23279,-50.39324,-19.464523,
33198465,1.2755919,-0.35728577,8.7373085,-0.014630873,-0.28753334,-0.20869613,,,,
33198470,1.4265071,-0.3273423,8.386371,-0.076416165,-0.2651628,-0.20390244,-0.07844353,-51.266098,-18.83152,
33198475,1.4983714,-0.2997943,8.108496,-0.14352776,-0.22201963,-0.20816348,,,,
33198480,1.4768121,-0.25907117,7.998303,-0.20904146,-0.16609329,-0.21348982,0.22909164,-50.535965,-19.606148,
33198485,1.3857839,-0.25308245,8.003094,-0.2681636,-0.101644844,-0.21295717,,,,
33198490,1.1893548,-0.24350056,8.137241,-0.31077412,-0.041990094,-0.20922875,-0.8475666,-51.56796,-18.537628,
33198495,0.9965187,-0.22194123,8.277376,-0.3507215,0.011805714,-0.20123929,,,,
33198500,0.74140024,-0.16085653,8.387568,,,,-2.07942,-49.11079,-20.608658,
33198505,0.52580714,-0.07342157,8.457037,-0.3757552,0.050155196,-0.18579297,,,,
33198510,0.41561514,0.031979494,8.569624,-0.39706048,0.074123636,-0.16022663,0.23131561,-51.289223,-20.680717,
33198515,0.29464352,0.078691326,8.742099,-0.4141047,0.09010258,-0.12560557,,,,
33198520,0.30781865,0.041561402,8.962482,-0.42102888,0.10501627,-0.085125566,0.3860855,-50.720413,-22.231102,
33198525,0.4503496,-0.06863059,9.111003,-0.4141047,0.12259312,-0.042515017,,,,
33198530,0.6970839,-0.1261221,9.3517475,-0.3959952,0.14123523,-0.008959216,-2.3830166,-50.47225,-22.612381,
33198535,0.9138747,-0.22313896,9.491884,-0.36243942,0.15455103,0.016074475,,,,37.0
33198540,1.1079085,-0.24948925,9.526618,-0.32568783,0.1657363,0.02939027,-1.0022182,-49.099083,-20.891533,
33198545,1.192948,-0.26625758,9.484697,-0.27881622,0.16680156,0.03258606,,,,
33198550,1.248044,-0.22553445,9.233171,-0.23567306,0.15987734,0.02939027,0.69104004,-50.10063,-20.528282,
33198555,1.2588236,-0.21834803,8.77324,-0.201052,0.15028998,0.025129216,,,,
33198560,1.2767897,-0.14887914,8.375591,-0.18400776,0.14336576,0.018205002,-1.6155128,-49.859364,-21.826569,
33198565,1.2348688,-0.08899216,8.131252,-0.19252987,0.1375068,0.008084999,,,,
33198570,1.1510271,0.020002097,7.9791393,-0.21010672,0.12898469,-0.007361322,-0.5388241,-48.97246,-22.738647,
33198575,0.9701685,0.17091724,7.8114557,-0.2383362,0.12099522,-0.020144483,,,,
33198580,0.78930986,0.25835222,7.685693,-0.26603305,0.12099522,-0.022807645,-1.3091965,-49.113014,-21.518059,
33198585,0.61683536,0.30266857,7.6210155,-0.29319727,0.12365839,-0.014285535,,,,
33198590,0.4970614,0.34698492,7.64497,-0.32941625,0.1321805,0.0027586813,-0.08129883,-47.175705,-21.355186,
33198595,0.4287903,0.39848772,7.743184,-0.35658047,0.15348576,0.027792374,,,,
33198600,0.3808807,0.39369676,7.870145,-0.37628782,0.19343315,0.05921765,0.5354557,-48.198227,-21.328003,
33198605,0.3928581,0.34219396,8.221083,-0.38108152,0.25255525,0.08797976,,,,
33198610,0.4683157,0.24877031,8.607952,-0.36883098,0.3186016,0.11407871,0.5347595,-48.18896,-20.709076,
33198615,0.5856942,0.12540317,8.848698,-0.34432992,0.36653847,0.13644926,,,,
33198620,0.765355,0.005629234,9.339771,-0.31130674,0.3873111,0.1471019,0.23116112,-49.55043,-22.7128,
33198625,0.903095,-0.17163618,9.78533,-0.2681636,0.37665847,0.14177556,,,,
33198630,1.0252645,-0.2662576,10.040448,-0.21010672,0.33351532,0.12260082,0.38299942,-49.087334,-21.476265,
33198635,1.1881568,-0.31057394,10.052425,-0.13979933,0.25841424,0.092773445,,,,40.0
33198640,1.2444507,-0.30937618,10.083567,-0.06789405,0.16094261,0.051228173,1.1507702,-48.0438,-21.469254,
33198645,1.3426653,-0.32854006,9.894324,0.0066743963,0.059209935,9.552261E-5,,,,
33198650,1.3354788,-0.21595255,9.586506,0.08284073,-0.05530589,-0.05370028,0.0751915,-48.36654,-22.26609,
33198655,1.298349,-0.1141447,9.190054,0.14302814,-0.18047436,-0.10696346,,,,
33198660,1.1965411,-0.03629163,8.807975,0.19522604,-0.25610808,-0.1479761,1.3062572,-48.49759,-22.388718,
33198665,1.0695808,0.0691094,8.441466,0.23890185,-0.27634808,-0.17940138,,,,
33198670,0.8336262,0.28709796,8.0905285,0.26606604,-0.26249966,-0.1948477,2.07312,-48.165615,-20.671082,
33198675,0.6012647,0.49430686,7.703659,0.27565342,-0.21616067,-0.19538033,,,,
33198680,0.4012423,0.66917676,7.4114103,0.27458817,-0.12348275,-0.18526033,1.459158,-49.06173,-20.830742,
33198685,0.19642885,0.7518208,7.4389586,0.27245766,0.0038162372,-0.15916137,,,,
33198690,0.04311824,0.8727924,7.6293993,0.26393554,0.12365839,-0.12400768,0.6894741,-47.329975,-22.57235,
33198695,0.0047905967,0.98537993,7.8246307,0.25061974,0.21047735,-0.082995035,,,,
33198700,-0.062282808,1.0332894,8.127659,0.24103238,0.2637405,-0.036656067,0.69059944,-47.779144,-23.03141,
33198705,-0.089830816,1.0296963,8.290551,0.23464079,0.28398055,0.013943949,,,,
33198710,-0.056294106,1.0560465,8.483387,0.22931448,0.27439317,0.060815547,-0.08150864,-47.896538,-20.263496,
33198715,0.08623688,1.0225098,8.623523,0.23091237,0.2445658,0.10129555,,,,
33198720,0.30063218,0.95663416,8.700178,0.23251027,0.20248789,0.13644926,0.53632545,-48.20981,-22.10167,
33198725,0.5605416,0.82128966,8.694189,0.23251027,0.15668155,0.16254821,,,,
33198730,0.8336261,0.7158886,8.687003,0.22771658,0.114603646,0.17533137,1.3055611,-48.488323,-21.76979,
33198735,1.1210836,0.58293957,8.678619,0.22185764,0.08424363,0.18012506,,,,
33198740,1.3115242,0.48592266,8.7948,0.22025973,0.06719942,0.17479874,-0.2356472,-46.30285,-21.988197,
33198745,1.4720212,0.36734647,8.96368,0.21759658,0.061873097,0.155624,,,,
33198750,1.6468911,0.25715446,9.176878,0.21759658,0.055481516,0.124731354,1.6127758,-47.89865,-22.078499,
33198755,1.7606764,0.17331272,9.351748,0.22718394,0.04216572,0.08851239,,,,
33198760,1.8409249,0.1385783,9.521828,0.2431629,0.01713203,0.05069554,-0.23516273,-47.032944,-21.515434,
33198765,1.8588909,0.120612204,9.563748,0.25754395,-0.023347983,0.009682895,,,,
33198770,1.8049928,0.18888333,9.597284,0.26872924,-0.073947996,-0.030797118,1.7656307,-47.304367,-21.926819,
33198775,1.6876142,0.27152735,9.463139,0.27139238,-0.12614591,-0.07180977,,,,
33198780,1.4851964,0.31344822,9.354144,0.2729903,-0.16609329,-0.10003925,3.3042393,-48.586853,-20.480812,
33198785,1.3043377,0.3853126,9.2715,0.26872924,-0.1863333,-0.117616095,,,,
33198790,1.0995243,0.5110752,9.203229,0.25701132,-0.19538803,-0.12347505,1.6129684,-48.9143,-20.983383,
33198795,0.9414227,0.6548039,9.162506,0.23890185,-0.19272488,-0.117616095,,,,
33198800,0.77373916,0.7578095,9.151726,0.21866184,-0.17248487,-0.10270241,2.6869354,-47.412285,-20.200241,
33198805,0.6946884,0.8548264,9.217602,0.1962913,-0.14425538,-0.078201346,,,,
33198810,0.6755246,0.897945,9.219997,0.1760513,-0.1160259,-0.043047648,1.1500206,-47.744347,-21.163216,
33198815,0.7473889,0.86081505,9.108606,0.14835444,-0.08247011,-0.005763427,,,,
33198820,0.7952986,0.85722184,9.027161,0.1174618,-0.036131147,0.03205343,1.3047562,-47.89869,-21.776634,
33198825,0.87674475,0.84165126,9.114595,0.086036526,0.03257835,0.070402905,,,,
33198830,0.96178424,0.81769645,9.317014,0.05674178,0.11034259,0.1055566,2.8426762,-48.303673,-20.805107,
33198835,1.0492193,0.7039112,9.591296,0.032773353,0.18171524,0.13591662,,,,
33198840,1.1582134,0.5661712,9.890731,0.01359861,0.24509841,0.15668926,3.7629814,-46.80631,-20.180496,
33198845,1.2073208,0.43322214,10.220108,-0.0023803439,0.27918684,0.17160296,,,,
33198850,1.2779875,0.3218324,10.609375,-0.017826663,0.28078476,0.17479874,2.531973,-46.965443,-19.744972,
33198855,1.3067331,0.25356126,10.907612,-0.026348772,0.26107737,0.17000505,,,,
33198860,1.3474562,0.1972675,11.169916,-0.024750877,0.22432579,0.16148295,4.0714607,-47.391273,-20.166046,
33198865,1.3618292,0.11701898,11.204651,-0.019957192,0.17958471,0.14976504,,,,
33198870,1.3570381,0.057132006,11.221419,-0.017826663,0.13803944,0.13591662,2.5338497,-47.71407,-20.510078,
33198875,1.3067331,-0.035093904,11.168718,-0.02262035,0.10341838,0.1204703,,,,
33198880,1.3654225,-3.594756E-4,11.1279955,-0.029011933,0.081580475,0.10875239,2.5338497,-47.71407,-20.510078,
33198885,1.4516597,-0.033896163,11.1148205,-0.041262463,0.074123636,0.098632395,,,,
33198890,1.5055578,0.012815669,11.137577,-0.054045625,0.08903732,0.0837187,2.532322,-46.970078,-20.054443,
33198895,1.5127443,0.039165936,11.375927,-0.060969837,0.12046259,0.06188081,,,,
33198900,1.491185,0.0020360202,11.747227,-0.058839314,0.15987734,0.042173434,2.839243,-46.665955,-19.740799,
33198905,1.4875917,0.0020360053,12.061035,-0.041795097,0.18544367,0.017139738,,,,
33198910,1.4217161,-0.0027549416,12.346096,-0.015163505,0.1827805,-0.012687638,2.379383,-47.129086,-20.67546,
33198915,1.3977613,-0.036291644,12.440718,0.017859664,0.15135524,-0.03772133,,,,
33198920,1.3318857,-0.07581703,12.359271,0.047154408,0.098092064,-0.06115713,3.6084232,-46.65428,-19.721802,
33198925,1.2408575,-0.16444974,12.259859,0.061535466,0.040035192,-0.08725609,,,,
33198930,1.0839536,-0.18840453,12.147271,0.081242844,-0.0041732388,-0.10856137,2.6848297,-46.37116,-19.5933,
33198935,0.94381815,-0.21715026,12.022707,0.09775443,-0.0286743,-0.13146451,,,,44.0
33198940,0.802485,-0.1908,11.893351,0.10414601,-0.035598516,-0.15649821,2.3775063,-46.38046,-19.910355,
33198945,0.6084512,-0.22792992,11.819091,0.1057439,-0.039326936,-0.18419506,,,,
33198950,0.46711794,-0.24709377,11.708899,0.091895476,-0.05530589,-0.20656559,5.606598,-45.009388,-20.155449,
33198955,0.24314071,-0.25907114,11.525644,0.06952494,-0.079806946,-0.22467507,,,,
33198960,0.005988337,-0.21595253,11.154346,0.0487523,-0.09525327,-0.23159929,4.5296535,-45.458687,-19.557976,
33198965,-0.25871205,-0.12731983,10.708786,0.009870186,-0.09259011,-0.2284035,,,,
33198970,-0.58449715,-0.055455476,10.462052,-0.046588782,-0.08193747,-0.20550033,3.9132118,-45.16394,-18.957657,
33198975,-0.8743501,0.012815654,10.308742,-0.12861407,-0.061164837,-0.16928136,,,,
33198980,-1.1007228,0.05473654,10.290775,-0.22235726,-0.029739564,-0.11814873,4.529745,-45.02573,-20.182045,
33198985,-1.282779,0.040363677,10.338686,-0.31610045,0.009675187,-0.056896076,,,,
33198990,-1.3247,-0.019523308,10.48481,-0.40345204,0.049089935,0.01767237,5.1449986,-45.44935,-19.542778,
33198995,-1.1725872,-0.1512746,10.616561,-0.48121628,0.08690679,0.09756713,,,,
33199000,-0.96058726,-0.3273423,10.73873,-0.55045843,0.122060485,0.16840716,5.4529095,-44.868942,-20.47042,
33199005,-0.6324067,-0.64594096,10.853713,-0.6122437,0.15614893,0.22859456,,,,
33199010,-0.22038439,-0.9178277,10.983069,-0.67136586,0.18863946,0.27546614,3.1440678,-44.45247,-19.91362,
33199015,0.14492609,-1.2543924,11.086075,-0.72462904,0.22485842,0.30422825,,,,
33199020,0.3964513,-1.5119064,11.381916,-0.7699027,0.26214266,0.31381562,4.9886627,-43.247498,-20.036453,
33199025,0.5617393,-1.687974,11.71369,-0.8002627,0.30688372,0.30209774,,,,
33199030,0.604858,-1.8460755,12.096966,-0.8007954,0.3473637,0.28398827,4.5268345,-43.394962,-19.581947,
33199035,0.5809032,-1.931115,12.504198,-0.7741638,0.37452793,0.2610851,,,,49.0
33199040,0.52940035,-2.010166,12.940175,-0.73155326,0.3771911,0.2344535,5.7551327,-41.752472,-19.41565,
33199045,0.48268858,-2.0688553,13.243203,-0.674029,0.34896162,0.20515874,,,,
33199050,0.37848523,-2.074844,13.504311,-0.5989279,0.28451318,0.17213558,4.3731823,-42.531372,-20.833878,
33199055,0.3042254,-2.0496917,13.554615,-0.51317424,0.20248789,0.13485135,,,,
33199060,0.15331024,-1.9634542,13.444424,-0.41090888,0.113538384,0.100230284,5.603182,-41.635185,-21.277954,
33199065,0.07785268,-1.8305051,13.192898,-0.2969257,0.03257835,0.07146817,,,,
33199070,0.00718607,-1.6903695,12.929396,-0.19199724,-0.03719641,0.05069554,5.9115143,-42.36293,-20.952332,
33199075,-0.008384541,-1.5825729,12.683859,-0.10677617,-0.10697117,0.028857639,,,,
33199080,-0.06467829,-1.4604037,12.404785,-0.038599305,-0.16982172,0.0123460535,4.989687,-42.248062,-22.214706,
33199085,-0.14612454,-1.3418274,12.003543,0.023185981,-0.22841121,-0.0036328998,,,,54.0
33199090,-0.26709622,-1.2711608,11.56517,0.068459675,-0.28273964,-0.01641606,6.0642967,-43.214943,-18.92672,
33199095,-0.33416963,-1.1358162,11.076492,0.106276534,-0.32108912,-0.020144483,,,,
33199100,-0.38687015,-1.0340084,10.616561,0.13557129,-0.34505758,-0.017481325,6.986418,-40.29445,-21.723373,
33199105,-0.4707119,-0.9405848,10.216516,0.14302814,-0.35997123,-0.012155008,,,,
33199110,-0.5294011,-0.8124266,9.907499,0.13290812,-0.3711565,-0.003100268,5.7566986,-41.773315,-20.808243,
33199115,-0.61084735,-0.714212,9.603273,0.10947233,-0.37701547,0.0123460535,,,,
33199120,-0.70307326,-0.6806753,9.351748,0.07698179,-0.37168914,0.03524922,6.8332844,-42.18762,-20.002846,
33199125,-0.7725422,-0.6591161,9.143341,0.046621777,-0.35357967,0.06507659,,,,
33199130,-0.8060789,-0.6698957,8.8103695,0.009337556,-0.31576282,0.10449134,5.9093533,-41.03162,-20.658272,
33199135,-0.78332186,-0.6698957,8.507341,-0.033272985,-0.26356488,0.14869979,,,,
33199140,-0.6192316,-0.68666404,8.306122,-0.07854669,-0.18952909,0.19397348,6.9863033,-40.582314,-21.255745,
33199145,-0.33057642,-0.8986639,8.264201,-0.120624594,-0.094188005,0.23818192,,,,
33199150,-0.039525755,-1.1501892,8.443862,-0.1541804,0.016066767,0.2642809,5.755644,-39.877846,-22.223099,
33199155,0.19882436,-1.3274546,8.855885,-0.1797467,0.1172668,0.27866194,,,,
33199160,0.36291462,-1.4256692,9.3912735,-0.18187724,0.19290051,0.27866194,6.8302746,-39.108242,-21.121933,
33199165,0.46592018,-1.4412398,9.775748,-0.16430038,0.2328479,0.26641142,,,,
33199170,0.52580714,-1.458008,10.024878,-0.13447301,0.2328479,0.24936719,6.986822,-40.589264,-21.719948,
33199175,0.56533253,-1.4771719,10.230888,-0.089731954,0.2094121,0.22380087,,,,
33199180,0.5880896,-1.458008,10.240471,-0.03700141,0.16733418,0.18971242,7.9063206,-38.502266,-21.102188,
33199185,0.6683382,-1.4855561,10.211725,0.023185981,0.11140785,0.15349348,,,,61.0
33199190,0.710259,-1.4424374,9.914686,0.08763442,0.05122046,0.11141556,7.4456196,-39.098904,-21.106735,
33199195,0.6515698,-1.3382342,9.615252,0.14356075,-0.016956402,0.06933764,,,,
33199200,0.59527606,-1.1980987,9.2188,0.18404077,-0.07448063,0.0299229,6.980917,-36.892456,-20.989082,
33199205,0.46232697,-1.099884,8.848698,0.21280289,-0.115493275,-4.3710915E-4,,,,
33199210,0.38926488,-0.98490113,8.369602,0.23037975,-0.12987433,-0.026536064,6.984606,-38.967766,-21.738777,
33199215,0.22637236,-0.8783023,8.029444,0.23517343,-0.12508065,-0.04358028,,,,
33199220,0.1485193,-0.75493515,7.6521564,0.23091237,-0.102177486,-0.060624495,8.213331,-37.765182,-21.412613,
33199225,0.071863994,-0.6207884,7.368292,0.21440078,-0.06755641,-0.07021188,,,,
33199230,0.01796572,-0.53335345,7.0544844,0.190965,-0.028141668,-0.07127714,8.061808,-38.956055,-22.021645,
33199235,0.011977032,-0.41477728,6.822123,0.16007236,0.0070120282,-0.07180977,,,,
33199240,0.016767994,-0.31057394,6.762236,0.11639654,0.04749204,-0.06595082,7.7488194,-36.574387,-20.199844,
33199245,-0.03233932,-0.2914101,6.864044,0.07165547,0.081580475,-0.06328765,,,,
33199250,-0.112587854,-0.29141015,6.988609,0.03809967,0.1055489,-0.06275502,8.062902,-39.26014,-22.637161,
33199255,-0.19882509,-0.24709377,7.147908,0.005076501,0.12365839,-0.0590266,,,,
33199260,-0.30063292,-0.25547796,7.2868457,-0.021555087,0.13697419,-0.04997186,8.215017,-37.49816,-23.272835,
33199265,-0.40124303,-0.2387096,7.409015,-0.036468778,0.14869207,-0.03772133,,,,
33199270,-0.46112996,-0.2087661,7.512021,-0.04339299,0.16733418,-0.024938168,8.215071,-37.788345,-22.959946,
33199275,-0.5198192,-0.2327209,7.6042466,-0.047654044,0.19343315,-0.011622375,,,,
33199280,-0.626418,-0.23511636,7.67132,-0.044458255,0.22059737,0.007552367,6.9823246,-37.924316,-20.977097,
33199285,-0.71624845,-0.300992,7.763546,-0.03753404,0.23497842,0.02939027,,,,
33199290,-0.75577384,-0.34890157,7.961173,-0.03433825,0.23231526,0.0533587,10.678961,-39.086937,-23.502678,
33199295,-0.74499416,-0.44711623,8.217489,-0.023685614,0.21101,0.07200081,,,,
33199300,-0.7234349,-0.49861902,8.563636,8.154468E-4,0.17692155,0.085849226,7.443266,-36.75194,-21.907799,
33199305,-0.67672306,-0.61599743,8.879839,0.041295458,0.13324575,0.09916502,,,,
33199310,-0.64318633,-0.6124042,9.031952,0.08869968,0.07998258,0.10608924,9.289698,-37.018745,-21.85878,
33199315,-0.6288135,-0.5908449,9.090641,0.1424955,0.02032782,0.11301345,,,,
33199320,-0.51502824,-0.56928563,9.063093,0.18670394,-0.05583852,0.12579663,10.214155,-38.181694,-21.66755,
33199325,-0.3281809,-0.52976024,8.946913,0.21706395,-0.14265749,0.13644926,,,,
33199330,-0.099412724,-0.48783934,8.653466,0.23357552,-0.2182912,0.1423082,7.9024944,-35.701492,-21.134712,
33199335,0.091027826,-0.50580543,8.282167,0.24529342,-0.26090175,0.14177556,,,,
33199340,0.26589775,-0.44591847,7.952789,0.25115237,-0.2699565,0.13857979,10.675177,-37.444595,-22.128906,
33199345,0.4204061,-0.44831395,7.7204275,0.24369554,-0.24758595,0.13485135,,,,
33199350,0.5964738,-0.4123818,7.5371733,0.2298471,-0.19698593,0.12845978,8.828569,-37.17547,-22.023193,
33199355,0.71385217,-0.37285638,7.4509363,0.211205,-0.12454801,0.11674187,,,,
33199360,0.74738896,-0.3129694,7.561128,0.18137762,-0.050512206,0.10449134,10.826815,-36.83409,-20.894096,
33199365,0.604858,-0.23511636,7.7156363,0.15048498,0.016066767,0.0970345,,,,
33199370,0.48747954,-0.12731983,8.080947,0.13344076,0.07146047,0.09224081,9.750364,-37.14525,-20.917267,
33199375,0.29943445,-0.14169271,8.488178,0.13131022,0.113538384,0.09170818,,,,
33199380,0.13294868,-0.108155996,8.841511,0.14143023,0.13431102,0.09596923,10.365629,-36.700638,-21.371399,
33199385,0.014372513,-0.090189904,9.102618,0.15634394,0.12738681,0.10662187,,,,
33199390,-0.008384541,-0.0506645,9.415228,0.17019235,0.09755942,0.117807135,10.675634,-38.029594,-21.8126,65.0
33199395,0.031140856,-0.027907476,9.7014885,0.18989973,0.052285723,0.12313346,,,,
33199400,0.037129566,-0.023116514,9.882347,0.2165313,0.0059467647,0.12632926,10.672815,-35.96587,-21.83657,
33199405,0.10060972,-0.10216729,9.827251,0.241565,-0.036663778,0.12526399,,,,
33199410,0.1724741,-0.15606558,9.682324,0.25914186,-0.071817465,0.11940503,11.290239,-36.852566,-22.584763,
33199415,0.27787516,-0.14887913,9.505058,0.2729903,-0.088329054,0.10928503,,,,
33199420,0.36171687,-0.15247236,9.42481,0.2799145,-0.089394316,0.09916502,10.825754,-35.806858,-21.215538,
33199425,0.34375077,-0.13690174,9.426008,0.2799145,-0.076611154,0.09596923,,,,
33199430,0.29703897,-0.1908,9.478708,0.2767187,-0.064360626,0.09330607,11.288076,-35.52125,-22.290703,
33199435,0.31380734,-0.16804296,9.697895,0.261805,-0.064360626,0.092773445,,,,
33199440,0.32818016,-0.18361357,9.967386,0.24582607,-0.07820906,0.08957765,12.674208,-37.547752,-21.149406,
33199445,0.31141186,-0.26266435,9.978167,0.22931448,-0.09844906,0.085849226,,,,
33199450,0.26709548,-0.3620767,9.8404255,0.2042808,-0.11496064,0.08265344,12.055372,-35.62919,-20.413193,
33199455,0.25990906,-0.4075908,9.73263,0.16752918,-0.12827644,0.08158818,,,,
33199460,0.34494853,-0.50341,10.233284,0.13237551,-0.14372276,0.07466396,11.904421,-37.117195,-21.173538,
33199465,0.4539428,-0.68307084,10.180584,0.100417584,-0.15597329,0.06614186,,,,
33199470,0.5509597,-0.7441555,10.054821,0.047154408,-0.1511796,0.05229344,12.98139,-36.81299,-21.61457,
33199475,0.5437733,-0.71421206,10.196155,-0.005576134,-0.13733117,0.04110817,,,,
33199480,0.51742303,-0.7848787,10.766278,-0.04339299,-0.13307011,0.036847115,11.597368,-35.827614,-23.362816,
33199485,0.5078411,-0.907048,11.038164,-0.06682879,-0.14052697,0.034716588,,,,
33199490,0.46711794,-1.0040648,11.354368,-0.08067721,-0.12987433,0.03844501,12.519701,-37.685913,-20.377823,
33199495,0.49346823,-1.0447881,11.575951,-0.07108984,-0.119221695,0.04749975,,,,
33199500,0.46232697,-1.0555677,11.61308,-0.054045625,-0.12454801,0.06454396,11.287867,-36.24208,-21.199005,
33199505,0.512632,-1.0831158,11.462165,-0.039664567,-0.13360275,0.08904502,,,,
33199510,0.64797664,-1.1334207,11.268131,-0.04072983,-0.13466802,0.11567661,12.059965,-36.992935,-22.87352,
33199515,0.8084736,-1.2172625,11.004628,-0.051915098,-0.13040698,0.1423082,,,,
33199520,1.008496,-1.3226635,10.836945,-0.07588352,-0.11389538,0.16574399,13.902967,-35.622025,-21.7602,
33199525,1.2923603,-1.4843583,10.894436,-0.104113005,-0.07927432,0.18332085,,,,
33199530,1.5989816,-1.5622114,11.262142,-0.12222249,-0.023347983,0.18811454,13.749105,-35.479263,-21.92044,
33199535,1.8672751,-1.6352735,11.710096,-0.112102486,0.029382562,0.17692927,,,,
33199540,2.142755,-1.6161097,12.195181,-0.08174248,0.0602752,0.1471019,12.825926,-34.62272,-22.881912,69.0
33199545,2.3367887,-1.5897595,12.576063,-0.040197197,0.0602752,0.102360815,,,,
33199550,2.446981,-1.5478387,12.901848,0.011468082,0.026719403,0.049630277,13.442186,-35.783386,-22.234085,
33199555,2.5595684,-1.5202906,12.962933,0.06419863,-0.0403922,-0.0041655316,,,,
33199560,2.6062803,-1.5011268,12.907837,0.12012496,-0.12028696,-0.06595082,11.903284,-34.78645,-23.057732,
33199565,2.5931053,-1.449624,12.675475,0.1760513,-0.1996491,-0.12826873,,,,
33199570,2.5260317,-1.3034997,12.3496895,0.2181292,-0.27315226,-0.19165191,12.828783,-35.963295,-23.794907,
33199575,2.4254217,-1.1118615,11.884967,0.24209765,-0.3407965,-0.25450248,,,,
33199580,2.3248115,-0.9657373,11.371136,0.23570605,-0.40631023,-0.31522247,12.828783,-35.963295,-23.794907,
33199585,2.2373767,-0.8363814,10.67525,0.19362815,-0.45904076,-0.37008354,,,,
33199590,2.1331732,-0.6758844,9.90151,0.11213548,-0.49792287,-0.41535723,13.442186,-35.783386,-22.234085,
33199595,1.9762694,-0.5489241,9.204426,0.005609133,-0.5021839,-0.454772,,,,
33199600,1.8121791,-0.4866416,8.612743,-0.12009196,-0.45637763,-0.47607726,11.597368,-35.827614,-23.362816,
33199605,1.6516821,-0.5177828,8.127659,-0.25324988,-0.35357967,-0.48566464,,,,
33199610,1.4875917,-0.64713866,7.8845177,-0.4007889,-0.21189962,-0.48193622,14.210798,-34.60634,-23.157188,
33199615,1.2504394,-0.81003124,8.04262,-0.55258894,-0.051044837,-0.47021833,,,,
33199620,0.9965187,-1.0160424,8.552856,-0.69320375,0.10235311,-0.45104358,13.593889,-34.59483,-21.779785,
33199625,0.61683536,-1.1238389,9.29785,-0.8135785,0.23444578,-0.4260099,,,,
33199630,0.29584122,-1.3011042,10.063206,,,,15.132166,-34.136204,-22.211128,
33199635,0.029943109,-1.4041098,10.798617,-0.8945385,0.3319174,-0.38766038,,,,
33199640,-0.125763,-1.5933526,11.410662,-0.9435407,0.39689848,-0.3445172,14.209738,-33.579105,-23.47863,76.0
33199645,-0.21798891,-1.830505,11.96282,-0.9675091,0.4347153,-0.2923193,,,,
33199650,-0.21080247,-2.0437026,12.470661,-0.9701723,0.4592164,-0.23905613,14.054178,-31.821798,-24.121918,
33199655,-0.14971778,-2.291635,12.936583,-0.9493996,0.47572798,-0.19111927,,,,
33199660,-0.0011980981,-2.5144143,13.395316,-0.90732175,0.4863806,-0.14424768,15.133539,-33.141403,-24.698845,
33199665,0.21199946,-2.7156343,13.777395,-0.8402101,0.48425007,-0.108028725,,,,
33199670,0.43118575,-2.8809223,14.05048,-0.7454017,0.47519532,-0.0856582,13.748262,-32.86296,-24.426994,
33199675,0.65396523,-3.0030918,14.264875,-0.62715745,0.45761847,-0.074472934,,,,
33199680,0.89950186,-3.0869336,14.33075,-0.4913363,0.4240627,-0.073407665,15.438429,-33.09967,-22.215508,
33199685,1.0971289,-3.0402217,14.200197,-0.33793834,0.37452793,-0.08192977,,,,
33199690,1.2731965,-2.9072728,13.967835,-0.18667093,0.30954686,-0.10110451,16.052893,-31.197178,-23.769905,83.0
33199695,1.3726089,-2.7395892,13.509101,-0.035936143,0.22752157,-0.1309319,,,,
33199700,1.4923828,-2.5227983,12.936583,0.10521127,0.13910471,-0.16715084,15.130621,-32.378876,-23.005333,
33199705,1.5929928,-2.276064,12.166435,0.22824922,0.055481516,-0.21295717,,,,
33199710,1.6409023,-2.0293298,11.192673,0.33051452,-0.017489033,-0.2635572,16.208166,-32.371803,-23.597672,
33199715,1.6385069,-1.6843808,10.259634,0.39389768,-0.08033958,-0.31415722,,,,
33199720,1.6049702,-1.4472284,9.402054,0.4040177,-0.14798382,-0.36742038,16.362032,-32.514557,-23.437424,
33199725,1.5630493,-1.1657598,8.569624,0.37791875,-0.22361752,-0.41056356,,,,
33199730,1.4564505,-0.92142093,7.9036818,0.31133977,-0.2885986,-0.4430541,16.211313,-33.426826,-25.133018,
33199735,1.2600214,-0.67109346,7.3898516,0.21866184,-0.32535017,-0.47234884,,,,
33199740,0.958191,-0.44591844,7.1311398,0.10521127,-0.3322744,-0.48672992,16.824755,-32.52377,-24.509163,
33199745,0.5581461,-0.16924068,7.179049,-0.014630873,-0.31629544,-0.4814036,,,,
33199750,0.24194297,-0.135704,7.3623033,-0.13660353,-0.28487018,-0.45583725,18.208685,-31.19229,-25.57351,
33199755,-0.029943839,-0.06503737,7.7611504,-0.24366252,-0.22415015,-0.40896565,,,,
33199760,-0.19882508,-0.01113911,8.138439,-0.3352752,-0.14904907,-0.34185407,18.51439,-30.871956,-24.176735,
33199765,-0.4491526,-0.014732331,8.639093,-0.39546257,-0.05583852,-0.26302457,,,,
33199770,-0.56772876,-0.10216732,9.227183,-0.4247573,0.056546777,-0.17780347,18.363363,-31.056444,-26.499817,
33199775,-0.4910735,-0.19319548,9.815273,-0.4263552,0.16946472,-0.090984516,,,,
33199780,-0.2790736,-0.3824383,10.377013,-0.40664783,0.23764159,-0.007361322,17.131376,-30.623629,-25.91642,
33199785,0.009581551,-0.6088111,10.751905,-0.3640373,0.26906684,0.05868502,,,,
33199790,0.30422541,-0.7285849,10.8309555,-0.30651307,0.26587108,0.108219765,19.130869,-30.443552,-25.714005,89.0
33199795,0.56653035,-0.81601983,10.765081,-0.23354252,0.23444578,0.14337346,,,,
33199800,0.75217986,-0.88908195,10.636923,-0.15844144,0.19343315,0.16148295,18.362093,-30.750046,-25.729576,
33199805,0.99053,-0.88668656,10.440494,-0.090797216,0.13537627,0.16680928,,,,
33199810,1.1821682,-0.9154322,10.1769905,-0.03380562,0.061340462,0.16148295,17.286806,-30.787235,-27.14878,
33199815,1.3031399,-0.9513644,9.888336,0.009337556,-0.026011143,0.14443873,,,,
33199820,1.4109365,-0.88908195,9.578121,0.04449125,-0.10856906,0.12206819,18.513079,-28.53889,-25.906189,
33199825,1.4468687,-0.8112289,9.176878,0.074318625,-0.16822381,0.102360815,,,,
33199830,1.3833885,-0.7285849,8.865467,0.10467864,-0.19165961,0.085849226,18.666128,-28.960253,-24.659393,
33199835,1.2708011,-0.62198615,8.580404,0.13344076,-0.1746154,0.07200081,,,,
33199840,1.2276824,-0.53215563,8.436675,0.1558113,-0.13040698,0.06880502,19.131426,-29.727354,-27.115166,
33199845,1.1450384,-0.48304844,8.298935,0.17498603,-0.069154315,0.07093554,,,,
33199850,1.0755695,-0.37405413,8.175569,0.18723658,0.004348869,0.072533436,18.515608,-30.88817,-25.259865,
33199855,1.0228689,-0.3021898,7.943207,0.1893671,0.07998258,0.07466396,,,,
33199860,1.0204735,-0.23751184,7.823433,0.17551868,0.13431102,0.07679449,18.054575,-29.743696,-27.141762,
33199865,1.0599989,-0.18361355,7.8066645,0.1542134,0.15827945,0.075196594,,,,
33199870,1.0671853,-0.15007687,7.860563,0.12704918,0.14975734,0.0634787,20.974459,-28.501537,-25.845398,
33199875,0.98573905,-0.11055148,7.879727,0.10095022,0.11673417,0.049097646,,,,
33199880,0.89830405,-0.07222383,7.83541,0.081242844,0.073591,0.036314484,19.285345,-30.1603,-26.642029,
33199885,0.79769397,-0.054257736,7.8773313,0.058339674,0.021925718,0.028857639,,,,
33199890,0.7138522,-0.032698423,7.8533764,0.03809967,-0.028141668,0.02406395,19.746214,-30.434214,-25.698807,
33199895,0.71744543,0.02718854,7.961173,0.021055454,-0.07341537,0.02353132,,,,
33199900,0.80488044,-0.032698423,7.9432073,0.0077396594,-0.100046955,0.022998689,20.362608,-29.570536,-27.705414,
33199905,1.0144849,-0.13091305,7.7599525,-0.0066413977,-0.102177486,0.022998689,,,,
33199910,1.1474338,-0.17403166,7.586281,-0.025816139,-0.084600635,0.01128079,20.362299,-28.842754,-28.332909,
33199915,1.2564281,-0.14289044,7.59706,-0.048186675,-0.052642733,-0.003100268,,,,
33199920,1.2743943,-0.18481132,7.7228227,-0.06469826,-0.017489033,-0.019611852,18.822721,-28.849886,-27.287766,
33199925,1.1797729,-0.21235931,7.9779415,-0.06682879,0.021393085,-0.0355908,,,,
33199930,1.1749818,-0.23751184,8.291749,-0.05830668,0.05388362,-0.044645544,20.20875,-29.427776,-27.865662,
33199935,1.1079085,-0.19798645,8.595975,-0.044458255,0.059742566,-0.05370028,,,,
33199940,0.99292547,-0.13211079,8.861874,-0.01942456,0.0384373,-0.06115713,21.899939,-28.66505,-27.832428,97.0
33199945,0.9270498,-0.038687125,9.119387,0.014663873,8.781493E-5,-0.06275502,,,,
33199950,0.9366317,0.029584013,9.163704,0.057807043,-0.041457463,-0.06115713,18.824755,-28.587498,-29.457466,
33199955,1.0492193,0.010420188,9.126574,0.10893969,-0.071817465,-0.054232914,,,,
33199960,1.1546203,-0.057850942,8.990031,0.16912709,-0.073947996,-0.052102387,19.592772,-28.849794,-28.042435,
33199965,1.2073208,-0.16684523,8.772042,0.21919447,-0.04891431,-0.056896076,,,,
33199970,1.2528349,-0.19199774,8.7373085,0.2580766,-0.008966925,-0.054765545,21.13246,-29.423035,-28.4618,
33199975,1.2444507,-0.18720677,8.736111,0.28577346,0.022990981,-0.055830806,,,,
33199980,1.2444508,-0.19798644,8.773241,0.30814397,0.050155196,-0.05316765,21.132322,-28.69757,-29.244026,
33199985,1.2875694,-0.17762488,8.781624,0.3299819,0.06666678,-0.04943923,,,,
33199990,1.312722,-0.16325201,8.867862,0.34383032,0.07305837,-0.044112913,20.824839,-29.717888,-28.156502,
33199995,1.3630269,-0.14648366,8.9025955,0.3566135,0.07838469,-0.039319225,,,,
33200000,1.4887896,-0.1752294,8.883432,0.368864,0.075721525,-0.03452554,19.595865,-29.614635,-29.890678,
33200005,1.6780324,-0.18960226,8.803184,0.368864,0.06506889,-0.04144975,,,,
33200010,1.972676,-0.25907114,8.817556,0.3555482,0.04163309,-0.060624495,22.208826,-28.676596,-28.907959,
33200015,2.1966534,-0.28422365,8.822348,0.33264503,0.009142554,-0.09737609,,,,
33200020,2.2900772,-0.33931968,8.872653,0.30441555,-0.026543774,-0.14424768,21.594366,-29.710848,-28.446976,
33200025,2.2601337,-0.3105739,9.0079975,0.2868387,-0.053707995,-0.1948477,,,,
33200030,2.1595235,-0.2758395,9.0595,0.2751208,-0.08300274,-0.24065404,20.362005,-29.128307,-27.710556,
33200035,2.1966534,-0.25547794,8.933737,0.26073977,-0.11069959,-0.28805825,,,,
33200040,2.2601337,-0.19798644,8.855885,0.23677132,-0.14745118,-0.3391909,22.51869,-30.148333,-29.037971,
33200045,2.165512,-0.13330853,8.800789,0.19735657,-0.19698593,-0.3929867,,,,
33200050,1.9571056,-0.037489384,8.804381,0.14941971,-0.24492279,-0.44784778,21.593077,-28.391115,-28.926582,
33200055,1.6397047,0.14576474,8.85828,0.09775443,-0.2784786,-0.48886043,,,,
33200060,1.3163152,0.2667364,8.992427,0.05354599,-0.29925123,-0.51336145,21.90378,-29.729342,-29.98671,
33200065,0.9306431,0.3889058,9.036743,0.0120007135,-0.31309965,-0.51975304,,,,
33200070,0.5545529,0.46077013,9.016381,-0.029544564,-0.31416494,-0.50643724,22.054617,-28.529205,-28.758736,
33200075,0.3593214,0.4931091,9.063093,-0.07268774,-0.29818597,-0.47501197,,,,
33200080,0.16289218,0.47873625,9.199635,-0.116896175,-0.25877124,-0.42387936,22.671904,-28.690437,-30.289162,
33200085,0.032338597,0.507482,9.4703245,-0.1493867,-0.18580066,-0.3642246,,,,
33200090,-0.07545794,0.50987744,9.812878,-0.17015934,-0.08300274,-0.29977614,22.825014,-28.533747,-29.822876,104.0
33200095,-0.12336751,0.43082666,10.223702,-0.18027934,0.02618677,-0.2353277,,,,
33200100,-0.17007935,0.36854422,10.81299,-0.1712246,0.122060485,-0.16715084,22.517221,-28.826284,-29.362854,
33200105,-0.0071868077,0.26194543,11.337601,-0.14832145,0.18917209,-0.10430031,,,,
33200110,0.10540068,0.12779863,11.802322,-0.107308805,0.21473841,-0.0489066,22.667055,-26.02086,-29.236847,
33200115,0.25751355,-0.026709735,12.154459,-0.056176152,0.20568366,-0.008426585,,,,
33200120,0.39285812,-0.1512746,12.3760395,0.0045438693,0.17532367,0.01767237,22.973913,-26.294796,-28.142685,
33200125,0.5030501,-0.2818282,12.379633,0.06792705,0.122060485,0.036314484,,,,
33200130,0.7210387,-0.40160212,12.187995,0.11639654,0.045894146,0.042706065,23.130613,-26.764801,-30.145287,
33200135,0.8599764,-0.47825748,11.980785,0.14302814,-0.04838168,0.036847115,,,,
33200140,0.912677,-0.548924,11.747227,0.15740919,-0.14319013,0.018737635,24.20651,-27.169838,-28.720955,
33200145,0.90069956,-0.5453308,11.500492,0.14941971,-0.22095436,9.552261E-5,,,,
33200150,0.94262046,-0.49382806,11.2597475,0.12651654,-0.27155438,-0.013752902,25.59173,-27.158092,-29.305695,
33200155,1.050417,-0.5070031,11.078888,0.09775443,-0.28806597,-0.02813396,,,,
33200160,1.1055129,-0.5093987,11.098051,0.0721881,-0.26569542,-0.03772133,24.975378,-26.430386,-29.329453,
33200165,1.1390496,-0.46508232,11.251363,0.0487523,-0.211367,-0.043047648,,,,
33200170,1.0743718,-0.34051743,11.511272,0.0386323,-0.1410596,-0.044645544,25.28602,-27.478426,-30.702469,
33200175,0.92106116,-0.19439323,11.766391,0.043425985,-0.06329536,-0.03878659,,,,
33200180,0.79170525,-0.06982835,11.966413,0.06526389,0.022458348,-0.02760133,24.209135,-28.217916,-29.792107,
33200185,0.6455811,-0.017127812,12.21195,0.09935232,0.10448364,-0.005230794,,,,
33200190,0.53538907,0.0020360053,12.291,0.14036497,0.1625405,0.018737635,25.898417,-26.56147,-29.150208,113.0
33200195,0.48628178,-0.0075459033,12.219135,0.1776492,0.19290051,0.042706065,,,,
33200200,0.54616874,0.011617914,12.003543,0.20587867,0.1992921,0.062413435,24.823442,-27.32644,-29.94191,
33200205,0.562937,-0.08779442,11.690933,0.2080092,0.18704157,0.075196594,,,,
33200210,0.5844964,-0.2027774,11.331612,0.18137762,0.16413839,0.08052291,27.59435,-27.01971,-31.888474,
33200215,0.6084512,-0.33812195,11.044153,0.12704918,0.12738681,0.07999028,,,,
33200220,0.6252195,-0.46628,10.864492,0.049284935,0.0954289,0.07466396,26.053446,-26.430256,-30.385986,
33200225,0.5880896,-0.5716811,10.755499,-0.03753404,0.06879731,0.061348174,,,,
33200230,0.5581461,-0.6459409,10.72316,-0.12701616,0.04536151,0.041640803,25.900991,-27.319363,-30.534248,
33200235,0.544971,-0.76930803,10.724358,-0.21756357,0.023523612,0.02406395,,,,
33200240,0.5018524,-0.856743,10.835747,-0.29958886,0.0038162372,0.0070197354,26.05184,-24.382744,-31.493088,
33200245,0.47550213,-1.0519745,11.010618,-0.36989626,-0.010032188,-0.0036328998,,,,
33200250,0.36770558,-1.2531947,11.251362,-0.42156154,-0.017489033,-0.012155008,26.361586,-26.142353,-31.155472,
33200255,0.2826661,-1.4208782,11.434617,-0.4561826,-0.016956402,-0.014285535,,,,
33200260,0.154508,-1.5945504,11.481329,-0.4780205,-0.0073690293,-0.012155008,27.59178,-26.261818,-30.50444,
33200265,-0.0035935864,-1.7191153,11.646617,-0.48760787,0.010740451,-0.003100268,,,,
33200270,-0.23715274,-1.8820078,11.5496,-0.47908577,0.036306772,0.017139738,28.364141,-26.582024,-32.95775,
33200275,-0.5042486,-1.927522,11.35317,-0.4647047,0.06666678,0.053891335,,,,
33200280,-0.6575592,-1.9335107,11.318436,-0.45351943,0.10182048,0.1055566,28.364141,-26.582024,-32.95775,
33200285,-0.7402032,-1.8867989,11.367544,-0.43540996,0.14496365,0.16947241,,,,
33200290,-0.6791185,-1.8352959,11.482527,-0.41463733,0.19343315,0.23551875,27.898722,-24.221218,-32.37761,124.0
33200295,-0.48388702,-1.8305051,11.773577,-0.37788573,0.23870684,0.29570615,,,,
33200300,-0.15450874,-1.8820078,12.116131,-0.32781833,0.26906684,0.34417564,28.207308,-25.386557,-31.737381,
33200305,0.15929897,-2.0113635,12.28022,-0.25964147,0.27173004,0.37347037,,,,
33200310,0.36411238,-2.0724485,12.407182,-0.17601828,0.2445658,0.38252512,29.900023,-25.367825,-32.15979,
33200315,0.5557506,-2.042505,12.540131,-0.076416165,0.19343315,0.37293774,,,,
33200320,0.70307255,-2.0269341,12.378435,0.031175457,0.12951733,0.353763,29.899504,-25.360876,-31.695587,
33200325,0.78691435,-1.9227309,12.019114,0.13876708,0.06932995,0.32446826,,,,
33200330,0.7677505,-1.8233186,11.529238,0.23996711,0.016066767,0.28931457,30.054651,-24.941792,-33.398987,
33200335,0.74140024,-1.6616237,10.859701,0.32092714,-0.030804828,0.25149772,,,,
33200340,0.65875626,-1.5119064,10.184177,0.36193976,-0.0856659,0.20995243,27.899817,-24.525301,-32.99312,
33200345,0.67432684,-1.3142793,9.658369,0.3566135,-0.1527775,0.1689398,,,,
33200350,0.53299356,-1.1298275,9.174482,0.32305765,-0.22574805,0.12899241,28.977732,-25.53619,-32.645065,
33200355,0.43597674,-1.0184377,8.744494,0.27565342,-0.28966385,0.092773445,,,,
33200360,0.33895984,-0.9513644,8.41871,0.21706395,-0.33706808,0.06720712,28.827852,-27.183186,-34.17737,
33200365,0.30542314,-0.8866865,8.186348,0.15527867,-0.3711565,0.04696712,,,,
33200370,0.22397688,-0.8172176,8.071365,0.08923232,-0.39246178,0.03311869,29.133104,-25.40961,-34.190308,
33200375,0.14133286,-0.7764945,7.947998,0.020522824,-0.40364707,0.026194477,,,,
33200380,0.038327277,-0.7094211,7.9336247,-0.043925624,-0.39565757,0.026194477,29.745848,-24.497286,-32.947525,
33200385,-0.047909938,-0.751342,7.914461,-0.0955909,-0.36369967,0.040042907,,,,
33200390,-0.1293562,-0.74535334,7.930032,-0.13660353,-0.30457756,0.062946066,30.211489,-26.13726,-34.619354,138.0
33200395,-0.180859,-0.86033624,7.9503937,-0.16909407,-0.22255227,0.09330607,,,,
33200400,-0.11977429,-0.9298051,8.011478,-0.19039933,-0.13200486,0.12579663,29.59574,-25.851782,-34.63797,
33200405,-0.017966457,-1.0459859,8.0905285,-0.20904146,-0.039326936,0.155624,,,,
33200410,0.053897917,-1.1334207,8.18036,-0.22715095,0.050155196,0.18012506,29.748892,-24.971941,-35.108658,
33200415,0.1089939,-1.2328331,8.277376,-0.23780358,0.13271312,0.19770192,,,,
33200420,0.25272262,-1.3202682,8.544472,-0.24366252,0.20195524,0.2078219,30.826494,-25.25505,-35.388092,
33200425,0.38806716,-1.4759742,8.834326,-0.2383362,0.2482942,0.20675665,,,,
33200430,0.46472245,-1.5981436,9.150528,-0.22075936,0.2600121,0.196104,31.907785,-27.613466,-36.417236,
33200435,0.5150275,-1.6712058,9.426008,-0.19785619,0.24083737,0.17799453,,,,
33200440,0.5928806,-1.74307,9.5230255,-0.17069197,0.1960963,0.15029767,31.136236,-27.014656,-35.05049,
33200445,0.6359992,-1.7945728,9.634415,-0.13500565,0.13857207,0.12260082,,,,
33200450,0.7198409,-1.8113412,9.645194,-0.09612354,0.08690679,0.09117555,30.211779,-25.851707,-35.241714,
33200455,0.7342138,-1.8400869,9.511047,-0.057241414,0.04163309,0.056554493,,,,
33200460,0.74499345,-1.8233186,9.390076,-0.018359294,0.0016857099,0.021400793,31.133764,-24.955563,-35.383926,
33200465,0.6863042,-1.6999514,9.289466,0.020522824,-0.03133746,-0.011089744,,,,
33200470,0.5401801,-1.5502341,9.132563,0.055143885,-0.061164837,-0.039319225,30.214052,-27.763393,-34.90999,
33200475,0.4323835,-1.422076,8.901399,0.08443864,-0.08619852,-0.057428703,,,,
33200480,0.33656436,-1.3130816,8.542076,0.1057439,-0.10643853,-0.06648345,31.138662,-27.915325,-36.123352,
33200485,0.36171687,-1.2076806,8.098913,0.110004954,-0.12295012,-0.077136084,,,,
33200490,0.4359767,-1.1322231,7.6821,0.09828705,-0.12561327,-0.090984516,32.21154,-25.240988,-35.818115,153.0
33200495,0.49346817,-1.0447881,7.300021,0.07698179,-0.104840636,-0.10856137,,,,
33200500,0.41920838,-0.91303676,7.1946197,0.047154408,-0.0622301,-0.12454032,31.287333,-25.383873,-34.60132,
33200505,0.31740054,-0.8148221,7.2042017,0.019457558,-0.020684823,-0.13412768,,,,
33200510,0.16768314,-0.70702565,7.280857,-0.0018477121,0.010207819,-0.13519295,30.982168,-26.72449,-35.21245,
33200515,0.03832729,-0.5848562,7.349128,-0.027414037,0.025654139,-0.12454032,,,,
33200520,-0.11258785,-0.4914326,7.5467553,-0.043925624,0.024056243,-0.1058982,31.598494,-27.307104,-35.345123,
33200525,-0.30542386,-0.333331,7.683297,-0.04978457,0.022990981,-0.07660346,,,,
33200530,-0.41801137,-0.24110505,7.7575574,-0.045523517,0.03257835,-0.044112913,30.829332,-25.582294,-37.55095,
33200535,-0.43358198,-0.22912768,7.8306193,-0.031675093,0.061340462,-0.0046981634,,,,
33200540,-0.3760905,-0.28661913,7.9084725,-0.012500348,0.10395101,0.03311869,32.522324,-27.014492,-36.40889,
33200545,-0.22876857,-0.42076597,8.013873,-2.4981675E-4,0.14602892,0.05975028,,,,
33200550,0.014372513,-0.47586194,8.139637,0.011468082,0.17585629,0.070402905,32.218086,-28.656876,-37.48079,
33200555,0.1425306,-0.5417376,8.304924,0.021588085,0.19076999,0.075196594,,,,
33200560,0.11019164,-0.45550036,8.401941,0.040230196,0.19822684,0.07892502,32.058372,-25.107494,-36.59729,
33200565,0.07186398,-0.42196366,8.542076,0.066861786,0.1944984,0.084783964,,,,
33200570,0.071863994,-0.44112754,8.653466,0.090830214,0.16680156,0.090642914,33.2909,-26.560593,-36.395035,
33200575,0.08743459,-0.45550036,8.739704,0.11799443,0.1305826,0.090642914,,,,
33200580,0.09342329,-0.42675462,8.822348,0.1440934,0.089569956,0.08744713,32.983833,-27.007488,-36.39749,
33200585,0.09462103,-0.39082247,8.852291,0.15953971,0.030980458,0.083186075,,,,
33200590,0.15690349,-0.32255134,8.855885,0.17179026,-0.03187009,0.07413133,32.985855,-27.613338,-37.473785,
33200595,0.209604,-0.2914101,8.740902,0.17871445,-0.09152484,0.062413435,,,,
33200600,0.3461463,-0.30937618,8.629512,0.17445341,-0.15224487,0.04696712,33.908638,-28.17507,-36.515747,
33200605,0.43717447,-0.29021236,8.446257,0.1558113,-0.1980512,0.034183957,,,,
33200610,0.4910727,-0.25068697,8.217489,0.12651654,-0.22308488,0.026194477,34.218452,-28.488382,-38.052048,
33200615,0.5617393,-0.22194125,8.120472,0.09722179,-0.22308488,0.02406395,,,,
33200620,0.5868919,-0.20157966,8.137241,0.07165547,-0.18846382,0.027792374,33.138855,-27.744514,-36.53987,
33200625,0.5521574,-0.19918416,8.251026,0.047154408,-0.12774381,0.033651326,,,,
33200630,0.5593439,-0.2303254,8.531297,0.029577563,-0.060099576,0.039510276,32.83351,-29.082813,-36.99626,
33200635,0.5413778,-0.29620105,8.785217,0.015196504,8.781493E-5,0.049630277,,,,
33200640,0.5904851,-0.33333096,9.180471,0.008272292,0.04269835,0.06188081,33.448265,-27.763008,-38.079605,164.0
33200645,0.62162626,-0.40040436,9.539793,0.01359861,0.071993105,0.06773975,,,,
33200650,0.61683536,-0.43274334,9.918279,0.035969142,0.09010258,0.06933764,35.142937,-28.928183,-38.79779,
33200655,0.61084664,-0.46388453,10.305149,0.0721881,0.097026795,0.06401133,,,,
33200660,0.5868919,-0.4626868,10.561464,0.121722855,0.09223311,0.057619754,32.833702,-30.098465,-35.90114,
33200665,0.61443985,-0.53694665,10.686029,0.17179026,0.07998258,0.04643449,,,,
33200670,0.6419879,-0.5573082,10.835747,0.2245208,0.052285723,0.0315208,32.373825,-29.54826,-38.085663,
33200675,0.600067,-0.5249692,10.986662,0.2751208,0.012870977,0.013411316,,,,
33200680,0.60246253,-0.45789585,10.999838,0.32625347,-0.035598516,-0.0068286904,35.297806,-29.807985,-38.628967,
33200685,0.5844964,-0.38842702,10.9231825,0.36673346,-0.09685116,-0.02813396,,,,
33200690,0.57012355,-0.36447224,10.621351,0.39389768,-0.16343012,-0.04358028,35.145477,-30.40922,-39.244858,
33200695,0.66594267,-0.38842696,10.211725,0.39975664,-0.22415015,-0.060091868,,,,
33200700,0.682711,-0.3956134,9.876358,0.3843103,-0.26036912,-0.07180977,36.98738,-28.734228,-37.51602,
33200705,0.733016,-0.37165862,9.574528,0.35821134,-0.25717333,-0.08086451,,,,
33200710,0.7354115,-0.32135358,9.352946,0.32145977,-0.22255227,-0.08832135,33.45244,-30.568413,-38.356537,
33200715,0.6839087,-0.39321795,9.138551,0.27405554,-0.16715856,-0.088853985,,,,
33200720,0.5425755,-0.41238177,9.004404,0.21333553,-0.09951432,-0.07979925,33.453186,-30.867865,-38.662582,
33200725,0.42399934,-0.39441565,9.017578,0.14356075,-0.030804828,-0.059559226,,,,
33200730,0.33656433,-0.44232526,9.241556,0.06632915,0.036306772,-0.033460274,35.606598,-31.120731,-37.987045,
33200735,0.2611068,-0.5980314,9.590098,-0.005576134,0.09649416,-0.0025676363,,,,
33200740,0.25871134,-0.7657148,9.994934,-0.06736142,0.1438984,0.022998689,35.146378,-29.697655,-40.95549,
33200745,0.2802706,-0.8938729,10.466843,-0.111037225,0.18064998,0.042173434,,,,
33200750,0.2910503,-0.95735306,11.023792,-0.13979933,0.20302053,0.05602186,34.682747,-30.400011,-38.173126,
33200755,0.25392038,-1.0376017,11.526842,-0.14672354,0.20302053,0.061348174,,,,
33200760,0.3808807,-1.1861212,11.996357,-0.1392667,0.18064998,0.062946066,35.454903,-32.309288,-38.441345,
33200765,0.4419654,-1.3202682,12.352085,-0.12222249,0.14016996,0.054423966,,,,
33200770,0.48388627,-1.3657823,12.664696,-0.08653616,0.086374156,0.040575538,34.53157,-31.595516,-39.09163,
33200775,0.5437733,-1.4256692,12.790457,,,,,,,
33200780,0.5832987,-1.5310702,12.831181,-0.04605615,0.024056243,0.020335529,34.84053,-32.910583,-38.604416,
33200785,0.600067,-1.7346859,12.629961,-0.0071740285,-0.045718517,0.0011607861,,,,
33200790,0.7186432,-1.8496689,12.422752,0.024783876,-0.11442801,-0.020144483,33.914078,-32.155113,-36.469513,
33200795,0.765355,-1.8448778,12.306571,0.047154408,-0.16502804,-0.036123432,,,,
33200800,0.75217986,-1.6915672,12.328131,0.06739441,-0.19325751,-0.05370028,35.608574,-30.568157,-40.46962,
33200805,0.65995395,-1.5490363,12.38682,0.08869968,-0.20018172,-0.06914661,,,,
33200810,0.65995395,-1.4268669,12.340108,0.10787442,-0.19645329,-0.074472934,36.378944,-33.17742,-38.253525,
33200815,0.66234946,-1.3394319,12.352085,0.1291797,-0.19219224,-0.06808135,,,,
33200820,0.70546806,-1.2831383,12.299385,0.14196287,-0.18100697,-0.059559226,35.148582,-33.055634,-38.749847,
33200825,0.8180555,-1.2256467,12.208357,0.15847446,-0.16715856,-0.04677607,,,,
33200830,1.0049028,-1.1825281,12.093373,0.17551868,-0.15384276,-0.030797118,35.14894,-34.0736,-37.809464,
33200835,1.2001343,-1.1286299,11.96282,0.18776919,-0.14798382,-0.016948694,,,,
33200840,1.3941681,-1.0639518,11.725668,0.19895446,-0.15224487,-0.017481325,34.07482,-33.83682,-40.62468,180.0
33200845,1.5450833,-0.9621441,11.50169,0.19682394,-0.16928908,-0.022807645,,,,
33200850,1.6409025,-0.8627317,11.204651,0.19043235,-0.19538803,-0.033992905,35.1491,-33.062584,-39.21405,
33200855,1.684021,-0.76092386,10.874075,0.17232287,-0.22255227,-0.05103712,,,,
33200860,1.6983938,-0.6171952,10.404561,0.14196287,-0.24492279,-0.06648345,34.38215,-33.827515,-40.307617,
33200865,1.758281,-0.53455114,9.962595,0.10308074,-0.2550428,-0.07607082,,,,
33200870,1.8205633,-0.526167,9.521828,0.054611254,-0.24279226,-0.079266615,35.460045,-33.825073,-41.20941,
33200875,1.8541001,-0.558506,9.167296,-0.009837188,-0.20763856,-0.07660346,,,,
33200880,1.9798627,-0.5920427,8.951703,-0.08919932,-0.15064697,-0.069679245,33.306046,-34.14331,-40.640244,
33200885,2.0193882,-0.6974437,8.813963,-0.18187724,-0.07767642,-0.059559226,,,,
33200890,2.0708907,-0.9190255,8.79959,-0.27775097,0.019262558,-0.044645544,35.151672,-33.820477,-40.598083,
33200895,2.1499414,-1.1585734,8.991228,-0.37362468,0.12578891,-0.025470803,,,,
33200900,2.2804952,-1.4100986,9.408042,-0.46790048,0.23231526,-0.005230794,33.460907,-35.891357,-39.378036,
33200905,2.409851,-1.5861663,9.842821,-0.5499258,0.3196669,0.008617631,,,,
33200910,2.5344157,-1.7837932,10.329103,-0.61330897,0.3825174,0.0123460535,32.534897,-33.839317,-39.27008,
33200915,2.6973085,-1.9957931,10.754301,-0.65751743,0.4176711,0.010215526,,,,
33200920,2.832653,-2.2281547,11.183092,-0.67829007,0.43524796,-0.0046981634,32.53196,-32.06346,-38.82643,
33200925,2.9236813,-2.382663,11.506481,-0.6766921,0.43311745,-0.030264487,,,,
33200930,3.057828,-2.488064,11.67656,-0.64899534,0.42139953,-0.056896076,34.844833,-34.559875,-40.442383,
33200935,3.1392741,-2.5144143,11.841848,-0.6015911,0.41713846,-0.09045188,,,,
33200940,3.1931725,-2.588674,12.320944,-0.5398058,0.4176711,-0.12880136,33.612305,-33.106777,-40.644638,193.0
33200945,3.2315001,-2.6293974,12.318548,-0.45724785,0.4038227,-0.1746077,,,,
33200950,3.1823928,-2.4796798,12.288605,-0.36350465,0.37825635,-0.23106666,34.229088,-34.274395,-40.461014,
33200955,3.048246,-2.317985,12.389215,-0.26603305,0.35961425,-0.28805825,,,,
33200960,2.8745737,-2.1455107,12.391611,-0.1595067,0.32925427,-0.3455825,35.763924,-33.046295,-38.73465,
33200965,2.7009015,-1.935906,12.1975765,-0.05244773,0.26959947,-0.3993783,,,,
33200970,2.4385967,-1.7310927,11.797531,0.04555651,0.18118262,-0.44624987,35.763924,-33.046295,-38.73465,
33200975,2.2852862,-1.5789797,11.250164,0.12598391,0.081580475,-0.485132,,,,
33200980,2.1810827,-1.449624,10.750708,0.18137762,-0.019086929,-0.50750256,36.691216,-34.53649,-40.70627,
33200985,2.1750941,-1.3645844,10.193759,0.2181292,-0.104840636,-0.52028567,,,,
33200990,2.124789,-1.2567879,9.497872,0.22398816,-0.14691855,-0.5277425,35.614426,-33.974777,-41.513382,
33200995,2.0864615,-1.1346185,9.019974,0.20587867,-0.14212486,-0.52401406,,,,
33201000,2.0301676,-1.0867089,8.681014,0.17392078,-0.10430801,-0.5181551,34.538986,-35.022984,-41.527985,
33201005,1.9882468,-1.0004717,8.453444,0.13663656,-0.04891431,-0.50483936,,,,
33201010,1.9678851,-0.91782767,8.325285,0.09296074,0.016066767,-0.4904583,34.845245,-33.98645,-41.53238,
33201015,1.9511169,-0.9010593,8.340857,0.047154408,0.08264574,-0.47767517,,,,
33201020,1.9678853,-0.9154322,8.482189,0.015196504,0.14176786,-0.4632941,33.307823,-33.44332,-43.124542,
33201025,2.0205858,-0.88189554,8.555252,-0.011435082,0.18118262,-0.45743513,,,,
33201030,2.0816703,-0.9429803,8.625918,-0.025816139,0.1976942,-0.45690253,35.307716,-33.558067,-42.9187,
33201035,2.1822805,-0.8962684,8.645082,-0.035936143,0.19396578,-0.46595725,,,,
33201040,2.2601337,-0.95735306,8.640291,-0.04286036,0.17638893,-0.4835341,34.382507,-32.09567,-42.803894,206.0
33201045,2.2733088,-0.9597485,8.660652,-0.039664567,0.15721418,-0.51336145,,,,
33201050,2.234981,-0.9178277,8.615139,-0.033272985,0.12951733,-0.54691726,34.074913,-33.403854,-41.24875,
33201055,2.1583257,-0.7848786,8.578009,-0.031142456,0.09170048,-0.58526677,,,,
33201060,2.0062127,-0.6758844,8.51333,-0.032207724,0.043230984,-0.6246815,34.226753,-32.940765,-40.012222,
33201065,1.8421227,-0.56090146,8.291749,-0.03700141,-0.012695347,-0.65663946,,,,
33201070,1.6432979,-0.475862,7.882122,-0.05937194,-0.067023784,-0.6811405,35.305153,-31.931934,-42.628082,
33201075,1.4516596,-0.36207673,7.7431846,-0.08600353,-0.11123221,-0.69285834,,,,
33201080,1.3750043,-0.34530836,7.6150265,-0.11316775,-0.13626592,-0.70084786,34.846207,-33.56507,-42.9301,
33201085,1.2540326,-0.36566994,7.4641113,-0.15524565,-0.14425538,-0.70617414,,,,
33201090,1.1582135,-0.35009933,7.5156145,-0.20051935,-0.13360275,-0.70936996,35.150764,-31.782228,-42.324127,
33201095,1.0432305,-0.3548903,7.7419863,-0.23673831,-0.11442801,-0.7077721,,,,
33201100,0.9545978,-0.31177166,7.915659,-0.2649678,-0.09685116,-0.7056415,35.766724,-31.346876,-43.3972,
