Date created: 2021-10-22-21-28-52-632000000
Timestamp,acc_x,acc_y,acc_z,gyro_x,gyro_y,gyro_z,mag_x,mag_y,mag_z,light
30327221,,,,0.03179645,-0.025261726,0.06921216,,,,
30327223,0.06108433,-0.09138766,9.136155,,,,,,,
30327225,-0.001198113,-0.09378314,9.0595,,,,,,,
30327226,,,,-0.0081509305,0.010957235,0.06708164,,,,
30327228,0.0059883296,-0.08899215,9.037941,,,,4.9570885,-8.577202,-47.02021,
30327230,0.0011973679,-0.14887914,8.973263,,,,,,,
30327231,,,,-0.05022884,0.045045663,0.06708164,,,,
30327233,-0.039525762,-0.16804296,8.918167,,,,,,,
30327235,-0.056294113,-0.16564748,8.944517,,,,,,,
30327236,,,,-0.098698325,0.072742514,0.07187533,,,,
30327238,-0.0682715,-0.13929722,8.982845,,,,5.263197,-8.551685,-45.620018,
30327240,-0.06348054,-0.12731981,9.01159,,,,,,,
30327241,,,,-0.14823307,0.09351516,0.07453848,,,,
30327243,-0.0682715,-0.13690174,9.093037,,,,,,,
30327245,-0.07785343,-0.14408818,9.191251,,,,,,,
30327246,,,,-0.18604992,0.11322253,0.07720164,,,,
30327248,-0.06348054,-0.11055148,9.267907,,,,6.798765,-6.609707,-45.44953,
30327250,-0.08024889,-0.11773792,9.363726,,,,,,,
30327251,,,,-0.21427941,0.13133201,0.07879954,,,,
30327253,-0.087435335,-0.12252888,9.505059,,,,,,,
30327255,-0.089830816,-0.13929722,9.634415,,,,,,,
30327256,,,,-0.23505205,0.13399518,0.07560374,,,,
30327258,-0.14013585,-0.14648366,9.73742,,,,6.3399944,-8.245159,-45.906303,
30327260,-0.16169517,-0.14408818,9.883545,,,,,,,
30327261,,,,-0.24623732,0.12174463,0.07507111,,,,
30327263,-0.11857656,-0.1416927,9.996132,,,,,,,
30327265,-0.111390114,-0.18002033,10.099138,,,,,,,
30327266,,,,-0.24197625,0.09458042,0.07773427,,,,
30327268,-0.12576298,-0.17762488,10.238075,,,,7.570114,-7.0611076,-46.818,
30327270,-0.104203686,-0.1967887,10.278799,,,,,,,
30327271,,,,-0.22706257,0.06368778,0.07507111,,,,
30327273,-0.0682715,-0.21116155,10.288381,,,,,,,
30327276,-0.10659915,-0.2423028,10.331499,-0.20309414,0.030131977,0.07240795,,,,
30327278,-0.089830816,-0.2399073,10.45846,,,,7.2626896,-8.371613,-45.417595,
30327281,-0.09462176,-0.2399073,10.503974,-0.17326677,-0.0060869823,0.07613637,,,,
30327283,-0.10899465,-0.26625755,10.503974,,,,,,,
30327286,-0.09462176,-0.27104858,10.494391,-0.1386457,-0.036979627,0.079332165,,,,
30327288,-0.085039854,-0.27104858,10.55907,,,,4.649912,-8.4437275,-47.64846,
30327291,-0.039525762,-0.24469826,10.58542,,,,,,,
30327292,,,,-0.10455728,-0.058284897,0.08199533,,,,
30327293,-0.039525762,-0.2399073,10.623748,,,,,,,
30327296,-0.05150315,-0.25428018,10.681239,,,,,,,
30327297,,,,-0.07206675,-0.08331859,0.08093006,,,,
30327298,-0.101808205,-0.24948928,10.736335,,,,7.2604275,-5.5916862,-46.84272,
30327301,-0.087435335,-0.23511639,10.7387295,,,,,,,
30327302,,,,-0.035315152,-0.11314597,0.08039743,,,,
30327303,-0.07785343,-0.27104858,10.688425,,,,,,,
30327306,-0.10659915,-0.2638621,10.714776,,,,,,,
30327307,,,,-1.6145402E-4,-0.14297333,0.0798648,,,,
30327308,-0.14492682,-0.24469826,10.688425,,,,5.4161167,-7.379347,-46.248833,
30327311,-0.2024183,-0.25907114,10.623748,,,,,,,
30327312,,,,0.036590137,-0.16161545,0.08572374,,,,
30327313,-0.20720926,-0.3093762,10.609375,,,,,,,
30327316,-0.18564996,-0.31895813,10.635725,,,,,,,
30327317,,,,0.076004885,-0.16960493,0.09424585,,,,
30327318,-0.180859,-0.31895813,10.515951,,,,6.1847763,-7.3607254,-45.765648,
30327321,-0.13055395,-0.3309355,10.53751,,,,,,,
30327322,,,,0.1132891,-0.16161545,0.10383323,,,,
30327323,-0.12097203,-0.3668677,10.45846,,,,,,,
30327326,-0.04910767,-0.37644956,10.288381,,,,,,,
30327327,,,,0.14524703,-0.13604912,0.11288796,,,,
30327328,-0.003593579,-0.39800885,10.221307,,,,6.4928513,-7.650873,-45.754616,
30327331,0.041920513,-0.38124058,10.044042,,,,,,,
30327332,,,,0.17187862,-0.100895435,0.11768165,,,,
30327333,0.05868885,-0.43873206,9.938641,,,,,,,
30327336,0.10899392,-0.4770597,9.8404255,,,,,,,
30327337,,,,0.1867923,-0.056687,0.118746914,,,,
30327338,0.1449261,-0.46987328,9.68472,,,,6.184986,-6.6398907,-46.857338,
30327341,0.19044018,-0.47466418,9.560155,,,,,,,
30327342,,,,0.18572704,-0.013543826,0.117149025,,,,
30327343,0.22876784,-0.47466418,9.447568,,,,,,,
30327346,0.23595428,-0.44591853,9.337376,,,,,,,
30327347,,,,0.16708493,0.026403556,0.10756165,,,,
30327348,0.2647,-0.36926314,9.188856,,,,6.8002377,-7.0635147,-46.21807,
30327351,0.32219148,-0.34291288,9.126573,,,,,,,
30327352,,,,0.13512702,0.067948826,0.099572174,,,,
30327353,0.3102141,-0.28781685,8.987636,,,,,,,
30327356,0.31500506,-0.218348,8.951704,,,,,,,
30327357,,,,0.09358173,0.1126899,0.086256385,,,,
30327358,0.34854174,-0.20397511,8.855884,,,,7.7250404,-8.231096,-46.33631,
30327361,0.3533327,-0.23511639,8.784019,,,,,,,
30327362,,,,0.0376554,0.16275729,0.07081006,,,,
30327363,0.35093725,-0.1752294,8.762461,,,,,,,
30327366,0.31979603,-0.17283392,8.700178,,,,,,,
30327367,,,,-0.025727777,0.20217204,0.057494268,,,,
30327368,0.2814684,-0.11773792,8.6714325,,,,6.6489944,-8.837076,-46.356056,
30327371,0.2718864,-0.15127462,8.673828,,,,,,,
30327372,,,,-0.09070886,0.23626046,0.042580582,,,,
30327373,0.21439496,-0.11534244,8.673828,,,,,,,
30327376,0.21918592,-0.057850927,8.774438,,,,,,,
30327377,,,,-0.16261414,0.26448995,0.028732156,,,,
30327378,0.20720854,-0.07461932,8.772043,,,,6.341461,-9.567209,-45.58143,
30327381,0.16648537,-0.08899215,8.824743,,,,,,,
30327382,,,,-0.22919309,0.28472996,0.017546887,,,,
30327384,0.14732155,-0.050664514,8.925353,,,,,,,
30327386,0.08743459,-0.03389615,9.018777,,,,,,,
30327387,,,,-0.2941742,0.29165417,0.007959516,,,,
30327388,,,,,,,5.418434,-7.699642,-47.947487,
30327389,0.07066625,-0.08420122,9.083455,,,,,,,
30327391,0.015570253,-0.06503737,9.174483,,,,,,,
30327392,,,,-0.3453068,0.28419733,-0.0026931195,,,,
30327394,-0.06108506,-0.03389615,9.296652,,,,,,,
30327396,-0.046712205,-0.06264192,9.46194,,,,,,,
30327397,,,,-0.3831237,0.27460995,-0.009617331,,,,
30327398,,,,,,,7.8767796,-6.319393,-46.818962,
30327399,-0.111390114,-0.050664514,9.576922,,,,,,,
30327401,-0.15450874,-0.07222381,9.74221,,,,,,,
30327402,,,,-0.40123317,0.26076153,-0.016541544,,,,
30327404,-0.22397761,-0.03868714,9.838031,,,,,,,
30327406,-0.21439569,-0.048269033,9.9602,,,,,,,
30327407,,,,-0.40602684,0.24478257,-0.019204704,,,,
30327408,,,,,,,7.5670013,-5.282933,-46.219612,
30327409,-0.25990978,-0.07461932,10.08716,,,,,,,
30327411,-0.3054239,-0.0985741,10.194957,,,,,,,
30327412,,,,-0.39910266,0.22187942,-0.016008914,,,,
30327414,-0.3389606,-0.103365034,10.343477,,,,,,,
30327416,-0.38207918,-0.14887914,10.367431,,,,,,,
30327417,,,,-0.3799279,0.18672572,-0.010682597,,,,
30327418,,,,,,,7.4175777,-7.5149345,-47.4356,
30327419,-0.3916611,-0.17283392,10.408154,,,,,,,
30327421,-0.42519778,-0.19918418,10.393782,,,,,,,
30327422,,,,-0.3564921,0.14997414,-0.0048236465,,,,
30327424,-0.42280233,-0.1752294,10.515951,,,,,,,
30327426,-0.40603396,-0.20397511,10.604584,,,,,,,
30327427,,,,-0.32400155,0.111092,0.0026331982,,,,
30327428,,,,,,,6.1844826,-7.6462765,-45.143272,
30327429,-0.40363848,-0.18960229,10.630934,,,,,,,
30327431,-0.43238425,-0.1967887,10.650098,,,,,,,
30327432,,,,-0.29044577,0.06528567,0.010090043,,,,
30327434,-0.39645207,-0.20157966,10.662075,,,,,,,
30327436,-0.36531085,-0.19439322,10.681239,,,,,,,
30327437,,,,-0.251031,0.01575092,0.019677414,,,,
30327438,,,,,,,7.107683,-6.766344,-46.36863,
30327439,-0.3701018,-0.2207435,10.688425,,,,,,,
30327441,-0.3605199,-0.24948928,10.695612,,,,,,,
30327442,,,,-0.20735519,-0.031120675,0.028199522,,,,
30327444,-0.31500578,-0.24709377,10.698007,,,,,,,
30327446,-0.27428266,-0.22792992,10.702798,,,,,,,
30327447,,,,-0.16474466,-0.070002794,0.030862683,,,,
30327448,,,,,,,7.568815,-6.6096153,-46.2042,
30327449,-0.22637309,-0.278235,10.714776,,,,,,,
30327451,-0.14253134,-0.2566757,10.652493,,,,,,,
30327452,,,,-0.120003596,-0.09983017,0.031927943,,,,
30327454,-0.1473223,-0.28063044,10.595002,,,,,,,
30327456,-0.116181076,-0.30458525,10.55907,,,,,,,
30327457,,,,-0.0747299,-0.12166807,0.02713426,,,,
30327458,,,,,,,7.7237206,-6.7662716,-46.97236,
30327459,-0.06108506,-0.32374904,10.513556,,,,,,,
30327461,-0.03713028,-0.31177166,10.489601,,,,,,,
30327462,,,,-0.03851094,-0.1323207,0.019677414,,,,
30327464,-0.039525762,-0.3477039,10.4345045,,,,,,,
30327466,-0.003593579,-0.3477039,10.41534,,,,,,,
30327467,,,,-0.0060204025,-0.13924493,0.010622675,,,,
30327468,,,,,,,6.338045,-6.193014,-46.703926,
30327469,0.0059883296,-0.3141671,10.341081,,,,,,,
30327471,-0.04192123,-0.32614455,10.202143,,,,,,,
30327472,,,,0.01635013,-0.1424407,0.00316583,,,,
30327474,-0.034734815,-0.29979423,10.151838,,,,,,,
30327476,0.020361215,-0.2638621,10.072787,,,,,,,
30327477,,,,0.03499224,-0.13125543,-0.0032257512,,,,
30327478,,,,,,,6.185589,-7.082119,-46.852196,
30327479,0.046711475,-0.23751184,10.058414,,,,,,,
30327481,0.075457215,-0.26865306,10.101533,,,,,,,
30327482,,,,0.05523225,-0.09769965,-0.010682597,,,,
30327484,0.13534415,-0.3093762,10.082369,,,,,,,
30327486,0.15211254,-0.30218974,10.096742,,,,,,,
30327487,,,,0.079733305,-0.05881753,-0.016008914,,,,
30327488,,,,,,,7.26215,-7.3513317,-46.20324,
30327489,0.18564922,-0.29979423,10.103929,,,,,,,
30327491,0.23116332,-0.3740541,10.041646,,,,,,,
30327492,,,,0.10103858,-0.018870145,-0.023998389,,,,
30327494,0.24074522,-0.39800885,9.984155,,,,,,,
30327497,0.22637233,-0.36926314,9.969782,0.12021332,0.027468817,-0.03784681,,,,
30327498,,,,,,,6.3366356,-5.16115,-46.71592,
30327499,0.2000221,-0.40040436,9.917081,,,,,,,
30327502,0.19523114,-0.36926314,9.9194765,0.1298007,0.07061199,-0.057554185,,,,
30327504,0.17846277,-0.3357264,9.871567,,,,,,,
30327507,0.11857581,-0.31177166,9.9194765,0.13352914,0.10310253,-0.0793921,,,,
30327508,,,,,,,6.4926033,-6.3450375,-47.162636,
30327509,0.08503914,-0.26146665,9.8931265,,,,,,,
30327512,0.020361215,-0.27344403,9.945827,,,,,,,
30327513,,,,0.13565966,0.12174463,-0.09856684,,,,
30327514,-0.056294113,-0.218348,9.902708,,,,,,,
30327517,-0.09462176,-0.18960229,9.955409,,,,,,,
30327518,,,,0.12926807,0.12600571,-0.10921948,6.4906883,-6.319557,-45.460564,
30327519,-0.13294941,-0.19918418,9.9602,,,,,,,
30327522,-0.24553691,-0.19918418,9.921872,,,,,,,
30327523,,,,0.12181122,0.121212,-0.11348052,,,,
30327524,-0.31021482,-0.1752294,9.953013,,,,,,,
30327527,-0.3677063,-0.1416927,9.967386,,,,,,,
30327528,,,,0.121278584,0.11375516,-0.10549106,5.5696144,-6.504137,-47.02897,
30327529,-0.39645207,-0.15846106,9.974573,,,,,,,
30327532,-0.46112996,-0.13929722,10.012901,,,,,,,
30327533,,,,0.121278584,0.09884147,-0.09963211,,,,
30327534,-0.46112996,-0.14648366,9.996132,,,,,,,
30327537,-0.41801137,-0.11534244,9.969782,,,,,,,
30327538,,,,0.11808279,0.072742514,-0.09004474,6.184023,-7.0612717,-45.459602,
30327539,-0.40363848,-0.105760545,9.984155,,,,,,,
30327542,-0.46592093,-0.09617859,9.964991,,,,,,,
30327543,,,,0.11222384,0.039186712,-0.080989994,,,,
30327544,-0.46592093,-0.09617859,9.955409,,,,,,,
30327547,-0.44436163,-0.08420122,9.948223,,,,,,,
30327548,,,,0.1063649,-7.606648E-4,-0.07885946,7.417715,-8.240398,-46.653374,
30327549,-0.45154807,-0.055455476,9.984155,,,,,,,
30327552,-0.4922712,-0.031500697,9.984155,,,,,,,
30327553,,,,0.10263647,-0.047099628,-0.0777942,,,,
30327554,-0.52101696,0.01401341,9.974573,,,,,,,
30327557,-0.56174004,0.09066872,9.926662,,,,,,,
30327558,,,,0.10103858,-0.09397123,-0.07459842,6.338585,-7.213295,-45.91828,
30327559,-0.5401808,0.05473654,9.926662,,,,,,,
30327562,-0.60006773,0.10504159,9.9602,,,,,,,
30327563,,,,0.097310156,-0.14031018,-0.066608936,,,,
30327564,-0.6407909,0.15534665,9.950618,,,,,,,
30327567,-0.6288135,0.14576472,9.823658,,,,,,,
30327568,,,,0.08878805,-0.18345335,-0.056488924,6.6444435,-5.8819447,-45.926094,
30327569,-0.61204517,0.14097376,9.787725,,,,,,,
30327572,-0.626418,0.17451046,9.744607,,,,,,,
30327573,,,,0.078135416,-0.22073756,-0.041575238,,,,
30327574,-0.62402254,0.10743706,9.679929,,,,,,,
30327577,-0.5904858,0.18888333,9.603273,,,,,,,
30327578,,,,0.061091196,-0.24736916,-0.028792074,5.41424,-6.630718,-45.483727,
30327579,-0.5737175,0.22960648,9.598483,,,,,,,
30327582,-0.5856949,0.19127882,9.574528,,,,,,,
30327583,,,,0.04457961,-0.26228285,-0.016541544,,,,
30327584,-0.55694914,0.21044263,9.55776,,,,,,,
30327587,-0.64318633,0.2679341,9.562551,,,,,,,
30327588,,,,0.027002765,-0.27879444,-2.9960647E-5,7.569008,-7.625265,-45.109077,
30327589,-0.64558184,0.28709796,9.562551,,,,,,,
30327592,-0.56653106,0.30626178,9.519432,,,,,,,
30327593,,,,0.012621708,-0.29850182,0.014883729,,,,
30327594,-0.56413555,0.32303014,9.457149,,,,,,,
30327597,-0.56174004,0.32542562,9.507455,,,,,,,
30327598,,,,-0.0060204025,-0.31075236,0.029797418,7.2635975,-7.6600456,-47.128227,
30327600,-0.5258079,0.3493804,9.445172,,,,,,,
30327602,-0.46352547,0.41166285,9.392472,,,,,,,
30327603,,,,-0.017738303,-0.31394812,0.043645844,,,,
30327605,-0.43717518,0.41166285,9.323003,,,,,,,
30327607,-0.4132204,0.41166285,9.294257,,,,,,,
30327608,,,,-0.03744568,-0.3064913,0.054298483,6.800991,-7.3629684,-46.524117,
30327610,-0.40603396,0.4044764,9.263116,,,,,,,
30327612,-0.3605199,0.447595,9.255929,,,,,,,
30327613,,,,-0.05235937,-0.2899797,0.061222687,,,,
30327615,-0.31261033,0.4044764,9.157715,,,,,,,
30327617,-0.27907363,0.42364025,9.126573,,,,,,,
30327618,,,,-0.06940358,-0.2590871,0.066549,5.108326,-7.6718845,-45.78881,
30327620,-0.25511882,0.45478147,9.114595,,,,,,,
30327622,-0.22876856,0.49790007,9.121782,,,,,,,
30327623,,,,-0.086447805,-0.2074218,0.0681469,,,,
30327625,-0.18804543,0.47873622,9.1074095,,,,,,,
30327627,-0.19044091,0.5410187,9.128969,,,,,,,
30327628,,,,-0.099763595,-0.13924493,0.0681469,5.418085,-7.695009,-47.638023,
30327630,-0.2024183,0.617674,9.150528,,,,,,,
30327632,-0.2575143,0.6631881,9.196042,,,,,,,
30327633,,,,-0.1082857,-0.060948055,0.0681469,,,,
30327635,-0.25990978,0.67277,9.243952,,,,,,,
30327637,-0.24074596,0.65839714,9.291861,,,,,,,
30327638,,,,-0.1098836,0.01575092,0.07187533,5.262657,-7.5314045,-46.405663,
30327640,-0.180859,0.5889282,9.368517,,,,,,,
30327642,-0.10899465,0.51945937,9.4044485,,,,,,,
30327643,,,,-0.11094886,0.08978673,0.07560374,,,,
30327645,-0.0682715,0.51227295,9.466731,,,,,,,
30327647,-0.027548373,0.55539155,9.545782,,,,,,,
30327648,,,,-0.10508992,0.1579636,0.069744796,6.6471806,-7.510393,-46.371468,
30327650,-0.01796645,0.49071363,9.581714,,,,,,,
30327652,-0.032339334,0.5242503,9.574528,,,,,,,
30327653,,,,-0.093904644,0.21548784,0.059092164,,,,
30327655,-0.09701724,0.4955046,9.612856,,,,,,,
30327657,-0.16648611,0.5362277,9.6224375,,,,,,,
30327658,,,,-0.07792569,0.26076153,0.04897216,7.1095963,-6.7918243,-48.070686,
30327660,-0.23835048,0.5386232,9.627228,,,,,,,
30327662,-0.2575143,0.59371924,9.7278385,,,,,,,
30327663,,,,-0.064077266,0.28899103,0.043645844,,,,
30327665,-0.30781937,0.6967248,9.74221,,,,,,,
30327667,-0.37249726,0.73505247,9.747002,,,,,,,
30327668,,,,-0.047565684,0.29804575,0.044711106,6.4907455,-6.609743,-45.147667,
30327670,-0.44436163,0.7805666,9.818867,,,,,,,
30327672,-0.47789833,0.8021258,9.854799,,,,,,,
30327673,,,,-0.032651994,0.28472996,0.054298483,,,,
30327675,-0.41801137,0.7949394,9.895522,,,,,,,
30327677,-0.39645207,0.8093122,10.003319,,,,,,,
30327678,,,,-0.016140407,0.24957627,0.05696164,6.491596,-5.607992,-47.171196,
30327680,-0.39645207,0.81410325,9.981759,,,,,,,
30327682,-0.37489277,0.7901484,10.027273,,,,,,,
30327683,,,,0.0035669683,0.20430256,0.053233214,,,,
30327685,-0.3389606,0.7661936,10.03925,,,,,,,
30327687,-0.31021482,0.76858914,10.041646,,,,,,,
30327688,,,,0.024872238,0.1494415,0.04311321,6.0318375,-7.5197315,-46.386665,
30327690,-0.25511882,0.7853575,9.996132,,,,,,,
30327692,-0.2694917,0.7853575,10.022482,,,,,,,
30327693,,,,0.048840664,0.09085199,0.025003733,,,,
30327695,-0.31740126,0.838058,9.991341,,,,,,,
30327697,-0.32219222,0.81889415,9.926662,,,,,,,
30327698,,,,0.07067856,0.026936186,0.0063616205,6.798418,-6.605074,-45.140068,
30327700,-0.3054239,0.8308716,9.945827,,,,,,,
30327702,-0.31740126,0.888363,9.895522,,,,,,,
30327703,,,,0.08719015,-0.03431647,-0.013878386,,,,
30327705,-0.33416963,0.893154,9.902708,,,,,,,
30327707,-0.31261033,0.90513146,9.9194765,,,,,,,
30327708,,,,0.10370173,-0.085449114,-0.035183653,5.723074,-6.3520775,-46.872154,
30327710,-0.22876856,0.9242953,9.902708,,,,,,,
30327713,-0.28386456,0.9123179,9.897918,0.117550164,-0.12965754,-0.058619447,,,,
30327715,-0.28386456,0.9195043,9.857194,,,,,,,
30327718,-0.24553691,0.87159467,9.847611,0.13565966,-0.15948492,-0.0793921,5.724888,-7.6787586,-46.85676,
30327720,-0.31740126,0.838058,9.770957,,,,,,,
30327723,-0.34854248,0.8476399,9.73742,0.15430176,-0.18451862,-0.101229995,,,,
30327725,-0.37728822,0.89794505,9.74221,,,,,,,
30327728,-0.49945763,0.8859676,9.806889,0.16868281,-0.20316073,-0.11507843,7.4140263,-6.1650906,-45.903664,
30327730,-0.5473672,0.8907585,9.75898,,,,,,,
30327733,-0.5928813,0.9290862,9.691906,0.18625967,-0.22872706,-0.11933947,,,,
30327735,-0.69588685,0.9698093,9.615251,,,,,,,
30327738,-0.69588685,1.0273008,9.473918,,,,7.4140263,-6.1650906,-45.903664,
30327739,,,,0.19211863,-0.25642392,-0.11720895,,,,
30327740,-0.71984166,1.1398883,9.243952,,,,,,,
30327743,-0.74140096,1.168634,9.200832,,,,,,,
30327744,,,,0.17880283,-0.2835881,-0.107088946,,,,
30327745,0.33656436,0.59132373,9.174483,,,,,,,
30327748,1.5678403,-0.19199774,8.920562,,,,4.6476326,-7.400284,-46.886772,
30327749,,,,0.12553965,-0.37307027,-0.11774158,,,,
30327750,0.35812366,0.30147082,9.5362,,,,,,,
30327753,-0.37489277,0.70151573,9.907499,,,,,,,
30327754,,,,0.03499224,-0.5120871,-0.17473318,,,,
30327755,-0.77014667,0.9961597,9.476313,,,,,,,
30327758,-1.1438414,1.293199,8.944517,,,,6.645092,-7.4825974,-44.51467,
30327759,,,,0.01954592,-0.5259356,-0.18804897,,,,
30327760,-1.3953667,1.5950292,8.616336,,,,,,,
30327763,-1.5702364,1.8058314,8.470212,,,,,,,
30327764,,,,0.030198557,-0.402365,-0.15396053,,,,
30327765,-1.6444963,1.9950742,8.542076,,,,,,,
30327768,-1.5558636,2.0813112,8.66185,,,,5.262867,-6.8105736,-47.497353,
30327769,,,,0.032329082,-0.24683654,-0.096436314,,,,
30327770,-1.3306886,2.0813112,8.872653,,,,,,,
30327773,-1.0001127,1.9327918,9.126573,,,,,,,
30327774,,,,0.0014364414,-0.16268072,-0.038912073,,,,
30327775,-0.76535577,1.8034359,9.306233,,,,,,,
30327778,-0.7150507,1.678871,9.452359,,,,5.7245407,-7.6741276,-46.54728,
30327779,,,,-0.055022527,-0.14776702,-0.0032257512,,,,
30327780,-0.64318633,1.5471196,9.615251,,,,,,,
30327783,-0.52820337,1.4345322,9.73263,,,,,,,
30327784,,,,-0.09710044,-0.12965754,0.0042310935,,,,
30327785,-0.41801137,1.3147583,9.751793,,,,,,,
30327788,-0.25990978,1.1111425,9.802098,,,,6.80381,-9.426693,-46.500145,
30327789,,,,-0.10295938,-0.06947017,-0.008552069,,,,
30327790,-0.18564996,0.9746003,9.8931265,,,,,,,
30327793,-0.13294941,0.8500354,10.015296,,,,,,,
30327794,,,,-0.08591517,0.012555129,-0.030922601,,,,
30327795,-0.111390114,0.74702984,10.154234,,,,,,,
30327798,-0.20002282,0.71109766,10.321917,,,,4.186014,-6.8269157,-47.52395,
30327799,,,,-0.05662042,0.09244989,-0.05702156,,,,
30327800,-0.26709622,0.67995644,10.4345045,,,,,,,
30327803,-0.38207918,0.7039112,10.503974,,,,,,,
30327804,,,,-0.030521467,0.14251728,-0.06927209,,,,
30327805,-0.40124303,0.6943293,10.606978,,,,,,,
30327808,-0.24074596,0.55299604,10.606978,,,,5.4157505,-6.3613796,-47.18923,
30327809,,,,-0.0070856675,0.1595615,-0.06873946,,,,
30327810,0.17367181,0.30626178,10.707589,,,,,,,223.0
30327813,0.88752437,-0.12492433,10.741126,,,,,,,
30327814,,,,-0.004422508,0.11162463,-0.08578368,,,,
30327815,0.33656436,-0.019523293,10.8704815,,,,,,,
30327818,-0.29584196,0.39489448,11.002233,,,,5.416813,-7.388611,-46.867775,
30327819,,,,-0.01454251,0.025338292,-0.13585106,,,,
30327820,-0.60964966,0.6631881,10.767476,,,,,,,
30327823,-0.796497,0.842849,10.345872,,,,,,,
30327824,,,,0.024872238,0.023740396,-0.15875421,,,,
30327826,-1.0408357,1.0800014,10.0656,,,,,,,
30327828,-1.2109147,1.2788261,9.967386,,,,4.9531174,-5.9192066,-46.741554,
30327829,,,,0.08346173,0.09777621,-0.14384054,,,,
30327831,-1.2588243,1.4129729,9.847611,,,,,,,
30327833,-1.237265,1.5063965,9.799703,,,,,,,
30327834,,,,0.114354365,0.17181203,-0.115611054,,,,
30327836,-1.1342595,1.4824418,9.792516,,,,,,,
30327838,-1.0671861,1.4393232,9.804494,,,,4.4946938,-7.559292,-47.50779,
30327839,,,,0.10423437,0.18246466,-0.07726157,,,,
30327841,-1.0456268,1.4153684,9.778144,,,,,,,
30327843,-1.0408357,1.3506904,9.778144,,,,,,,
30327844,,,,0.06854804,0.13506043,-0.045836292,,,,
30327846,-1.0336494,1.2644532,9.876358,,,,,,,
30327848,-0.91147995,1.1159335,9.931454,,,,7.4196835,-8.556063,-48.04255,
30327849,,,,0.030731188,0.06262251,-0.023465758,,,,
30327851,-0.8635704,1.0536511,9.854799,,,,,,,
30327853,-0.8252427,0.94345903,9.852403,,,,,,,
30327854,,,,-0.0012267176,-0.018337512,-0.012280491,,,,
30327856,-0.72702813,0.8787811,9.909895,,,,,,,
30327858,-0.7246326,0.85482633,9.984155,,,,4.184284,-5.9355125,-47.070015,
30327859,,,,-0.017205669,-0.09450386,-0.012280491,,,,
30327860,,,,,,,,,,207.0
30327861,-0.60964966,0.888363,10.058414,,,,,,,
30327863,-0.57850844,0.94825006,10.159025,,,,,,,
30327864,,,,-0.024129882,-0.14883229,-0.021867862,,,,
30327866,-0.5377853,0.9650184,10.16142,,,,,,,
30327868,-0.56413555,1.0153234,10.1901655,,,,6.1842346,-6.3404408,-46.551292,
30327869,,,,-0.018270934,-0.17546387,-0.027726812,,,,
30327871,-0.65037274,1.0608375,10.197351,,,,,,,
30327873,-0.6695366,1.0416737,10.285985,,,,,,,
30327874,,,,-0.0054877717,-0.1861165,-0.026661547,,,,
30327876,-0.66714114,0.9961597,10.362639,,,,,,,
30327878,-0.64318633,0.98657763,10.41055,,,,6.799635,-6.6212883,-46.223198,
30327879,,,,0.0056974953,-0.19091019,-0.022933127,,,,
30327881,-0.60246325,0.9674139,10.45846,,,,,,,
30327883,-0.5904858,0.95064545,10.51116,,,,,,,
30327884,,,,0.008360654,-0.19091019,-0.021335231,,,,
30327886,-0.54257625,0.9218998,10.616561,,,,,,,
30327888,-0.5545536,0.86440825,10.662075,,,,6.491852,-6.0455856,-46.85659,
30327889,,,,0.0142196035,-0.18718177,-0.027726812,,,,
30327891,-0.5856949,0.8476399,10.712379,,,,,,,
30327893,-0.60964966,0.8524308,10.724358,,,,,,,
30327894,,,,0.03179645,-0.17439862,-0.038912073,,,,
30327896,-0.6575592,0.87159467,10.762685,,,,,,,
30327898,-0.67672306,0.8739902,10.810595,,,,7.4162407,-7.7865887,-45.884834,
30327899,,,,0.05629751,-0.15628913,-0.045303658,,,,
30327901,-0.7126552,0.8859676,10.815386,,,,,,,
30327903,-0.77014667,0.8763857,10.848923,,,,,,,
30327904,,,,0.080798574,-0.13498387,-0.04743419,,,,
30327906,-0.81566083,0.8739902,10.844131,,,,,,,
30327908,-0.791706,0.893154,10.851317,,,,4.493824,-7.5477104,-46.734123,
30327909,,,,0.10956068,-0.11421123,-0.038379446,,,,
30327910,,,,,,,,,,184.0
30327911,-0.8324291,0.893154,10.836945,,,,,,,
30327913,-0.84440655,0.90992236,10.779454,,,,,,,
30327914,,,,0.13565966,-0.09983017,-0.025596285,,,,
30327916,-0.84440655,0.8907585,10.674053,,,,,,,
30327918,-0.8396156,0.90752685,10.623748,,,,4.6477413,-7.980654,-46.26098,
30327919,,,,0.1548344,-0.083851226,-0.011215228,,,,
30327921,-0.8276382,0.9338771,10.523137,,,,,,,
30327923,-0.8396156,0.9626229,10.391386,,,,,,,
30327924,,,,0.16655229,-0.07053543,5.026711E-4,,,,
30327926,-0.8827342,0.9626229,10.365036,,,,,,,
30327928,-0.8611749,0.98657763,10.250052,,,,6.0331917,-8.26141,-46.68757,
30327929,,,,0.17028072,-0.06520911,0.011155306,,,,
30327931,-0.8683613,1.0225099,10.226098,,,,,,,
30327934,-0.8324291,1.12312,10.094347,0.16282387,-0.066807,0.025003733,,,,
30327936,-0.846802,1.1518657,10.123093,,,,,,,
30327938,,,,,,,4.494034,-6.8268795,-47.825813,
30327939,-0.78451955,1.1590521,10.03925,0.15057334,-0.07266595,0.038319528,,,,
30327941,-0.7437964,1.1710294,9.938641,,,,,,,
30327944,-0.6695366,1.168634,9.9602,0.12926807,-0.077992275,0.046841636,,,,
30327946,-0.5809039,1.1255155,9.948223,,,,,,,
30327948,,,,,,,6.341734,-8.268322,-47.453636,
30327949,-0.51862144,1.127911,9.981759,0.105832264,-0.08331859,0.05483111,,,,
30327951,-0.39884752,1.0416737,10.051228,,,,,,,
30327954,-0.31500578,0.98657763,10.1111145,,,,,,,
30327955,,,,0.089320675,-0.0902428,0.057494268,,,,
30327956,-0.27188718,0.9266907,10.120697,,,,,,,
30327958,,,,,,,6.4930077,-6.6398544,-47.159203,
30327959,-0.22876856,0.888363,10.214121,,,,,,,
30327960,,,,0.07280909,-0.09450386,0.052167952,,,,
30327961,-0.18325448,0.8356626,10.348267,,,,,,,161.0
30327964,-0.10659915,0.7733801,10.429714,,,,,,,
30327965,,,,0.070145935,-0.10249334,0.04417848,,,,
30327966,-0.056294113,0.7374479,10.518346,,,,,,,
30327968,,,,,,,5.1102943,-7.987547,-47.178,
30327969,-0.010780022,0.73984337,10.595002,,,,,,,
30327970,,,,0.07334173,-0.1237986,0.032993205,,,,
30327971,0.03233859,0.7134931,10.621352,,,,,,,
30327974,0.03473407,0.64641976,10.666866,,,,,,,
30327975,,,,0.07866804,-0.15309334,0.017546887,,,,
30327976,0.0059883296,0.66558355,10.681239,,,,,,,
30327978,,,,,,,6.4914417,-6.619009,-45.76661,
30327979,0.041920513,0.6775609,10.707589,,,,,,,
30327980,,,,0.07920068,-0.19091019,0.0036984617,,,,
30327981,0.041920513,0.7039112,10.767476,,,,,,,
30327984,0.06587529,0.70151573,10.841736,,,,,,,
30327985,,,,0.0829291,-0.22712916,-0.009617331,,,,
30327986,0.1449261,0.63683784,10.882459,,,,,,,
30327988,,,,,,,5.7267647,-8.427385,-47.621864,
30327989,0.23116332,0.6272559,10.937555,,,,,,,
30327990,,,,0.08505962,-0.2612176,-0.026661547,,,,
30327991,0.3102141,0.65839714,10.968696,,,,,,,
30327994,0.37249655,0.5745554,10.951928,,,,,,,
30327995,,,,0.08878805,-0.2915776,-0.051695243,,,,
30327996,0.42519706,0.46675885,10.980674,,,,,,,
30327998,,,,,,,5.5740566,-8.878899,-48.084724,
30327999,0.45154732,0.5146684,10.944742,,,,,,,
30328000,,,,0.096244894,-0.3048934,-0.08738157,,,,
30328001,0.48508406,0.46675885,10.9136,,,,,,,
30328004,0.5066433,0.4643634,10.877667,,,,,,,
30328005,,,,0.1063649,-0.3000997,-0.12253528,,,,
30328006,0.5042479,0.43561763,10.824967,,,,,,,
30328008,,,,,,,4.34083,-7.4165344,-47.668037,
30328009,0.49706143,0.33979848,10.767476,,,,,,,
30328010,,,,0.11701753,-0.27772915,-0.14969948,,,,
30328011,0.5090388,0.2942844,10.635725,,,,,,,138.0
30328014,0.45154732,0.34698492,10.525533,,,,,,,
30328015,,,,0.12394174,-0.2479018,-0.16887422,,,,
30328016,0.42998803,0.29907534,10.453669,,,,,,,
30328018,,,,,,,5.724594,-7.9643116,-46.234383,
30328019,0.35812366,0.33979848,10.336289,,,,,,,
30328020,,,,0.119680695,-0.19517125,-0.1800595,,,,
30328021,0.36770558,0.28949344,10.26203,,,,,,,
30328024,0.34375083,0.31105274,10.206934,,,,,,,
30328025,,,,0.1063649,-0.12965754,-0.18645106,,,,
30328026,0.29344577,0.28709796,10.115906,,,,,,,
30328028,,,,,,,6.4953403,-7.973484,-47.607994,
30328029,0.26230454,0.32303014,10.017691,,,,,,,
30328030,,,,0.07920068,-0.066274375,-0.19071212,,,,
30328031,0.2503271,0.35177588,9.936245,,,,,,,
30328034,0.17127633,0.34458944,9.890731,,,,,,,
30328035,,,,0.039785925,3.0459874E-4,-0.19071212,,,,
30328036,0.14013514,0.4044764,9.88594,,,,,,,
30328038,,,,,,,5.5733604,-8.869633,-47.465782,
30328039,0.15211254,0.3709397,9.931454,,,,,,,
30328040,,,,-0.00495514,0.0541004,-0.18964687,,,,
30328041,0.09222555,0.4595724,9.926662,,,,,,,
30328044,0.104202926,0.51706386,9.972177,,,,,,,
30328045,,,,-0.05608779,0.101504624,-0.18911423,,,,
30328047,0.029943138,0.46675885,9.996132,,,,,,,
30328048,,,,,,,4.494171,-7.5523434,-47.043587,
30328049,-0.008384541,0.5002955,10.046437,,,,,,,
30328050,,,,-0.10136149,0.13985412,-0.18378791,,,,
30328052,-0.03713028,0.46915433,10.101533,,,,,,,
30328054,-0.06108506,0.47634077,10.103929,,,,,,,
30328055,,,,-0.13811307,0.17447518,-0.17207001,,,,
30328057,-0.111390114,0.42364025,10.1638155,,,,,,,
30328058,,,,,,,4.338743,-7.3887405,-45.81124,
30328059,-0.14253134,0.3853126,10.257238,,,,,,,
30328060,,,,-0.17592992,0.19418256,-0.15449317,,,,
30328061,,,,,,,,,,117.0
30328062,-0.1473223,0.33021656,10.338686,,,,,,,
30328064,-0.16648611,0.2367929,10.477623,,,,,,,
30328065,,,,-0.20309414,0.19471519,-0.12892684,,,,
30328067,-0.13294941,0.1816969,10.571047,,,,,,,
30328068,,,,,,,6.186863,-7.3885193,-47.622444,
30328069,-0.12097203,0.14576472,10.630934,,,,,,,
30328070,,,,-0.22067098,0.17926887,-0.10229526,,,,
30328072,-0.14013585,0.12660089,10.741126,,,,,,,
30328074,-0.07785343,0.11941446,10.796222,,,,,,,
30328075,,,,-0.23185626,0.1478436,-0.074065775,,,,
30328077,-0.04192123,0.1146235,10.925578,,,,,,,
30328078,,,,,,,6.4948196,-7.9665356,-47.143806,
30328079,0.0035928488,0.13378733,11.021397,,,,,,,
30328080,,,,-0.23185626,0.10736358,-0.050629973,,,,
30328082,0.08264366,0.081086814,11.081284,,,,,,,
30328084,0.11138937,0.1146235,11.205849,,,,,,,
30328085,,,,-0.22546467,0.06315514,-0.034651026,,,,
30328087,0.21199948,0.10504159,11.344787,,,,,,,
30328088,,,,,,,5.1109524,-8.719959,-46.859962,
30328089,0.32937795,0.10983254,11.531633,,,,,,,
30328090,,,,-0.20415941,0.019479342,-0.026661547,,,,
30328092,0.4204061,0.08348228,11.711295,,,,,,,
30328094,0.5018524,0.06431845,11.823882,,,,,,,
30328095,,,,-0.1706036,-0.023131197,-0.035183653,,,,
30328097,0.6264173,0.07150489,11.972402,,,,,,,
30328098,,,,,,,7.4198017,-8.268194,-48.51017,
30328099,0.7437957,0.047550112,12.1185255,,,,,,,
30328100,,,,-0.11680781,-0.059882794,-0.052760504,,,,
30328102,0.82763755,-0.04108259,12.140085,,,,,,,
30328104,0.8971064,-0.08420122,12.216741,,,,,,,
30328105,,,,-0.045435157,-0.085449114,-0.074065775,,,,
30328107,0.97136617,-0.11773792,12.1975765,,,,,,,
30328108,,,,,,,6.342081,-8.272955,-47.7631,
30328109,1.0671853,-0.13211077,12.142481,,,,,,,
30328110,,,,0.04457961,-0.09663438,-0.09430579,,,,
30328111,,,,,,,,,,98.0
30328112,1.1486316,-0.218348,12.068221,,,,,,,
30328114,1.160609,-0.2399073,12.032289,,,,,,,
30328115,,,,0.1313986,-0.09184069,-0.11348052,,,,
30328117,1.1773773,-0.29500332,11.895747,,,,,,,
30328118,,,,,,,7.109907,-7.5196037,-47.4432,
30328119,1.2252868,-0.29739884,11.811905,,,,,,,
30328120,,,,0.21555442,-0.08598175,-0.12839422,,,,
30328122,1.220496,-0.26865306,11.699317,,,,,,,
30328124,1.2372643,-0.29500332,11.598707,,,,,,,
30328125,,,,0.28905758,-0.08331859,-0.13957947,,,,
30328127,1.2276824,-0.32374904,11.53882,,,,,,,
30328128,,,,,,,7.571581,-8.383158,-46.493126,
30328129,1.220496,-0.27344403,11.409464,,,,,,,
30328130,,,,0.35084286,-0.08491649,-0.14703631,,,,
30328132,1.2851739,-0.22553441,11.270527,,,,,,,
30328134,1.3354789,-0.22553441,11.126798,,,,,,,
30328135,,,,0.4051713,-0.09663438,-0.15928686,,,,
30328137,1.3666202,-0.17043844,10.992651,,,,,,,
30328138,,,,,,,7.110201,-7.2340508,-48.06556,
30328139,1.4121343,-0.163252,10.925578,,,,,,,
30328140,,,,0.44565132,-0.11527649,-0.17366791,,,,
30328142,1.491185,-0.17762488,10.83455,,,,,,,
30328144,1.5055579,-0.19439322,10.736335,,,,,,,
30328145,,,,0.46855447,-0.13817964,-0.19976686,,,,
30328147,1.5870041,-0.19439322,10.669262,,,,,,,
30328148,,,,,,,7.420746,-9.583296,-47.721092,
30328150,1.6397046,-0.21595255,10.494391,0.48293555,-0.16214807,-0.23279002,,,,
30328152,1.661264,-0.22313896,10.341081,,,,,,,
30328155,1.6852187,-0.24709377,10.182979,0.49412084,-0.17493124,-0.26847637,,,,
30328157,1.6804278,-0.23272088,9.998528,,,,,,,
30328158,,,,,,,6.4966965,-8.715162,-47.908913,
30328160,1.7043827,-0.23032543,9.876358,0.49518606,-0.16694176,-0.31055427,,,,
30328161,,,,,,,,,,84.0
30328162,1.6756369,-0.1967887,9.766166,,,,,,,
30328165,1.6421001,-0.1967887,9.605669,0.4861313,-0.14989756,-0.34730586,,,,
30328167,1.5438855,-0.11055148,9.495477,,,,,,,
30328168,,,,,,,7.264658,-8.687275,-46.80677,
30328170,1.4744166,-0.09378314,9.370912,,,,,,,
30328171,,,,0.46802187,-0.12592912,-0.37447006,,,,
30328172,1.3618292,-0.029105216,9.258325,,,,,,,
30328175,1.2612191,0.04275915,9.0810585,,,,,,,
30328176,,,,0.43819445,-0.09503649,-0.39630795,,,,
30328177,1.1414452,0.10025062,9.016381,,,,,,,
30328178,,,,,,,8.340412,-8.366852,-46.164665,
30328180,0.99053,0.17211498,8.992427,,,,,,,
30328181,,,,0.40250814,-0.06574174,-0.41068903,,,,
30328182,0.8539877,0.20565169,8.930144,,,,,,,
30328185,0.73900473,0.25116578,8.860675,,,,,,,
30328186,,,,0.36096287,-0.042305943,-0.41335216,,,,
30328187,0.6120444,0.36375326,8.822348,,,,,,,
30328188,,,,,,,5.4185715,-8.425106,-47.16526,
30328190,0.56413484,0.36854422,8.879839,,,,,,,
30328191,,,,0.3172871,-0.024729092,-0.40642798,,,,
30328192,0.5042479,0.43322214,8.913376,,,,,,,
30328195,0.4659202,0.4643634,8.91098,,,,,,,
30328196,,,,0.27680704,-0.013543826,-0.39417744,,,,
30328197,0.3988468,0.5050865,8.870256,,,,,,,
30328198,,,,,,,6.6487827,-9.557907,-45.264366,
30328200,0.374892,0.4955046,8.793602,,,,,,,
30328201,,,,0.23472916,-0.0060869823,-0.3787311,,,,
30328202,0.3964513,0.48352718,8.743297,,,,,,,
30328205,0.3916604,0.47394526,8.659455,,,,,,,
30328206,,,,0.19637968,0.0024351259,-0.35902375,,,,
30328207,0.3940559,0.42843118,8.60915,,,,,,,
30328208,,,,,,,7.2694473,-11.066669,-48.171974,
30328210,0.38926488,0.41166285,8.556449,,,,,,,
30328211,,,,0.14950807,0.013620393,-0.33239216,,,,
30328212,0.32937795,0.40926737,8.482189,,,,,,,
30328215,0.3772875,0.42364025,8.371997,,,,,,,
30328216,,,,0.097310156,0.02853408,-0.30682585,,,,
30328217,0.41561514,0.39968544,8.33367,,,,,,,
30328218,,,,,,,6.4972363,-9.735445,-47.123253,
30328220,0.434779,0.3853126,8.316901,,,,,,,
30328221,,,,0.036590137,0.05250251,-0.27859634,,,,
30328222,0.47550213,0.4044764,8.2354555,,,,,,,
30328225,0.52820265,0.40926737,8.245038,,,,,,,
30328226,,,,-0.026260411,0.08019936,-0.24557321,,,,
30328227,0.5617394,0.41166285,8.194733,,,,,,,
30328228,,,,,,,7.416689,-9.239832,-44.47512,
30328230,0.6144399,0.36854422,8.218687,,,,,,,
30328231,,,,-0.08964359,0.11055937,-0.22107214,,,,
30328232,0.68390876,0.3589623,8.285761,,,,,,,
30328235,0.7222364,0.34698492,8.309715,,,,,,,
30328236,,,,-0.14610255,0.14091939,-0.20189738,,,,
30328237,0.8036827,0.36135778,8.395952,,,,,,,
30328238,,,,,,,7.4177704,-8.530582,-46.340492,
30328240,0.9977164,0.3829171,8.4797945,,,,,,,
30328241,,,,-0.19989836,0.1696815,-0.19284265,,,,
30328242,1.0911402,0.39489448,8.645082,,,,,,,
30328245,1.215705,0.35417137,8.798393,,,,,,,
30328246,,,,-0.23824783,0.20749836,-0.19976686,,,,
30328247,1.2875694,0.3853126,8.934935,,,,,,,
30328248,,,,,,,7.417055,-7.507986,-46.971397,
30328250,1.3115242,0.39010352,9.061895,,,,,,,
30328251,,,,-0.2558247,0.24957627,-0.22107214,,,,
30328252,1.3785975,0.36854422,9.193646,,,,,,,
30328255,1.4025522,0.37333518,9.397263,,,,,,,
30328256,,,,-0.2542268,0.28952366,-0.25089955,,,,
30328258,1.4073433,0.35417137,9.497873,,,,8.0356865,-9.279137,-47.709328,
30328260,1.4193206,0.30626178,9.61046,,,,,,,
30328261,,,,-0.23238888,0.32414472,-0.2812595,,,,
30328263,1.4145298,0.3158437,9.655973,,,,,,,
30328265,1.3235015,0.33500752,9.682323,,,,,,,
30328266,,,,-0.19989836,0.34971103,-0.3100216,,,,
30328268,1.2564281,0.37812614,9.71586,,,,7.7261944,-8.825367,-46.638924,
30328270,1.155818,0.42364025,9.73263,,,,,,,
30328271,,,,-0.16048361,0.3640921,-0.33505532,,,,
30328273,1.0432305,0.4643634,9.672743,,,,,,,
30328275,0.885129,0.5266458,9.639206,,,,,,,
30328276,,,,-0.1231994,0.37314683,-0.35423005,,,,
30328278,0.8156601,0.6152785,9.560155,,,,7.573393,-9.709839,-46.477715,
30328280,0.70786357,0.7134931,9.545782,,,,,,,
30328281,,,,-0.08751307,0.37634262,-0.36754584,,,,
30328283,0.60725343,0.74463433,9.4835,,,,,,,
30328285,0.5162253,0.787753,9.457149,,,,,,,
30328286,,,,-0.05768569,0.37581,-0.37180692,,,,
30328288,0.46112925,0.8404535,9.375703,,,,8.035744,-9.5693245,-47.39643,
30328290,0.38926488,0.86440825,9.375703,,,,,,,
30328291,,,,-0.02998883,0.36995104,-0.37180692,,,,
30328293,0.3102141,0.9338771,9.370912,,,,,,,
30328295,0.23116332,0.9218998,9.337376,,,,,,,
30328296,,,,-1.6145402E-4,0.35983104,-0.3664806,,,,
30328298,0.17367181,0.9698093,9.229579,,,,8.803394,-8.813658,-46.92179,
30328300,0.08024815,0.9650184,9.167296,,,,,,,
30328301,,,,0.03179645,0.35556996,-0.3547627,,,,
30328303,0.015570253,0.98897314,9.114595,,,,,,,
30328305,-0.04192123,0.95064545,9.057105,,,,,,,
30328306,,,,0.066417515,0.3502437,-0.3366532,,,,
30328308,-0.13774037,1.0033461,9.037941,,,,9.415525,-8.327347,-44.590736,
30328310,-0.21439569,1.0129279,9.030754,,,,,,,
30328311,,,,0.09890805,0.33799312,-0.3110869,,,,
30328312,,,,,,,,,,92.0
30328313,-0.26709622,0.99136865,8.994822,,,,,,,
30328315,-0.36531085,1.0584421,9.009194,,,,,,,
30328316,,,,0.1298007,0.3124268,-0.28498793,,,,
30328318,-0.47789833,1.1207244,8.987636,,,,8.957256,-8.956413,-46.76156,
30328320,-0.60964966,1.1614476,8.968472,,,,,,,
30328321,,,,0.16175862,0.27407733,-0.2610195,,,,
30328323,-0.68870044,1.2069616,8.934935,,,,,,,
30328325,-0.7222371,1.2764306,8.9421215,,,,,,,
30328326,,,,0.19584705,0.22933625,-0.23225741,,,,
30328328,-0.8132653,1.3267356,8.927749,,,,10.802868,-10.370062,-44.53257,
30328330,-0.83722013,1.3842272,8.83672,,,,,,,
30328331,,,,0.23259863,0.1766057,-0.19816896,,,,
30328333,-0.8827342,1.4800463,8.815161,,,,,,,
30328335,-0.906689,1.5111876,8.740901,,,,,,,
30328336,,,,0.26455653,0.12014674,-0.16461317,,,,
30328338,-0.93064374,1.5231649,8.649873,,,,8.9555,-7.919918,-46.464073,
30328340,-0.9833443,1.5830519,8.580404,,,,,,,
30328341,,,,0.2906555,0.059959352,-0.13212264,,,,
30328343,-1.0049036,1.6117977,8.467817,,,,,,,
30328345,-0.9761579,1.6141931,8.376788,,,,,,,
30328346,,,,0.3092976,-0.0028911917,-0.10176263,,,,
30328348,-0.94741213,1.6597072,8.261806,,,,9.417961,-8.359774,-46.75701,
30328350,-0.9210619,1.6932439,8.1588,,,,,,,
30328351,,,,0.3092976,-0.061480686,-0.07353315,,,,
30328353,-0.8827342,1.6501253,8.03184,,,,,,,
30328355,-0.8539884,1.6309614,7.912066,,,,,,,
30328356,,,,0.29331863,-0.114743866,-0.051162608,,,,
30328358,-0.8348246,1.6668936,7.8593655,,,,9.725222,-8.928528,-45.659416,
30328360,-0.7294235,1.6812665,7.7707324,,,,,,,
30328361,,,,0.26508915,-0.16427861,-0.035183653,,,,
30328363,-0.7222371,1.6501253,7.6749134,,,,,,,
30328365,-0.65995467,1.7124077,7.6293993,,,,,,,
30328366,,,,0.21981548,-0.20688915,-0.026661547,,,,
30328368,-0.5832994,1.7483399,7.5934668,,,,10.648621,-8.196005,-46.88305,
30328371,-0.5497627,1.7555263,7.574303,0.16921546,-0.22979231,-0.021867862,,,,
30328373,-0.52101696,1.7651082,7.5407662,,,,,,,
30328376,-0.4707119,1.7651082,7.5096254,0.1164849,-0.23831442,-0.0208026,,,,
30328378,-0.47789833,1.7675036,7.4425516,,,,10.803638,-8.933031,-47.02543,
30328381,-0.46831644,1.7555263,7.377874,0.05576488,-0.22659653,-0.010682597,,,,
30328383,-0.4275933,1.7770857,7.2509136,,,,,,,
30328386,-0.3581244,1.7052213,7.1814446,-0.011346721,-0.19250809,0.0068942523,,,,
30328388,-0.38687015,1.729176,7.1143713,,,,9.574507,-9.8407955,-47.355003,
30328391,-0.37249726,1.7483399,7.0401115,-0.080588855,-0.13817964,0.026601626,,,,
30328393,-0.3605199,1.7531308,7.0520887,,,,,,,
30328396,-0.32698318,1.7698991,7.1023936,,,,,,,
30328397,,,,-0.15675518,-0.07532912,0.051635325,,,,
30328398,-0.346147,1.7818766,7.1790495,,,,10.651955,-11.13492,-46.22988,
30328401,-0.31979674,1.7818766,7.3467326,,,,,,,
30328402,,,,-0.22972573,-0.011945931,0.084125854,,,,
30328403,-0.37968373,1.7842721,7.4593205,,,,,,,
30328406,-0.37489277,1.7818766,7.648563,,,,,,,
30328407,,,,-0.2931089,0.047708824,0.11768165,,,,
30328408,-0.34375155,1.7770857,7.892902,,,,8.80311,-8.230968,-47.392845,
30328411,-0.40124303,1.8297862,8.154009,,,,,,,
30328412,,,,-0.33571947,0.09830884,0.1517701,,,,
30328413,-0.41082495,1.844159,8.388766,,,,,,,
30328416,-0.40603396,1.8297862,8.606754,,,,,,,
30328417,,,,-0.3532963,0.13133201,0.1906522,,,,
30328418,-0.4275933,1.839368,8.781625,,,,8.03644,-9.57859,-48.015373,
30328421,-0.37249726,1.8753003,9.0068,,,,,,,
30328422,,,,-0.3511658,0.1462457,0.22846907,,,,
30328423,-0.31979674,1.8609275,9.155319,,,,,,,
30328426,-0.28386456,1.8202043,9.277489,,,,,,,
30328427,,,,-0.32772997,0.14890887,0.2657533,,,,
30328428,-0.180859,1.8273907,9.3780985,,,,9.113293,-9.562248,-47.988777,
30328431,-0.12576298,1.7842721,9.46194,,,,,,,
30328432,,,,-0.29257628,0.14571308,0.29664594,,,,
30328433,-0.053898618,1.7507354,9.574528,,,,,,,
30328436,-0.025152892,1.7651082,9.646392,,,,,,,
30328437,,,,-0.24357416,0.13932149,0.32008174,,,,
30328438,0.03712955,1.7507354,9.718257,,,,9.574396,-9.260424,-47.980797,
30328441,0.08983007,1.7148031,9.838031,,,,,,,
30328442,,,,-0.18445203,0.12547307,0.3344628,,,,
30328443,0.1880447,1.678871,9.926662,,,,,,,
30328446,0.29823667,1.7363626,10.048833,,,,,,,
30328447,,,,-0.111481495,0.10310253,0.34511545,,,,
30328448,0.38926488,1.638148,10.1111145,,,,9.726749,-9.672522,-46.11506,
30328451,0.43717444,1.6117977,10.142256,,,,,,,
30328452,,,,-0.03797831,0.06741619,0.34724596,,,,
30328453,0.5210162,1.6525208,10.168607,,,,,,,
30328456,0.56892574,1.6716845,10.137465,,,,,,,
30328457,,,,0.029133294,0.014153026,0.34245226,,,,
30328458,0.66234946,1.6549163,10.156629,,,,10.1875725,-8.788013,-46.578133,
30328461,0.72463185,1.6261705,10.089556,,,,,,,
30328462,,,,0.08719015,-0.05615437,0.32647333,,,,101.0
30328463,0.7988918,1.6501253,10.044042,,,,,,,
30328466,0.9378295,1.678871,9.962595,,,,,,,
30328467,,,,0.12820281,-0.14084281,0.30143964,,,,
30328468,1.0168803,1.6860574,9.864381,,,,10.1875725,-8.788013,-46.578133,
30328471,1.1797727,1.7052213,9.751793,,,,,,,
30328472,,,,0.1463123,-0.21754178,0.26735118,,,,
30328473,1.3019422,1.7148031,9.749398,,,,,,,
30328476,1.4744166,1.7651082,9.672743,,,,,,,
30328477,,,,0.15536703,-0.2628155,0.2204796,,,,
30328478,1.5989815,1.7459444,9.600878,,,,9.575861,-10.582474,-47.655922,
30328481,1.6397046,1.7698991,9.521827,,,,,,,
30328482,,,,0.16868281,-0.26441336,0.16881432,,,,
30328484,1.6924052,1.7722946,9.481104,,,,,,,
30328486,1.7187555,1.7243851,9.4835,,,,,,,
30328487,,,,0.17880283,-0.22553125,0.11821429,,,,
30328488,,,,,,,8.648836,-8.661633,-46.46311,
30328489,1.6971961,1.6668936,9.426008,,,,,,,
30328491,1.6732414,1.623775,9.449963,,,,,,,
30328492,,,,0.17933546,-0.16214807,0.066549,,,,
30328494,1.5774223,1.5998201,9.418822,,,,,,,
30328496,1.5175352,1.5806564,9.471521,,,,,,,
30328497,,,,0.17454177,-0.09556912,0.023938468,,,,
30328498,,,,,,,8.805271,-9.562284,-47.686897,
30328499,1.4097388,1.5279559,9.560155,,,,,,,
30328501,1.2420553,1.5878428,9.624833,,,,,,,
30328502,,,,0.16708493,-0.042838577,-0.0032257512,,,,
30328504,1.1414452,1.6046112,9.713466,,,,,,,
30328506,0.9737617,1.6573117,9.794911,,,,,,,
30328507,,,,0.15430176,-0.006619614,-0.012813122,,,,
30328508,,,,,,,10.034714,-9.3822975,-46.72982,
30328509,0.765355,1.6668936,9.883545,,,,,,,
30328511,0.6216263,1.7171986,9.943432,,,,,,,
30328512,,,,0.14737755,0.023740396,-0.0053562773,,,,
30328514,0.52820265,1.6908484,9.996132,,,,,,,
30328516,0.3820784,1.7411534,10.08716,,,,,,,
30328517,,,,0.14684492,0.051437244,0.0154163595,,,,
30328518,,,,,,,10.958912,-10.107653,-46.853188,
30328519,0.2718864,1.808227,10.09195,,,,,,,
30328521,0.20481306,1.7818766,10.0847645,,,,,,,
30328522,,,,0.15163861,0.076470934,0.044711106,,,,
30328524,0.14253059,1.8417635,10.063206,,,,,,,
30328526,0.08743459,1.8848822,10.056019,,,,,,,
30328527,,,,0.14950807,0.10043936,0.078266904,,,,
30328528,,,,,,,10.80546,-9.391472,-48.103416,
30328529,-0.013175502,1.9064415,9.962595,,,,,,,
30328531,-0.044316724,1.9160234,9.936245,,,,,,,
30328532,,,,0.13619228,0.12760359,0.11821429,,,,
30328534,-0.113785595,1.9687239,9.967386,,,,,,,
30328536,-0.13774037,2.019029,9.981759,,,,,,,
30328537,,,,0.1132891,0.1494415,0.16029221,,,,
30328538,,,,,,,9.423346,-12.049633,-47.023674,
30328539,-0.19044091,2.035797,9.957804,,,,,,,
30328541,-0.180859,2.0477746,10.017691,,,,,,,
30328542,,,,0.09251647,0.16382255,0.20769642,,,,
30328544,-0.19283639,2.0262153,10.072787,,,,,,,
30328546,-0.21918665,1.9807013,10.08716,,,,,,,
30328547,,,,0.06695014,0.16914888,0.25829646,,,,
30328548,,,,,,,9.575321,-9.562193,-48.441566,
30328549,-0.22637309,1.959142,10.139861,,,,,,,
30328551,-0.15211326,1.9447691,10.147047,,,,,,,
30328552,,,,0.04138382,0.16488782,0.30676594,,,,
30328554,-0.10899465,1.9064415,10.199748,,,,,,,
30328556,-0.013175502,1.8705093,10.345872,,,,,,,
30328557,,,,0.015284867,0.16222465,0.35576805,,,,
30328558,,,,,,,9.728609,-9.407814,-48.130013,
30328559,0.03233859,1.8297862,10.506369,,,,,,,
30328561,0.08983007,1.7507354,10.621352,,,,,,,
30328562,,,,-0.0017593494,0.15849625,0.39678073,,,,110.0
30328564,0.17606732,1.729176,10.810595,,,,,,,
30328566,0.27907288,1.6668936,11.074097,,,,,,,
30328567,,,,9.038095E-4,0.15636571,0.4303365,,,,
30328568,,,,,,,10.192827,-10.884167,-48.720436,
30328569,0.34614623,1.6309614,11.325623,,,,,,,
30328571,0.43717444,1.618984,11.51247,,,,,,,
30328572,,,,0.023806974,0.14571308,0.4500439,,,,
30328574,0.45873374,1.6165885,11.672967,,,,,,,
30328576,0.5210162,1.6022156,11.881373,,,,,,,
30328577,,,,0.064286985,0.122809894,0.45909864,,,,
30328578,,,,,,,11.267712,-10.55216,-47.30465,
30328579,0.5593439,1.559097,11.974797,,,,,,,
30328581,0.6216263,1.5710745,12.168831,,,,,,,
30328582,,,,0.1164849,0.08073199,0.458566,,,,
30328584,0.6455811,1.5782609,12.355678,,,,,,,
30328586,0.6695359,1.5327468,12.470661,,,,,,,
30328587,,,,0.17241125,0.026403556,0.4521744,,,,
30328588,,,,,,,9.886702,-12.646164,-47.933815,
30328589,0.73900473,1.4872328,12.549712,,,,,,,
30328591,0.83003294,1.4560915,12.571272,,,,,,,
30328592,,,,0.232066,-0.0348491,0.4404565,,,,
30328594,0.8635696,1.4153684,12.631159,,,,,,,
30328597,0.91866565,1.3770406,12.626368,0.2906555,-0.093438596,0.42501017,,,,
30328598,,,,,,,10.19236,-11.167404,-47.943336,
30328599,0.9737617,1.3435041,12.564085,,,,,,,
30328602,1.0384396,1.2979898,12.547317,0.34658182,-0.13817964,0.40317228,,,,
30328604,1.0743717,1.2716396,12.482639,,,,,,,
30328607,1.0887446,1.2788261,12.508988,0.39398602,-0.16481124,0.37547544,,,,
30328608,,,,,,,9.423052,-12.335186,-46.401314,
30328609,1.0384396,1.2381029,12.4419155,,,,,,,
30328612,1.0168803,1.2716396,12.382029,0.4349987,-0.1674744,0.35097438,,,,124.0
30328614,0.9833436,1.3171538,12.405984,,,,,,,
30328617,0.92106116,1.3578769,12.41317,,,,,,,
30328618,,,,0.47814184,-0.15043019,0.3243428,10.962738,-12.908424,-46.82067,
30328619,0.885129,1.4297413,12.396401,,,,,,,
30328622,0.8444058,1.5519106,12.403588,,,,,,,
30328623,,,,0.5244808,-0.114743866,0.29771122,,,,
30328624,0.7964963,1.6285659,12.432334,,,,,,,
30328627,0.7821233,1.6812665,12.473057,,,,,,,
30328628,,,,0.5708198,-0.08065543,0.27161223,9.119087,-12.678682,-49.34542,
30328629,0.7437957,1.67408,12.463475,,,,,,,
30328632,0.7509821,1.7195941,12.46108,,,,,,,
30328633,,,,0.6166261,-0.057219636,0.24338275,,,,
30328634,0.7533776,1.6812665,12.3892145,,,,,,,
30328637,0.7509821,1.67408,12.271837,,,,,,,
30328638,,,,0.65710616,-0.044969104,0.20822906,10.961796,-11.593325,-47.609734,
30328639,0.8444058,1.5974247,12.187995,,,,,,,
30328642,0.87794244,1.504001,12.080198,,,,,,,
30328643,,,,0.6927925,-0.03431647,0.17094484,,,,
30328644,0.9330385,1.4728599,11.910119,,,,,,,
30328647,0.9090837,1.453696,11.804718,,,,,,,
30328648,,,,0.7258156,-0.012478563,0.13099745,10.65634,-13.219496,-47.598503,
30328649,0.8947109,1.3818316,11.68734,,,,,,,
30328652,0.9042927,1.3506904,11.531633,,,,,,,
30328653,,,,0.7476535,0.02160987,0.091050066,,,,
30328654,0.88752437,1.2955945,11.244176,,,,,,,
30328657,0.88752437,1.2213346,11.100448,,,,,,,
30328658,,,,0.7551104,0.059426717,0.048439533,11.424551,-11.747629,-48.525032,
30328659,0.83003294,1.1494702,10.889646,,,,,,,
30328662,0.7437957,1.0895833,10.614166,,,,,,,
30328663,,,,0.74072933,0.09351516,0.005296357,,,,134.0
30328664,0.69588614,1.0057415,10.3842,,,,,,,
30328667,0.7126545,0.90752685,10.154234,,,,,,,
30328668,,,,0.6938577,0.10736358,-0.041575238,7.579939,-13.125725,-48.140404,
30328669,0.60964894,0.81170774,9.988946,,,,,,,
30328672,0.53538907,0.73026145,9.871567,,,,,,,
30328673,,,,0.61023456,0.09244989,-0.096436314,,,,
30328674,0.54976195,0.60569656,9.677534,,,,,,,
30328677,0.5018524,0.48831815,9.540991,,,,,,,
30328678,,,,0.4957187,0.04717619,-0.15875421,10.042934,-13.399405,-49.159325,
30328679,0.45394284,0.35656685,9.356539,,,,,,,
30328682,0.3964513,0.20804717,9.198438,,,,,,,
30328683,,,,0.34498394,-0.025794357,-0.22586581,,,,
30328684,0.37010103,0.09545967,9.083455,,,,,,,
30328687,0.3557282,-0.019523293,8.961285,,,,,,,
30328688,,,,0.17187862,-0.1019607,-0.2876511,11.425684,-14.078377,-46.640846,
30328689,0.31979603,-0.1536701,8.719342,,,,,,,
30328692,0.24074522,-0.23511639,8.5923815,,,,,,,
30328693,,,,-0.020401461,-0.16694176,-0.34411004,,,,
30328694,0.15211254,-0.38363603,8.489376,,,,,,,
30328697,0.12815776,-0.5153874,8.403139,,,,,,,
30328698,,,,-0.22919309,-0.19091019,-0.38938376,9.734652,-13.830086,-48.07865,
30328699,0.017965704,-0.62797487,8.350438,,,,,,,
30328702,-0.0682715,-0.67588437,8.3743925,,,,,,,
30328703,,,,-0.4422458,-0.15682177,-0.41441745,,,,
30328705,-0.21200022,-0.75733066,8.446258,,,,,,,
30328707,-0.40124303,-0.81242657,8.652268,,,,,,,
30328708,,,,-0.6339932,-0.07639438,-0.41974378,9.581364,-13.984465,-48.390205,
30328710,-0.53299433,-0.7860763,8.8894205,,,,,,,
30328712,-0.6863049,-0.79805374,9.152924,,,,,,,
30328713,,,,-0.800707,0.02800145,-0.40483007,,,,143.0
30328715,-0.8707568,-0.8220086,9.500268,,,,,,,
30328717,-1.0264629,-0.84835887,9.890731,,,,,,,
30328718,,,,-0.9343976,0.13665834,-0.3680785,9.885538,-12.920134,-46.53779,
30328720,-1.18696,-0.8220086,10.199748,,,,,,,
30328722,-1.347457,-0.7836809,10.58542,,,,,,,
30328723,,,,-1.024945,0.24531521,-0.31375003,,,,
30328725,-1.4696264,-0.75014424,10.918391,,,,,,,
30328727,-1.6588693,-0.70223475,11.239386,,,,,,,
30328728,,,,-1.0686208,0.34811312,-0.2503669,9.118738,-12.674049,-49.035957,
30328730,-1.7618749,-0.70702565,11.61308,,,,,,,
30328732,-1.8936261,-0.63037026,12.003543,,,,,,,
30328733,,,,-1.063827,0.4397258,-0.17260265,,,,
30328735,-2.0134,-0.57766986,12.295792,,,,,,,
30328737,-2.0900555,-0.5609014,12.619181,,,,,,,
30328738,,,,-1.0164229,0.51429427,-0.09004474,11.115467,-10.720432,-48.544624,
30328740,-2.2265978,-0.5704833,12.88987,,,,,,,
30328742,-2.28888,-0.5082009,13.124627,,,,,,,
30328743,,,,-0.9306691,0.55797005,-0.0010952242,,,,
30328745,-2.303253,-0.5082009,13.397712,,,,,,,
30328747,-2.36314,-0.52736473,13.558208,,,,,,,
30328748,,,,-0.8097617,0.55797005,0.09051743,11.271437,-11.90432,-48.991325,
30328750,-2.3727217,-0.48664162,13.6636095,,,,,,,
30328752,-2.2601345,-0.48903707,13.644445,,,,,,,
30328753,,,,-0.67127746,0.5164248,0.17733642,,,,
30328755,-2.2002473,-0.5585059,13.546231,,,,,,,
30328757,-2.0996373,-0.6064155,13.397712,,,,,,,
30328758,,,,-0.5365217,0.44931316,0.25616592,11.117573,-11.761564,-49.151558,
30328760,-2.0134,-0.6423477,13.21326,,,,,,,
30328762,-1.9247674,-0.61839294,13.01683,,,,,,,
30328763,,,,-0.4102879,0.3710163,0.3195491,,,,170.0
30328765,-1.8169708,-0.61120653,12.801237,,,,,,,
30328767,-1.7115698,-0.57527435,12.590435,,,,,,,
30328768,,,,-0.29950052,0.29804575,0.37174705,10.6553955,-11.904394,-48.38758,
30328770,-1.5798185,-0.53215563,12.374842,,,,,,,
30328772,-1.4552536,-0.50341,12.135294,,,,,,,
30328773,,,,-0.19830045,0.23093416,0.4148902,,,,
30328775,-1.357039,-0.5010145,11.878978,,,,,,,
30328777,-1.2636154,-0.5058055,11.672967,,,,,,,
30328778,,,,-0.11094886,0.16382255,0.4452502,11.116758,-12.040167,-48.064995,
30328780,-1.0911407,-0.49143258,11.471746,,,,,,,
30328782,-0.9785533,-0.5585059,11.280108,,,,,,,
30328783,,,,-0.045967788,0.090319365,0.46229443,,,,
30328785,-0.8659659,-0.5704833,11.083679,,,,,,,
30328787,-0.7390055,-0.5632969,10.868086,,,,,,,
30328788,,,,0.0035669683,0.008826707,0.45909864,11.424431,-12.035498,-48.057396,
30328790,-0.61204517,-0.6136019,10.741126,,,,,,,
30328792,-0.52101696,-0.61839294,10.53751,,,,,,,
30328793,,,,0.038720664,-0.07905754,0.44258702,,,,
30328795,-0.44196618,-0.6375568,10.348267,,,,,,,
30328797,-0.32937866,-0.5609014,10.194957,,,,,,,
30328798,,,,0.061091196,-0.16161545,0.41275966,11.734703,-12.933811,-49.277412,
30328800,-0.28626004,-0.58246076,10.005713,,,,,,,
30328802,-0.27667814,-0.52736473,9.81168,,,,,,,
30328803,,,,0.07334173,-0.234586,0.37387756,,,,
30328805,-0.26230526,-0.46987328,9.576922,,,,,,,
30328807,-0.26709622,-0.38363603,9.402053,,,,,,,
30328808,,,,0.076004885,-0.28838181,0.3360607,9.578892,-11.925369,-48.72364,
30328810,-0.27907363,-0.31895813,9.229579,,,,,,,
30328812,-0.27667814,-0.27344403,9.052314,,,,,,,
30328813,,,,0.062689096,-0.31767654,0.30303752,,,,194.0
30328815,-0.31261033,-0.22792992,8.954099,,,,,,,
30328818,-0.28865552,-0.12252888,8.855884,0.04138382,-0.3283292,0.27214488,11.734301,-12.638994,-49.28083,
30328820,-0.25511882,-0.079410255,8.903794,,,,,,,
30328823,-0.21679117,-0.007545918,8.939726,0.015284867,-0.3219376,0.24285012,,,,
30328825,-0.27667814,0.021199852,8.944517,,,,,,,
30328828,-0.32219222,0.08827323,8.954099,-1.6145402E-4,-0.29743657,0.2172838,11.116062,-12.030901,-47.446083,
30328830,-0.28386456,0.061922967,8.997218,,,,,,,
30328833,-0.25272334,0.07390037,9.035544,-0.012944615,-0.25429338,0.19970696,,,,
30328835,-0.2503279,0.006826967,9.021172,,,,,,,
30328838,-0.235955,-0.031500697,8.997218,,,,11.885052,-11.00358,-48.522194,
30328839,,,,-0.012944615,-0.2010302,0.18745641,,,,
30328840,-0.2503279,-0.045873553,9.021172,,,,,,,
30328843,-0.22876856,-0.14408818,8.980449,,,,,,,
30328844,,,,-0.016673038,-0.14510387,0.17573853,,,,
30328845,-0.20002282,-0.23272088,8.944517,,,,,,,
30328848,-0.1473223,-0.25188467,8.920562,,,,10.039768,-11.331045,-48.873817,
30328849,,,,-0.025195146,-0.09077543,0.16455325,,,,
30328850,-0.17367256,-0.29739884,8.918167,,,,,,,
30328853,-0.19523187,-0.3069807,8.934935,,,,,,,
30328854,,,,-0.036380414,-0.046566997,0.1517701,,,,
30328855,-0.20481378,-0.3309355,8.956493,,,,,,,
30328858,-0.21439569,-0.37165865,8.975657,,,,11.885454,-11.298397,-48.518776,
30328859,,,,-0.052892,-0.011945931,0.14058483,,,,
30328860,-0.23355952,-0.39800885,9.01159,,,,,,,
30328863,-0.27428266,-0.41238174,9.119387,,,,,,,211.0
30328864,,,,-0.068870954,0.004565653,0.13206272,,,,
30328865,-0.26709622,-0.38363603,9.061895,,,,,,,
30328868,-0.3389606,-0.3477039,9.03315,,,,9.73316,-12.362944,-48.55999,
30328869,,,,-0.078458324,0.006163548,0.123007976,,,,
30328870,-0.4347797,-0.33333102,9.102619,,,,,,,
30328873,-0.45154807,-0.32614455,9.138551,,,,,,,
30328874,,,,-0.08378464,0.014153026,0.12034482,,,,
30328875,-0.4707119,-0.30218974,9.066686,,,,,,,
30328878,-0.46831644,-0.27104858,9.061895,,,,12.348078,-12.60881,-47.873024,
30328879,,,,-0.08698043,0.019479342,0.11768165,,,,
30328880,-0.4802938,-0.3069807,8.999613,,,,,,,
30328883,-0.43238425,-0.34291288,8.946913,,,,,,,
30328884,,,,-0.09283938,0.017881447,0.11555113,,,,
30328885,-0.4491526,-0.29021236,8.930144,,,,,,,
30328888,-0.40842944,-0.28781685,8.93254,,,,10.963608,-12.920006,-47.594337,
30328889,,,,-0.10508992,0.014153026,0.10756165,,,,
30328890,-0.3677063,-0.25907114,8.963681,,,,,,,
30328893,-0.39405656,-0.23751184,9.023568,,,,,,,
30328894,,,,-0.11574255,0.0056309165,0.09637638,,,,
30328895,-0.3701018,-0.218348,9.066686,,,,,,,
30328898,-0.39884752,-0.13690174,9.066686,,,,10.658318,-12.666918,-50.081093,
30328899,,,,-0.12266676,-0.005021719,0.086256385,,,,
30328900,-0.4347797,-0.13211077,9.0810585,,,,,,,
30328903,-0.4132204,-0.16085654,9.112201,,,,,,,
30328904,,,,-0.1184057,-0.012478563,0.081462696,,,,
30328905,-0.45633903,-0.13211077,9.116992,,,,,,,
30328908,-0.45394355,-0.14648366,9.167296,,,,11.271143,-12.189873,-48.368965,
30328909,,,,-0.1082857,-0.016739618,0.08359322,,,,
30328910,-0.40603396,-0.15846106,9.181669,,,,,,,
30328913,-0.36531085,-0.18241584,9.200832,,,,,,,226.0
30328914,,,,-0.099763595,-0.018870145,0.08945217,,,,
30328915,-0.31500578,-0.22553441,9.157715,,,,,,,
30328918,-0.25511882,-0.27344403,9.126573,,,,10.040775,-12.06809,-48.865257,
30328919,,,,-0.08751307,-0.017272249,0.09744165,,,,
30328920,-0.16409063,-0.3141671,9.121782,,,,,,,
30328923,-0.18804543,-0.31895813,9.114595,,,,,,,
30328924,,,,-0.0747299,-0.015141722,0.103300594,,,,
30328926,-0.14971778,-0.278235,9.097828,,,,,,,
30328928,-0.15929969,-0.31656262,9.136155,,,,10.654179,-11.88818,-47.30445,
30328929,,,,-0.0662078,-0.011945931,0.10969217,,,,
30328931,-0.12336751,-0.33812192,9.073873,,,,,,,
30328933,-0.10659915,-0.3093762,9.057105,,,,,,,
30328934,,,,-0.05981621,-2.2803302E-4,0.113953225,,,,
30328936,-0.17127708,-0.2566757,9.109805,,,,,,,
30328938,-0.20002282,-0.23032543,9.157715,,,,12.350779,-12.21059,-50.818108,
30328939,,,,-0.036913045,0.024273029,0.12194271,,,,
30328941,-0.22637309,-0.16804296,9.184065,,,,,,,
30328943,-0.22158213,-0.108155996,9.181669,,,,,,,
30328944,,,,-0.0060204025,0.055165667,0.13312797,,,,
30328946,-0.29823744,-0.12013337,9.136155,,,,,,,
30328948,-0.35333344,-0.04347807,9.203229,,,,11.733696,-12.196766,-49.285973,
30328949,,,,0.02806803,0.09298252,0.15549852,,,,
30328951,-0.4156159,0.01640886,9.174483,,,,,,,
30328953,-0.42519778,0.061922967,9.174483,,,,,,,
30328954,,,,0.073874354,0.12866884,0.18426064,,,,
30328956,-0.48508477,0.112228036,9.155319,,,,,,,
30328958,-0.4946667,0.23439743,9.116992,,,,10.8099,-11.766233,-49.159157,
30328959,,,,0.12820281,0.16648571,0.21462063,,,,
30328961,-0.51862144,0.2607477,9.035544,,,,,,,
30328963,-0.53299433,0.31344822,8.956493,,,,,,,
30328964,,,,0.18199861,0.19737835,0.24498065,,,,
30328966,-0.5545536,0.39249903,8.85828,,,,,,,
30328968,-0.5258079,0.39489448,8.752879,,,,12.193731,-11.735956,-48.506035,
30328969,,,,0.22993548,0.22028153,0.26841646,,,,
30328971,-0.50664407,0.41645378,8.695387,,,,,,,
30328973,-0.46831644,0.4260357,8.563636,,,,,,,
30328974,,,,0.27148074,0.2234773,0.28705856,,,,
30328976,-0.42998877,0.43082666,8.498958,,,,,,,
30328978,-0.39884752,0.4404086,8.475003,,,,12.194536,-12.32559,-48.4992,
30328979,,,,0.30130813,0.21122678,0.2971786,,,,
30328981,-0.32937866,0.4955046,8.393557,,,,,,,
30328983,-0.33416963,0.47394526,8.25462,,,,,,,
30328984,,,,0.3226134,0.17980151,0.2993091,,,,
30328986,-0.3030284,0.5458096,8.096518,,,,,,,
30328988,-0.27188718,0.5434141,7.9911165,,,,11.733658,-12.919914,-48.349007,
30328989,,,,0.33007023,0.14997414,0.2961133,,,,
30328991,-0.3030284,0.67277,7.9336247,,,,,,,
30328993,-0.24314144,0.7661936,7.8952975,,,,,,,
30328994,,,,0.33379865,0.12600571,0.29291752,,,,
30328996,-0.20481378,0.77817106,7.8881106,,,,,,,
30328998,-0.20960474,0.85482633,7.8210373,,,,11.889837,-13.382971,-49.887398,
30328999,,,,0.3396576,0.10576568,0.29078698,,,,
30329001,-0.12576298,0.90752685,7.7204275,,,,,,,
30329003,-0.06348054,0.8787811,7.7946873,,,,,,,
30329004,,,,0.33859235,0.08659094,0.29025435,,,,
30329006,-0.034734815,0.9290862,7.7563596,,,,,,,
30329008,0.051502436,0.9626229,7.7228227,,,,12.193209,-11.729008,-48.041832,
30329009,,,,0.33060285,0.067948826,0.28013438,,,,
30329011,0.06827077,1.0368828,7.703659,,,,,,,
30329013,0.08983007,1.0296963,7.6964726,,,,,,,
30329014,,,,0.32527655,0.050371982,0.26415542,,,,248.0
30329016,0.19283566,1.0608375,7.7252183,,,,,,,
30329018,0.25751355,1.127911,7.6533537,,,,11.885536,-11.733677,-48.04943,
30329019,,,,0.3162218,0.035990924,0.2391217,,,,
30329021,0.33177346,1.1518657,7.6198173,,,,,,,
30329023,0.40603328,1.1710294,7.5934668,,,,,,,
30329024,,,,0.3061018,0.022142502,0.203968,,,,
30329026,0.49227053,1.1470747,7.5958624,,,,,,,
30329028,0.5593439,1.1877979,7.483275,,,,10.8133335,-13.403946,-50.223457,
30329029,,,,0.2895902,0.018946711,0.15816168,,,,
30329031,0.6120444,1.1758205,7.40662,,,,,,,
30329034,0.72702736,1.1877979,7.365896,0.2656218,0.02160987,0.1001048,,,,
30329036,0.7342138,1.1973798,7.341942,,,,,,,
30329038,,,,,,,13.271736,-12.313881,-48.78205,
30329039,0.7366092,1.1758205,7.329964,0.23739232,0.022142502,0.04417848,,,,
30329041,0.71984094,1.2213346,7.320382,,,,,,,
30329044,0.6791178,1.1830069,7.2940326,0.20223862,0.022675134,-0.009617331,,,,
30329046,0.66234946,1.2045662,7.2652864,,,,,,,
30329048,,,,,,,11.734703,-12.933811,-49.277412,
30329049,0.6503721,1.2357074,7.2173767,0.16601968,0.022142502,-0.056488924,,,,
30329051,0.55694836,1.2476848,7.203004,,,,,,,
30329054,0.5162253,1.1830069,7.2557044,,,,,,,
30329055,,,,0.121278584,0.023207765,-0.09111,,,,
30329056,0.4563383,1.2117527,7.2964277,,,,,,,
30329058,,,,,,,11.1201,-14.110842,-48.50524,
30329059,0.40842873,1.2860125,7.3635015,,,,,,,
30329060,,,,0.07653752,0.026403556,-0.12253528,,,,
30329061,0.31500506,1.3554814,7.397038,,,,,,,
30329064,0.24074522,1.3770406,7.4880657,,,,,,,
30329065,,,,0.0376554,0.030131977,-0.14117737,,,,
30329066,0.21918592,1.3794361,7.6557493,,,,,,,
30329068,,,,,,,12.810394,-13.191444,-47.85479,
30329069,0.11378488,1.4249502,7.751569,,,,,,,
30329070,,,,-6.940858E-4,0.030131977,-0.15715633,,,,
30329071,0.0107792765,1.4513005,7.8282237,,,,,,,
30329074,-0.02036193,1.5303513,7.8976927,,,,,,,
30329075,,,,-0.028390938,0.023740396,-0.1667437,,,,
30329076,-0.06587604,1.5447241,8.046212,,,,,,,
30329078,,,,,,,12.348288,-11.887978,-48.96473,
30329079,-0.07785343,1.5183738,8.151613,,,,,,,
30329080,,,,-0.05235937,0.021077238,-0.16461317,,,,
30329081,-0.15211326,1.5063965,8.324088,,,,,,,
30329084,-0.2503279,1.4800463,8.439071,,,,,,,
30329085,,,,-0.06727306,0.016283551,-0.15289527,,,,
30329086,-0.3245877,1.4656734,8.625918,,,,,,,
30329088,,,,,,,11.888273,-13.3621235,-48.494804,
30329089,-0.44196618,1.508792,8.724133,,,,,,,
30329090,,,,-0.06674042,0.00669618,-0.13425316,,,,
30329091,-0.5449717,1.4944191,8.906189,,,,,,,
30329094,-0.62162703,1.4632779,9.049918,,,,,,,
30329095,,,,-0.052892,-7.606648E-4,-0.10282789,,,,
30329096,-0.63839537,1.4129729,9.222393,,,,,,,
30329098,,,,,,,11.427717,-13.815987,-48.810524,
30329099,-0.6336044,1.4153684,9.36133,,,,,,,
30329100,,,,-0.024662513,-0.01460909,-0.066608936,,,,
30329101,-0.60725415,1.4441142,9.430799,,,,,,,
30329104,-0.50664407,1.3722497,9.464335,,,,,,,
30329105,,,,0.015284867,-0.038044892,-0.03678155,,,,
30329106,-0.47310737,1.3243401,9.5170355,,,,,,,
30329108,,,,,,,13.273613,-13.062508,-49.547157,
30329109,-0.47310737,1.2788261,9.5697365,,,,,,,
30329110,,,,0.050971195,-0.06307858,-0.020269966,,,,
30329111,-0.4347797,1.2596623,9.550572,,,,,,,
30329114,-0.36291534,1.2309165,9.608065,,,,,,,
30329115,,,,0.08452699,-0.09450386,-0.0117478585,,,,
30329116,-0.31500578,1.233312,9.624833,,,,,,,
30329118,,,,,,,12.350046,-12.924473,-49.262215,
30329119,-0.33656508,1.2069616,9.694302,,,,,,,
30329120,,,,0.11382174,-0.12646176,-0.0053562773,,,,
30329121,-0.3054239,1.168634,9.8404255,,,,,,,
30329124,-0.31740126,1.1901934,9.991341,,,,,,,
30329125,,,,0.15110599,-0.17067018,-0.008019437,,,,
30329126,-0.3245877,1.2524759,10.096742,,,,,,,
30329128,,,,,,,12.9656105,-14.075878,-47.995445,
30329129,-0.30063292,1.2716396,10.206934,,,,,,,
30329130,,,,0.20117337,-0.25216284,-0.0117478585,,,,
30329131,-0.32937866,1.2117527,10.218912,,,,,,,
30329134,-0.35572892,1.2309165,10.1901655,,,,,,,
30329135,,,,0.25443652,-0.37999448,-0.014943649,,,,
30329136,-0.346147,1.2452893,10.123093,,,,,,,
30329138,,,,,,,12.96735,-14.099041,-49.542778,
30329139,-0.24074596,1.1566567,10.036855,,,,,,,
30329140,,,,0.28799233,-0.5456429,-0.017074179,,,,
30329141,-0.13055395,1.1015606,9.78533,,,,,,,
30329144,0.029943138,1.0296963,9.555364,,,,,,,
30329145,,,,0.28799233,-0.7214114,-0.026128916,,,,
30329147,0.209604,1.0201144,9.33498,,,,,,,
30329148,,,,,,,11.118635,-12.788794,-48.8301,
30329149,0.31740057,0.9674139,9.109805,,,,,,,
30329150,,,,0.24804495,-0.87800515,-0.04743419,,,,
30329152,0.43238348,0.9410635,8.973263,,,,,,,
30329154,0.55694836,0.9674139,8.803184,,,,,,,
30329155,,,,0.18306388,-0.9951841,-0.07885946,,,,
30329157,0.72463185,0.9314817,8.566031,,,,,,,
30329158,,,,,,,12.042896,-12.93609,-49.734,
30329159,0.88273346,0.85961735,8.463026,,,,,,,
30329160,,,,0.10370173,-1.0452515,-0.119872116,,,,
30329162,1.0815581,0.8739902,8.290551,,,,,,,
30329164,1.2324734,0.8524308,8.161196,,,,,,,
30329165,,,,0.015817499,-1.0132936,-0.16887422,,,,
30329167,1.4217161,0.78296196,8.122869,,,,,,,
30329168,,,,,,,12.965015,-12.765411,-49.093987,
30329169,1.4792076,0.6967248,8.18036,,,,,,,
30329170,,,,-0.0848499,-0.9062347,-0.22639845,,,,
30329172,1.5438855,0.60569656,8.213896,,,,,,,
30329174,1.5582584,0.5410187,8.271388,,,,,,,
30329175,,,,-0.18658257,-0.7656199,-0.28498793,,,,
30329177,1.4839987,0.45238596,8.515726,,,,,,,
30329178,,,,,,,10.04072,-11.777906,-49.178154,
30329179,1.385784,0.3709397,8.788811,,,,,,,
30329180,,,,-0.28458682,-0.6202114,-0.33345744,,,,
30329182,1.1965411,0.2942844,8.973263,,,,,,,
30329184,1.0096939,0.24158387,9.217602,,,,,,,
30329185,,,,-0.3730037,-0.46841136,-0.36221954,,,,
30329187,0.710259,0.18888333,9.529014,,,,,,,
30329188,,,,,,,11.733255,-12.625097,-48.352425,
30329189,0.5305981,0.13139185,9.845217,,,,,,,
30329190,,,,-0.43691948,-0.3246008,-0.3648827,,,,
30329192,0.38447392,0.10264611,10.142256,,,,,,,
30329194,0.20481306,0.06910941,10.489601,,,,,,,
30329195,,,,-0.4758016,-0.2010302,-0.34304482,,,,
30329197,0.051502436,0.07629584,10.844131,,,,,,,
30329198,,,,,,,12.351126,-12.215223,-51.127556,
30329199,-0.09701724,-0.0051504374,11.0884695,,,,,,,
30329200,,,,-0.48166054,-0.10036281,-0.3009669,,,,
30329202,-0.22637309,-0.019523293,11.383114,,,,,,,
30329204,-0.35093796,-0.0027549267,11.6561985,,,,,,,
30329205,,,,-0.46994266,-0.031120675,-0.25356266,,,,
30329207,-0.45633903,-0.0027549267,11.878978,,,,,,,
30329208,,,,,,,10.963764,-11.908989,-48.998924,
30329209,-0.61204517,0.009222448,12.125712,,,,,,,
30329210,,,,-0.44277844,0.011489866,-0.20136477,,,,
30329212,-0.69588685,0.033177227,12.391611,,,,,,,
30329214,-0.7437964,0.061922967,12.650322,,,,,,,265.0
30329215,,,,-0.3996353,0.034393027,-0.1433079,,,,
30329217,-0.7509829,0.15055569,12.808424,,,,,,,
30329218,,,,,,,12.501614,-11.010456,-49.590126,
30329219,-0.81566083,0.18409237,12.973712,,,,,,,
30329220,,,,-0.3453068,0.029066715,-0.07832683,,,,
30329222,-0.8348246,0.20325622,13.0695305,,,,,,,
30329224,-0.7581693,0.25595674,13.081508,,,,,,,
30329225,,,,-0.2877826,3.0459874E-4,-0.014411018,,,,
30329227,-0.7222371,0.23200196,12.901848,,,,,,,
30329228,,,,,,,12.501614,-11.010456,-49.590126,
30329229,-0.6192316,0.2367929,12.715,,,,,,,
30329230,,,,-0.24730258,-0.030588042,0.04151532,,,,
30329232,-0.52101696,0.15055569,12.549712,,,,,,,
30329234,-0.3677063,0.09545967,12.36526,,,,,,,
30329235,,,,-0.24463941,-0.05295858,0.086256385,,,,
30329237,-0.21918665,0.05473654,12.247882,,,,,,,
30329238,,,,,,,12.961187,-9.964638,-49.12652,
30329239,-0.113785595,0.030781746,12.128108,,,,,,,
30329240,,,,-0.27127102,-0.062013317,0.12247534,,,,
30329242,0.020361215,0.018804371,12.025102,,,,,,,
30329244,0.15690348,-0.0027549267,11.98917,,,,,,,
30329245,,,,-0.31228366,-0.04976279,0.15496588,,,,
30329247,0.3916604,-0.050664514,11.953238,,,,,,,
30329248,,,,,,,11.27043,-11.167274,-48.999886,
30329249,0.59048504,-0.12252888,11.910119,,,,,,,
30329250,,,,-0.35702473,-0.017272249,0.17999958,,,,
30329252,0.83961487,-0.2423028,11.855022,,,,,,,
30329255,1.1965411,-0.388427,11.8741865,-0.40123317,0.029599346,0.18745641,,,,
30329257,1.4792076,-0.5201783,11.895747,,,,,,,
30329258,,,,,,,11.423954,-10.4371605,-49.623573,
30329260,1.7091734,-0.70942116,11.809509,-0.4507679,0.0791341,0.16774905,,,,
30329262,1.9750717,-0.8675227,11.790346,,,,,,,
30329265,2.1954558,-1.0208333,11.740041,-0.50296587,0.13665834,0.11927955,,,,
30329267,2.4086533,-1.1957033,11.694526,,,,,,,
30329268,,,,,,,11.118534,-11.340181,-50.54931,
30329270,2.5739412,-1.3442229,11.68734,-0.5530332,0.20590046,0.04897216,,,,
30329272,2.6505966,-1.4711832,11.653803,,,,,,,
30329275,2.7559977,-1.555025,11.684945,,,,,,,
30329276,,,,-0.6031006,0.28526258,-0.034651026,,,,
30329277,2.8015118,-1.6029346,11.742435,,,,,,,
30329278,,,,,,,11.729065,-8.80636,-49.32534,
30329280,2.7991161,-1.6987537,11.754413,,,,,,,
30329281,,,,-0.6451785,0.35823315,-0.12839422,,,,
30329282,2.772766,-1.7658271,11.78795,,,,,,,
30329285,2.7368338,-1.7801999,11.819091,,,,,,,
30329286,,,,-0.6883217,0.4210837,-0.22639845,,,,
30329287,2.6194556,-1.7897819,11.910119,,,,,,,
30329288,,,,,,,11.422827,-9.987984,-49.164513,
30329290,2.487704,-1.8760191,11.991566,,,,,,,
30329291,,,,-0.72880167,0.47061843,-0.32493532,,,,
30329292,2.3032522,-1.9071602,12.13769,,,,,,,
30329295,2.0852637,-1.8736237,12.314955,,,,,,,
30329296,,,,-0.75916165,0.49831527,-0.40802586,,,,
30329297,1.766665,-1.9071602,12.530548,,,,,,,
30329298,,,,,,,13.422321,-9.807909,-48.962105,
30329300,1.5390946,-1.991002,12.798841,,,,,,,
30329301,,,,-0.76448804,0.5116311,-0.46288693,,,,
30329302,1.3570383,-2.0077705,13.050366,,,,,,,
30329305,1.1965411,-2.0101662,13.325847,,,,,,,
30329306,,,,-0.7325301,0.48819527,-0.49058378,,,,
30329307,0.9498069,-2.0676577,13.479157,,,,,,,
30329308,,,,,,,13.419601,-9.192793,-47.26687,
30329310,0.7342138,-2.120358,13.536649,,,,,,,
30329311,,,,-0.6675491,0.4328016,-0.4969754,,,,
30329312,0.6455811,-2.1634767,13.579768,,,,,,,
30329315,0.5162253,-2.2137816,13.577373,,,,,,,
30329316,,,,-0.58179533,0.3710163,-0.48792064,,,,
30329317,0.42759258,-2.2137816,13.551022,,,,,,,
30329318,,,,,,,13.42037,-7.755762,-49.759727,
30329320,0.37968302,-2.2018044,13.48874,,,,,,,
30329321,,,,-0.48751953,0.3076331,-0.47513744,,,,
30329322,0.2886548,-2.1778495,13.438435,,,,,,,
30329325,0.21679044,-2.0940077,13.347406,,,,,,,
30329326,,,,-0.38898262,0.23626046,-0.46448484,,,,
30329327,0.09222555,-1.995793,13.328243,,,,,,,
30329328,,,,,,,14.18955,-7.744089,-49.74073,
30329330,0.017965704,-1.8544596,13.18691,,,,,,,
30329331,,,,-0.291511,0.15849625,-0.45063642,,,,
30329332,-0.046712205,-1.761036,13.062345,,,,,,,
30329335,-0.113785595,-1.6125165,12.921011,,,,,,,
30329336,,,,-0.20309414,0.08179725,-0.4303964,,,,
30329337,-0.18564996,-1.5190928,12.731769,,,,,,,
30329338,,,,,,,13.72677,-7.4446945,-48.981895,
30329340,-0.22158213,-1.4424375,12.46108,,,,,,,
30329341,,,,-0.12852569,0.017348815,-0.4032322,,,,
30329342,-0.21679117,-1.389737,12.21195,,,,,,,
30329345,-0.22876856,-1.3011042,12.005939,,,,,,,
30329346,,,,-0.06567516,-0.03431647,-0.37500268,,,,
30329347,-0.18804543,-1.3226635,11.807114,,,,,,,
30329348,,,,,,,14.186522,-6.4011955,-48.67301,
30329350,-0.12097203,-1.2412174,11.5771475,,,,,,,
30329351,,,,-0.016673038,-0.07426385,-0.34251216,,,,
30329352,-0.056294113,-1.2460083,11.265736,,,,,,,
30329355,-0.029943839,-1.1909122,10.947137,,,,,,,
30329356,,,,0.014752236,-0.099297546,-0.3148153,,,,
30329357,0.049106926,-1.1933078,10.669262,,,,,,,
30329358,,,,,,,14.340677,-6.2584,-49.135124,
30329360,0.13055322,-1.1262343,10.360245,,,,,,,
30329361,,,,0.02220908,-0.10515649,-0.29297742,,,,
30329362,0.24793166,-1.0423926,10.099138,,,,,,,
30329365,0.38686943,-0.944178,9.929059,,,,,,,
30329366,,,,0.009425919,-0.09290596,-0.27859634,,,,
30329368,0.48268855,-0.9537598,9.71586,,,,13.574163,-9.344816,-47.72558,
30329370,0.544971,-0.8699181,9.564946,,,,,,,
30329371,,,,-0.017738303,-0.06467648,-0.2722048,,,,
30329373,0.67432684,-0.8675227,9.394867,,,,,,,
30329375,0.7605641,-0.8052403,9.176879,,,,,,,
30329376,,,,-0.05022884,-0.019935407,-0.27486792,,,,
30329378,0.8132646,-0.774099,9.037941,,,,14.49576,-6.4173737,-50.05802,
30329380,0.88273346,-0.774099,8.908585,,,,,,,
30329381,,,,-0.08857833,0.04184987,-0.28498793,,,,
30329383,0.9474114,-0.71421206,8.712155,,,,,,,
30329385,0.985739,-0.74774873,8.549263,,,,,,,
30329386,,,,-0.13225411,0.116950944,-0.29936898,,,,
30329388,1.0815581,-0.723794,8.410325,,,,14.033125,-5.9752007,-49.610344,
30329390,1.1294677,-0.66869795,8.168382,,,,,,,
30329391,,,,-0.18178888,0.20110677,-0.31268477,,,,
30329393,1.155818,-0.71900296,7.9575796,,,,,,,
30329395,1.2444508,-0.69983923,7.8210373,,,,,,,
30329396,,,,-0.24836783,0.28739312,-0.33185953,,,,
30329398,1.2348688,-0.75253975,7.787501,,,,13.5716915,-7.2857246,-48.059,
30329400,1.2181005,-0.7836809,7.749173,,,,,,,
30329401,,,,-0.321871,0.3694184,-0.35795847,,,,
30329403,1.1486316,-0.774099,7.749173,,,,,,,
30329405,1.0264621,-0.723794,7.8042693,,,,,,,
30329406,,,,-0.38951528,0.43919316,-0.38885114,,,,
30329408,0.95459783,-0.6806754,7.8402014,,,,14.495604,-7.4283905,-48.65342,
30329410,0.86836064,-0.62318385,7.892902,,,,,,,
30329411,,,,-0.44437635,0.48819527,-0.4202764,,,,
30329413,0.7222364,-0.5848563,7.962371,,,,,,,
30329415,0.5617394,-0.4842461,8.010281,,,,,,,
30329416,,,,-0.49018267,0.5148269,-0.4437122,,,,
30329418,0.5114343,-0.4770597,8.051003,,,,15.107828,-6.509117,-46.946434,
30329420,0.38926488,-0.4794552,8.170777,,,,,,,
30329421,,,,-0.52906483,0.51429427,-0.45969114,,,,
30329423,0.22397688,-0.41717276,8.304925,,,,,,,
30329425,0.075457215,-0.39561346,8.549263,,,,,,,
30329426,,,,-0.551968,0.4786079,-0.4687459,,,,
30329428,-0.04192123,-0.36447218,8.65706,,,,15.721687,-4.164398,-48.505974,
30329430,-0.11857656,-0.35968128,8.817556,,,,,,,
30329431,,,,-0.56368583,0.4024416,-0.4687459,,,,
30329433,-0.2024183,-0.36926314,8.915771,,,,,,,
30329435,-0.2503279,-0.39082244,8.980449,,,,,,,
30329436,,,,-0.5658164,0.28313208,-0.46341956,,,,
30329438,-0.25990978,-0.36207673,9.090641,,,,14.6466465,-5.5074215,-48.51716,
30329440,-0.22397761,-0.36926314,9.061895,,,,,,,
30329441,,,,-0.56368583,0.13825622,-0.45862588,,,,
30329443,-0.2503279,-0.3309355,9.01159,,,,,,,
30329445,-0.23116404,-0.34051743,8.961285,,,,,,,
30329446,,,,-0.56634897,-0.009282772,-0.457028,,,,
30329448,-0.23835048,-0.37165865,8.930144,,,,16.489998,-4.141144,-47.71331,
30329450,-0.16409063,-0.33812192,8.918167,,,,,,,
30329451,,,,-0.5727406,-0.14883229,-0.4623543,,,,
30329453,-0.034734815,-0.39082244,8.776834,,,,,,,
30329455,0.0035928488,-0.40279987,8.640291,,,,,,,
30329456,,,,-0.5855237,-0.26334813,-0.47460485,,,,
30329458,0.077852696,-0.43394104,8.601963,,,,15.721687,-4.164398,-48.505974,
30329460,0.12097132,-0.498619,8.546867,,,,,,,
30329461,,,,-0.60895956,-0.341645,-0.49164906,,,,
30329463,0.10899392,-0.48185065,8.439071,,,,,,,
30329465,0.11138937,-0.4770597,8.470212,,,,,,,238.0
30329466,,,,-0.63825434,-0.38425553,-0.5086933,,,,
30329468,0.1329487,-0.5656924,8.431885,,,,15.415123,-3.604909,-50.22248,
30329470,0.14013514,-0.5704833,8.431885,,,,,,,
30329471,,,,-0.6718101,-0.3959734,-0.5252049,,,,
30329473,0.12815776,-0.5153874,8.472608,,,,,,,
30329476,0.099411994,-0.52736473,8.546867,-0.7085617,-0.39171237,-0.5422491,,,,
30329478,0.03473407,-0.553715,8.623523,,,,16.026329,-2.8168325,-47.43064,
30329481,0.0083838105,-0.5848563,8.7504835,-0.7479764,-0.37466815,-0.5507712,,,,
30329483,-0.0682715,-0.61599743,8.815161,,,,,,,
30329486,-0.17127708,-0.63276577,8.93254,-0.77780384,-0.32939443,-0.55130386,,,,
30329488,-0.31979674,-0.67588437,9.049918,,,,15.566202,-3.7106066,-47.586494,
30329491,-0.34375155,-0.75253975,9.131364,-0.78206486,-0.244706,-0.5342596,,,,
30329493,-0.40363848,-0.80044925,9.217602,,,,,,,
30329496,-0.5449717,-0.84356785,9.28228,,,,,,,
30329497,,,,-0.75809646,-0.12699439,-0.50176907,,,,
30329498,-0.63120896,-0.88668644,9.447568,,,,16.026274,-2.5266476,-47.743538,
30329501,-0.7174462,-0.9417825,9.677534,,,,,,,
30329502,,,,-0.703768,0.014153026,-0.45276695,,,,
30329503,-0.77733314,-1.0160424,9.790121,,,,,,,
30329506,-0.8731523,-1.0711384,9.8404255,,,,,,,
30329507,,,,-0.6307975,0.1478436,-0.3947101,,,,
30329508,-0.98573977,-1.0903022,10.036855,,,,14.641209,-1.5273762,-48.563377,
30329511,-1.1438414,-1.114257,10.192561,,,,,,,
30329512,,,,-0.5386522,0.26342466,-0.33399007,,,,
30329513,-1.2731972,-1.114257,10.403364,,,,,,,
30329515,,,,,,,,,,212.0
30329516,-1.3546435,-1.0352061,10.61177,,,,,,,
30329517,,,,-0.42253846,0.34278682,-0.2626174,,,,
30329518,-1.4911858,-1.0399971,10.750708,,,,16.949318,-2.657732,-47.564278,
30329521,-1.6181462,-1.0256243,10.923182,,,,,,,
30329522,,,,-0.29257628,0.36888576,-0.18538581,,,,
30329523,-1.7211516,-1.0280197,11.126798,,,,,,,
30329526,-1.8385302,-0.87950015,11.316041,,,,,,,
30329527,,,,-0.15142886,0.34012365,-0.10815421,,,,
30329528,-1.8984171,-0.8052403,11.488515,,,,16.33432,-2.6717024,-47.888954,
30329531,-1.8624849,-0.75253975,11.601103,,,,,,,
30329532,,,,0.0030343365,0.24957627,-0.03411839,,,,
30329533,-1.8265527,-0.70463014,11.7352495,,,,,,,
30329536,-1.7283381,-0.6351613,11.740041,,,,,,,
30329537,,,,0.16442177,0.100972,0.030862683,,,,
30329538,-1.5917959,-0.6016246,11.732854,,,,16.485714,-0.7553663,-48.06214,
30329541,-1.4289032,-0.58006525,11.641826,,,,,,,
30329542,,,,0.32847232,-0.07532912,0.07720164,,,,
30329543,-1.2803836,-0.53694665,11.514866,,,,,,,
30329546,-1.0791634,-0.5465286,11.268131,,,,,,,
30329547,,,,0.4850661,-0.26441336,0.103300594,,,,
30329548,-0.8252427,-0.5225737,11.083679,,,,16.484615,-0.45128345,-47.446632,
30329551,-0.62162703,-0.5010145,10.793826,,,,,,,
30329552,,,,0.62088716,-0.44870394,0.10702902,,,,
30329553,-0.4707119,-0.5010145,10.429714,,,,,,,
30329556,-0.26230526,-0.4842461,9.926662,,,,,,,
30329557,,,,0.71409774,-0.6132872,0.08838691,,,,
30329558,-0.08024889,-0.44591853,9.416426,,,,17.10085,-1.4668598,-46.955254,
30329561,0.0059883296,-0.3740541,8.973263,,,,,,,
30329562,,,,0.7593714,-0.7299335,0.05376585,,,,
30329563,0.14013514,-0.40279987,8.472608,,,,,,,
30329565,,,,,,,,,,196.0
30329566,0.25990906,-0.3069807,8.055795,,,,,,,
30329567,,,,0.7684262,-0.78692514,0.014351098,,,,
30329568,0.29823667,-0.21595255,7.6198173,,,,17.409359,-1.3286791,-47.87777,
30329571,0.29584128,-0.13211077,7.176654,,,,,,,
30329572,,,,0.73646826,-0.7778704,-0.021335231,,,,
30329573,0.33177346,-0.105760545,6.9371057,,,,,,,
30329576,0.35812366,-0.03389615,6.6783943,,,,,,,
30329577,,,,0.6762809,-0.7102262,-0.04849945,,,,
30329578,0.33177346,0.0020360053,6.4148917,,,,16.332214,-1.6305752,-47.28199,
30329581,0.31260955,0.04275915,6.2543945,,,,,,,
30329582,,,,0.5947882,-0.610624,-0.06394576,,,,
30329583,0.30063218,0.030781746,6.110666,,,,,,,
30329586,0.30542314,0.04275915,5.935796,,,,,,,
30329587,,,,0.49199027,-0.49983662,-0.07193525,,,,
30329588,0.2215814,0.1481602,5.8208127,,,,16.023455,-0.4629202,-47.76751,
30329591,0.12576225,0.18648785,5.6195927,,,,,,,
30329592,,,,0.37001762,-0.38798395,-0.07832683,,,,
30329594,0.0107792765,0.23439743,5.533355,,,,,,,
30329596,-0.027548373,0.29188892,5.4471183,,,,,,,
30329597,,,,0.23100074,-0.2867839,-0.07086999,,,,
30329598,,,,,,,16.025331,-1.2115469,-48.532616,
30329599,-0.116181076,0.32542562,5.408791,,,,,,,
30329601,-0.20960474,0.4188493,5.4567003,,,,,,,
30329602,,,,0.08133121,-0.19357336,-0.046901554,,,,
30329604,-0.33177415,0.41405833,5.5501237,,,,,,,
30329606,-0.5353898,0.45478147,5.6914573,,,,,,,
30329607,,,,-0.059283577,-0.11101544,-0.0117478585,,,,
30329608,,,,,,,15.564253,-1.6584625,-48.384132,
30329609,-0.76535577,0.50269103,5.863931,,,,,,,
30329611,-0.9665759,0.507482,6.1250386,,,,,,,
30329612,,,,-0.18285413,-0.047632262,0.052167952,,,,
30329614,-1.0983273,0.5649735,6.4628015,,,,,,,
30329616,-1.2204967,0.59371924,6.800564,,,,,,,
30329617,,,,-0.27553207,-0.010880668,0.15123746,,,,
30329618,,,,,,,15.5635395,-0.6358633,-49.015053,
30329619,-1.2731972,0.51706386,7.1598854,,,,,,,
30329621,-1.2803836,0.5290413,7.514416,,,,,,,
30329622,,,,-0.33785,-0.004489087,0.26255754,,,,
30329624,-1.1701916,0.5314368,7.813851,,,,,,,
30329626,-1.0384402,0.49071363,8.11089,,,,,,,
30329627,,,,-0.3751342,-0.039642785,0.36588806,,,,
30329628,,,,,,,15.408703,-1.7827263,-46.68415,
30329629,-0.91866636,0.51706386,8.391161,,,,,,,
30329631,-0.71984166,0.5601825,8.625918,,,,,,,
30329632,,,,-0.39750475,-0.09556912,0.44738072,,,,
30329634,-0.5018531,0.5002955,8.776834,,,,,,,
30329636,-0.2503279,0.4715498,8.990031,,,,,,,
30329637,,,,-0.40229842,-0.1440386,0.49638283,,,,
30329638,,,,,,,16.640293,-1.920723,-47.270973,
30329639,-0.003593579,0.49790007,9.318212,,,,,,,
30329641,0.14732155,0.44519955,9.634415,,,,,,,
30329642,,,,-0.38898262,-0.15682177,0.5128944,,,,
30329644,0.3557282,0.44280407,9.816471,,,,,,,
30329646,0.47550213,0.35656685,10.0320635,,,,,,,
30329647,,,,-0.34211105,-0.1472344,0.5086334,,,,
30329648,,,,,,,16.330685,-0.8865814,-46.826363,
30329649,0.6120444,0.28949344,10.238075,,,,,,,
30329651,0.8180555,0.26314318,10.367431,,,,,,,
30329652,,,,-0.2707384,-0.116341755,0.4921218,,,,
30329654,0.92824745,0.17211498,10.427318,,,,,,,
30329656,1.1582135,0.13857828,10.453669,,,,,,,
30329657,,,,-0.18604992,-0.06574174,0.46069652,,,,
30329658,,,,,,,17.563694,-1.188201,-48.49462,
30329659,1.2300779,0.081086814,10.604584,,,,,,,
30329661,1.2971512,0.025990784,10.698007,,,,,,,
30329662,,,,-0.10242675,-0.0028911917,0.4132923,,,,
30329664,1.3905749,-0.019523293,10.79143,,,,,,,
30329665,,,,,,,,,,171.0
30329666,1.4193206,-0.050664514,10.801013,,,,,,,
30329667,,,,-0.017205669,0.066883564,0.36748597,,,,
30329668,,,,,,,16.332317,-0.3293724,-48.999474,
30329669,1.4552529,-0.10096955,10.889646,,,,,,,
30329671,1.4983715,-0.0865967,11.042955,,,,,,,
30329672,,,,0.079733305,0.12920149,0.33073437,,,,
30329674,1.4528574,-0.108155996,11.174707,,,,,,,
30329676,1.4456708,-0.11294696,11.201057,,,,,,,
30329677,,,,0.18945546,0.1766057,0.30197227,,,,
30329678,,,,,,,18.17472,-0.39780712,-45.548042,
30329679,1.4217161,-0.12492433,11.174707,,,,,,,
30329681,1.4121343,-0.16085654,11.169917,,,,,,,
30329682,,,,0.29811233,0.19950888,0.27534068,,,,
30329684,1.3785975,-0.12731981,11.119612,,,,,,,
30329686,1.3642247,-0.108155996,11.011815,,,,,,,
30329687,,,,0.39345342,0.20004152,0.24924171,,,,
30329688,,,,,,,18.177002,-1.4412518,-46.309715,
30329689,1.2827784,-0.12971532,10.877667,,,,,,,
30329691,1.2276824,-0.105760545,10.753103,,,,,,,
30329692,,,,0.47441342,0.1845952,0.22314274,,,,
30329694,1.1677954,-0.03389615,10.633328,,,,,,,
30329697,1.050417,-0.03868714,10.427318,0.53460085,0.16701834,0.20130485,,,,
30329698,,,,,,,18.638565,-1.7244349,-45.985435,
30329699,1.0025073,0.01401341,10.257238,,,,,,,
30329702,0.8947109,-0.0051504374,10.058414,0.56975454,0.15530044,0.18639116,,,,
30329704,0.7964963,-0.03389615,9.929059,,,,,,,
30329707,0.7294228,-0.050664514,9.782935,0.58040714,0.14198464,0.17520589,,,,
30329708,,,,,,,17.409817,-1.9136829,-47.56144,
30329709,0.6695359,0.0020360053,9.667952,,,,,,,
30329712,0.6479766,0.04275915,9.507455,0.56975454,0.12760359,0.1672164,,,,
30329714,0.5832986,0.021199852,9.3780985,,,,,,,
30329716,,,,,,,,,,157.0
30329717,0.4874795,0.07869133,9.323003,,,,,,,
30329718,,,,0.5447208,0.121212,0.16348799,17.869682,-1.4505539,-46.626793,
30329719,0.41561514,0.033177227,9.231975,,,,,,,
30329722,0.36770558,0.01401341,9.131364,,,,,,,
30329723,,,,0.5015776,0.11801621,0.16348799,,,,
30329724,0.33895987,-0.048269033,9.172088,,,,,,,
30329727,0.26230454,-0.03389615,9.263116,,,,,,,
30329728,,,,0.44937974,0.10842884,0.1720101,17.10191,-2.494091,-46.633797,
30329729,0.17606732,-0.053059995,9.255929,,,,,,,
30329732,0.15690348,-0.10096955,9.346957,,,,,,,
30329733,,,,0.3881271,0.07700357,0.17999958,,,,
30329734,0.10899392,-0.13690174,9.471521,,,,,,,
30329737,0.08024815,-0.18481132,9.574528,,,,,,,
30329738,,,,0.32421127,0.016283551,0.19331537,19.715656,-1.1323538,-46.894096,
30329739,0.09222555,-0.19199774,9.63681,,,,,,,
30329742,0.13534415,-0.29021236,9.71107,,,,,,,
30329743,,,,0.25496915,-0.07426385,0.20290273,,,,
30329744,0.21199948,-0.3524948,9.782935,,,,,,,
30329747,0.17606732,-0.34051743,9.845217,,,,,,,
30329748,,,,0.18199861,-0.17652914,0.2023701,18.792511,-2.302472,-45.355858,
30329749,0.16888088,-0.3453084,9.945827,,,,,,,
30329752,0.19762662,-0.32135358,10.000923,,,,,,,
30329753,,,,0.12021332,-0.2713376,0.20183748,,,,
30329754,0.25272262,-0.32374904,10.0656,,,,,,,
30329757,0.31500506,-0.29739884,10.115906,,,,,,,
30329758,,,,0.06588488,-0.32779655,0.20663117,19.714493,-1.4063244,-45.498055,
30329759,0.3988468,-0.29979423,10.214121,,,,,,,
30329762,0.47550213,-0.25907114,10.309939,,,,,,,
30329763,,,,0.024339607,-0.33578604,0.21249011,,,,
30329764,0.53538907,-0.27104858,10.396177,,,,,,,
30329766,,,,,,,,,,146.0
30329767,0.5976715,-0.28542146,10.494391,,,,,,,
30329768,,,,-6.940858E-4,-0.29530603,0.2188817,16.638672,-1.6096926,-46.191277,
30329769,0.5809032,-0.33333102,10.6788435,,,,,,,
30329772,0.6192308,-0.34051743,10.892041,,,,,,,
30329773,,,,-0.010281456,-0.22499864,0.224208,,,,
30329774,0.57132125,-0.32374904,11.126798,,,,,,,
30329777,0.48987502,-0.29260787,11.3855095,,,,,,,
30329778,,,,-0.0060204025,-0.14137545,0.23432802,18.638165,-1.429616,-45.988853,
30329779,0.43956995,-0.3141671,11.692131,,,,,,,
30329782,0.2431407,-0.31177166,11.931679,,,,,,,
30329783,,,,0.027002765,-0.057752267,0.2556333,,,,
30329784,0.14013514,-0.28781685,12.16404,,,,,,,
30329787,0.06108433,-0.25907114,12.382029,,,,,,,
30329788,,,,0.091451205,0.02160987,0.2923849,18.023792,-2.899147,-45.05854,
30329789,-0.06348054,-0.29021236,12.614389,,,,,,,
30329792,-0.12576298,-0.25907114,12.808424,,,,,,,
30329793,,,,0.17986809,0.082329884,0.34032175,,,,
30329794,-0.1688816,-0.28063044,12.971315,,,,,,,
30329797,-0.2575143,-0.26625755,13.134209,,,,,,,
30329798,,,,0.26828495,0.115353055,0.38985652,18.484547,-2.5926924,-44.741096,
30329799,-0.3245877,-0.21595255,13.268355,,,,,,,
30329802,-0.35093796,-0.19199774,13.268355,,,,,,,
30329803,,,,0.36309338,0.12973413,0.42980388,,,,
30329805,-0.4132204,-0.079410255,13.294705,,,,,,,
30329807,-0.41801137,0.018804371,13.316265,,,,,,,
30329808,,,,0.4632282,0.13239728,0.47294706,18.943748,-1.397151,-44.12446,
30329810,-0.3701018,0.10264611,13.309079,,,,,,,
30329812,-0.32937866,0.21044263,13.208468,,,,,,,
30329813,,,,0.561765,0.12440779,0.5112965,,,,
30329815,-0.25272334,0.3158437,13.105463,,,,,,,
30329816,,,,,,,,,,130.0
30329817,-0.09462176,0.43082666,12.868311,,,,,,,
30329818,,,,0.6469861,0.099906735,0.53206915,20.023685,-3.0138912,-44.852684,
30329820,0.013174772,0.50987744,12.614389,,,,,,,
30329822,0.2000221,0.56976444,12.379633,,,,,,,
30329823,,,,0.6997167,0.059426717,0.53206915,,,,
30329825,0.38447392,0.65839714,12.11134,,,,,,,
30329827,0.6144399,0.65839714,11.816696,,,,,,,
30329828,,,,0.70930403,-0.0114132995,0.5096986,18.023842,-3.189333,-44.745644,
30329830,0.8132646,0.6152785,11.529238,,,,,,,
30329832,1.0216713,0.56976444,11.083679,,,,,,,
30329833,,,,0.66243243,-0.11261334,0.46229443,,,,
30329835,1.2468462,0.5434141,10.587815,,,,,,,
30329837,1.4025522,0.47634077,10.156629,,,,,,,
30329838,,,,0.5569714,-0.20848705,0.3914544,20.946968,-2.5692368,-45.608696,
30329840,1.5606539,0.40926737,9.747002,,,,,,,
30329842,1.7091734,0.3278211,9.449963,,,,,,,
30329843,,,,0.4062366,-0.2745334,0.311027,,,,
30329845,1.7810378,0.24637482,9.203229,,,,,,,
30329847,1.8648798,0.13618281,9.095432,,,,,,,
30329848,,,,0.23685968,-0.30223024,0.22953433,19.254242,-3.4562092,-44.092888,
30329850,1.9583032,-0.045873553,9.064291,,,,,,,
30329852,1.9990265,-0.21355706,9.0068,,,,,,,
30329853,,,,0.06535225,-0.3118176,0.15390062,,,,
30329855,2.0780773,-0.42435917,9.004404,,,,,,,
30329857,2.1307778,-0.6854663,9.073873,,,,,,,
30329858,,,,-0.099763595,-0.32033974,0.08945217,19.87077,-4.1862326,-44.22387,
30329860,2.1499414,-0.9034549,9.155319,,,,,,,
30329862,2.1547325,-1.1046749,9.188856,,,,,,,
30329863,,,,-0.2574226,-0.32140496,0.023938468,,,,
30329865,2.157128,-1.2819405,9.265511,,,,,,,
30329866,,,,,,,,,,118.0
30329867,2.106823,-1.4855561,9.4044485,,,,,,,
30329868,,,,-0.40655947,-0.30968708,-0.051162608,19.257133,-4.073642,-45.942833,
30329870,2.0637045,-1.5933526,9.598483,,,,,,,
30329872,1.9942355,-1.6364713,9.909895,,,,,,,
30329873,,,,-0.5301301,-0.2734681,-0.13638368,,,,
30329875,1.840925,-1.6484486,10.199748,,,,,,,
30329877,1.6349138,-1.6819854,10.5470915,,,,,,,
30329878,,,,-0.612688,-0.1994323,-0.2173437,19.098618,-2.2769556,-43.95565,
30329880,1.4001569,-1.6891718,10.880064,,,,,,,
30329882,1.1318632,-1.670008,11.23699,,,,,,,
30329883,,,,-0.6451785,-0.09983017,-0.27966163,,,,
30329885,0.8539877,-1.6532396,11.519656,,,,,,,
30329887,0.5473665,-1.610121,11.867001,,,,,,,
30329888,,,,-0.6345259,0.004565653,-0.3158806,21.407131,-3.7021294,-42.953148,
30329890,0.27667743,-1.6340758,12.21195,,,,,,,
30329892,0.0011973679,-1.6197029,12.473057,,,,,,,
30329893,,,,-0.59298056,0.09724357,-0.33079425,,,,
30329895,-0.34135604,-1.5837708,12.753327,,,,,,,
30329897,-0.7150507,-1.5622115,12.978503,,,,,,,
30329898,,,,-0.5232059,0.15476781,-0.31854373,19.865784,-0.79119205,-43.953773,
30329900,-1.0791634,-1.5214883,13.160559,,,,,,,
30329902,-1.4289032,-1.4017143,13.335429,,,,,,,
30329903,,,,-0.4321258,0.18672572,-0.27327,,,,
30329905,-1.6588693,-1.3082907,13.471971,,,,,,,
30329907,-1.8409256,-1.2627766,13.543836,,,,,,,
30329908,,,,-0.3245342,0.197911,-0.19497319,18.946236,-1.7197657,-45.977837,
30329910,-2.0876598,-1.2124716,13.570186,,,,,,,
30329913,-2.2122247,-1.1980988,13.620491,-0.20788783,0.19364993,-0.09377315,,,,
30329915,-2.28888,-1.1813303,13.606118,,,,,,,
30329916,,,,,,,,,,92.0
30329918,-2.3367898,-1.1789348,13.452807,-0.08431727,0.18086678,0.015948992,19.407719,-1.5676699,-46.122887,
30329920,-2.3823037,-1.2100761,13.263565,,,,,,,
30329923,-2.3846993,-1.2100761,13.055158,0.032329082,0.1579636,0.12939955,,,,
30329925,-2.3415804,-1.2627766,12.868311,,,,,,,
30329928,-2.303253,-1.3058952,12.683859,0.12660491,0.12866884,0.24231748,21.099072,-1.6754999,-45.150978,
30329930,-2.2170157,-1.3370365,12.434729,,,,,,,
30329933,-2.0708914,-1.3490138,12.21195,0.19957545,0.088188834,0.34085438,,,,
30329935,-1.9606996,-1.3058952,12.0394745,,,,,,,
30329938,-1.8624849,-1.2627766,11.819091,,,,22.17102,0.43236542,-43.291557,
30329939,,,,0.26029548,0.035458293,0.42128175,,,,
30329940,-1.7211516,-1.22924,11.615476,,,,,,,
30329943,-1.5007676,-1.2052851,11.366345,,,,,,,
30329944,,,,0.29651445,-0.022598566,0.48626286,,,,
30329945,-1.2995476,-1.1286298,11.225013,,,,,,,
30329948,-1.1534233,-1.1046749,10.978278,,,,20.791458,-1.9703541,-44.84568,
30329949,,,,0.3162218,-0.08971017,0.5363302,,,,
30329950,-0.95459855,-1.1286298,10.695612,,,,,,,
30329953,-0.7509829,-1.1909122,10.422527,,,,,,,
30329954,,,,0.31196076,-0.16055019,0.5645597,,,,
30329955,-0.49706215,-1.2028896,10.230888,,,,,,,
30329958,-0.21679117,-1.22924,10.06081,,,,21.101753,-3.0137634,-45.909233,
30329959,,,,0.28905758,-0.22712916,0.5709513,,,,
30329960,-0.053898618,-1.2579856,9.926662,,,,,,,
30329963,0.16169444,-1.2891269,9.706279,,,,,,,
30329964,,,,0.24804495,-0.29051232,0.56083125,,,,
30329965,0.33656436,-1.3274544,9.529014,,,,,,,
30329966,,,,,,,,,,46.0
30329968,0.49945688,-1.3418274,9.469127,,,,20.025791,-4.0550194,-45.45965,
30329969,,,,0.20223862,-0.34111235,0.53686285,,,,
30329970,0.6695359,-1.3154771,9.30863,,,,,,,
30329973,0.8420104,-1.32985,9.188856,,,,,,,
30329974,,,,0.14684492,-0.37999448,0.4937197,,,,
30329975,1.0384396,-1.3178726,9.119387,,,,,,,
30329978,1.1462362,-1.3226635,9.023568,,,,20.025791,-4.0550194,-45.45965,
30329979,,,,0.087722786,-0.40822396,0.4404565,,,,
30329980,1.2037276,-1.2963134,8.978054,,,,,,,
30329983,1.2564281,-1.2531947,8.918167,,,,,,,
30329984,,,,0.025937501,-0.42526817,0.37920386,,,,
30329985,1.325897,-1.1909122,8.791205,,,,,,,
30329988,1.3139197,-1.114257,8.779229,,,,19.715488,-3.011612,-44.396095,
30329989,,,,-0.03851094,-0.42526817,0.31848386,,,,
30329990,1.2564281,-1.0184379,8.70976,,,,,,,
30329993,1.2372643,-0.9849011,8.712155,,,,,,,
30329994,,,,-0.10029623,-0.40023446,0.26095963,,,,
30329995,1.2037276,-0.9585508,8.724133,,,,,,,
30329998,1.1725863,-0.92980504,8.743297,,,,20.02388,-4.02954,-43.757576,
30329999,,,,-0.16154887,-0.36135235,0.20822906,,,,
30330000,1.1582135,-0.93220055,8.712155,,,,,,,
30330003,1.0791627,-0.8507544,8.690597,,,,,,,
30330004,,,,-0.21268152,-0.3064913,0.15816168,,,,
30330005,1.0096939,-0.8315904,8.65706,,,,,,,
30330008,0.9809481,-0.8723136,8.551659,,,,19.257206,-5.377159,-44.380104,
30330009,,,,-0.26807523,-0.23192284,0.11235534,,,,
30330010,0.96657526,-0.89626837,8.434279,,,,,,,
30330013,0.9522023,-0.93220055,8.441466,,,,,,,
30330014,,,,-0.32666472,-0.13445124,0.07081006,,,,
30330015,0.8635696,-0.9872966,8.379184,,,,,,,
30330016,,,,,,,,,,20.0
30330018,0.7988918,-1.0304152,8.395952,,,,18.944214,-1.1139145,-44.901543,
30330019,,,,-0.39430895,-0.03218594,0.034058474,,,,
30330020,0.770146,-1.0615565,8.391161,,,,,,,
30330023,0.7006771,-1.1022795,8.369602,,,,,,,
30330024,,,,-0.45609424,0.072742514,0.008492148,,,,
30330026,0.59288055,-1.1477937,8.410325,,,,,,,
30330028,0.49466592,-1.1597711,8.498958,,,,19.25652,-4.499655,-44.85456,
30330029,,,,-0.5093574,0.17021413,-0.00588891,,,,
30330031,0.3940559,-1.2244489,8.647478,,,,,,,
30330033,0.2862593,-1.2268444,8.860675,,,,,,,
30330034,,,,-0.5471743,0.24158679,-0.0069541736,,,,
30330036,0.22397688,-1.2507992,9.071477,,,,,,,
30330038,0.19283566,-1.3729686,9.263116,,,,20.023823,-3.739355,-44.070457,
30330039,,,,-0.56368583,0.26608786,0.0036984617,,,,
30330041,0.14971703,-1.4136918,9.387681,,,,,,,
30330043,0.09462103,-1.4831606,9.5362,,,,,,,
30330044,,,,-0.56208795,0.24052152,0.02127531,,,,
30330046,0.11378488,-1.5095109,9.612856,,,,,,,
30330048,0.13534415,-1.5334657,9.73742,,,,19.406887,-3.5827532,-42.84951,
30330049,,,,-0.5540985,0.17394257,0.0345911,,,,
30330051,0.17367181,-1.5166973,9.861985,,,,,,,
30330053,0.16408992,-1.5358613,9.976968,,,,,,,
30330054,,,,-0.5327932,0.088188834,0.042580582,,,,
30330056,0.20481306,-1.5143019,10.0656,,,,,,,
30330058,0.2814684,-1.4711832,10.10872,,,,19.2552,-3.0348291,-45.490623,
30330059,,,,-0.49817216,-0.009282772,0.03938479,,,,
30330061,0.34854174,-1.440042,10.185375,,,,,,,
30330063,0.4659202,-1.4112962,10.321917,,,,,,,
30330064,,,,-0.44757214,-0.09237333,0.02180794,,,,
30330066,0.6024625,-1.3777596,10.45846,,,,,,,
30330067,,,,,,,,,,17.0
30330068,0.68869966,-1.339432,10.583024,,,,20.176277,-2.8502483,-43.922203,
30330069,,,,-0.37247106,-0.15096281,-0.0026931195,,,,
30330071,0.8036827,-1.3011042,10.616561,,,,,,,
30330073,0.83961487,-1.2987088,10.623748,,,,,,,
30330074,,,,-0.2829889,-0.1775944,-0.032520495,,,,
30330076,0.820451,-1.2651721,10.604584,,,,,,,
30330078,0.8108691,-1.22924,10.539906,,,,19.871529,-3.6174421,-45.623314,
30330079,,,,-0.17859307,-0.16960493,-0.06501104,,,,
30330081,0.7581686,-1.1765393,10.556674,,,,,,,
30330083,0.7006771,-1.1573756,10.566256,,,,,,,
30330084,,,,-0.061946742,-0.13178807,-0.09270789,,,,
30330086,0.65995395,-1.174144,10.432109,,,,,,,
30330088,0.5761122,-1.0950931,10.417736,,,,20.945404,-2.5483904,-44.216103,
30330089,,,,0.058428038,-0.08331859,-0.11028474,,,,
30330091,0.44196546,-0.9968785,10.41055,,,,,,,
30330093,0.3988468,-0.9920876,10.228494,,,,,,,
30330094,,,,0.17294389,-0.0348491,-0.11827421,,,,
30330096,0.33177346,-0.9585508,10.082369,,,,,,,
30330098,0.22397688,-0.9513644,9.964991,,,,18.637753,-2.0030384,-44.898872,
30330099,,,,0.282666,0.0077614435,-0.11827421,,,,
30330101,0.17606732,-0.8986639,9.708674,,,,,,,
30330103,0.1880447,-0.83638144,9.469127,,,,,,,
30330104,,,,0.37161553,0.04717619,-0.10975211,,,,
30330106,0.17367181,-0.8339859,9.140945,,,,,,,
30330108,0.18085825,-0.80284476,8.891817,,,,20.484348,-3.140398,-43.911186,
30330109,,,,0.43446606,0.078601465,-0.097501576,,,,
30330111,0.15690348,-0.76212156,8.556449,,,,,,,
30330113,0.19762662,-0.75733066,8.273783,,,,,,,
30330114,,,,0.4632282,0.11588568,-0.09111,,,,
30330116,0.2503271,-0.71900296,8.039026,,,,,,,
30330118,0.2215814,-0.71421206,7.85697,,,,21.561966,-2.5552664,-45.28405,
30330119,,,,0.4632282,0.15316992,-0.083653145,,,,
30330121,0.22876784,-0.7381668,7.603049,,,,,,,
30330123,0.23595428,-0.76451707,7.483275,,,,,,,
30330124,,,,0.43606395,0.18566045,-0.075131044,,,,
30330126,0.27428192,-0.75253975,7.3227777,,,,,,,
30330128,0.2647,-0.79805374,7.1694674,,,,19.100296,-2.878172,-44.722466,
30330129,,,,0.3817355,0.19737835,-0.06181524,,,,
30330131,0.25751355,-0.8339859,7.061671,,,,,,,
30330134,0.19283566,-0.8172176,6.951479,0.31036285,0.18832362,-0.04956471,,,,
30330136,0.16408992,-0.80763566,6.85566,,,,,,,
30330138,,,,,,,20.332245,-4.034137,-44.368904,
30330139,0.12097132,-0.829195,6.85566,0.23046811,0.17340992,-0.035716288,,,,
30330141,0.09462103,-0.75493515,6.814936,,,,,,,
30330144,0.029943138,-0.6926527,6.692767,0.15057334,0.15423518,-0.016541544,,,,
30330146,-0.034734815,-0.62318385,6.671208,,,,,,,
30330148,,,,,,,19.40715,-3.1521082,-43.62832,
30330149,-0.06348054,-0.58006525,6.6736035,0.06748278,0.13985412,0.005296357,,,,
30330151,-0.09222628,-0.4794552,6.692767,,,,,,,
30330154,-0.16409063,-0.40759084,6.800564,,,,,,,
30330155,,,,-0.0076182983,0.13239728,0.024471099,,,,
30330156,-0.21679117,-0.37644956,6.965852,,,,,,,
30330158,,,,,,,21.253944,-2.5553026,-44.98217,
30330159,-0.25272334,-0.28302595,7.0640664,,,,,,,
30330160,,,,-0.0763278,0.117483586,0.04417848,,,,
30330161,-0.30063292,-0.20637062,7.303614,,,,,,,
30330164,-0.3701018,-0.15606555,7.5096254,,,,,,,
30330165,,,,-0.12639517,0.08392778,0.06441848,,,,
30330166,-0.37489277,-0.11294696,7.677309,,,,,,,
30330168,,,,,,,21.25319,-2.2558527,-44.676125,
30330169,-0.40363848,-0.03389615,7.797083,,,,,,,
30330170,,,,-0.15782045,0.03172987,0.08465848,,,,
30330171,-0.42519778,0.01640886,7.9240427,,,,,,,
30330174,-0.45633903,0.047550112,8.08454,,,,,,,
30330175,,,,-0.18445203,-0.027392253,0.100637436,,,,
30330176,-0.43957067,0.081086814,8.161196,,,,,,,
30330178,,,,,,,20.791733,-3.4212818,-43.281227,
30330179,-0.45394355,0.10743706,8.168382,,,,,,,
30330180,,,,-0.19084361,-0.07852491,0.11661639,,,,
30330181,-0.39645207,0.10264611,8.20671,,,,,,,
30330184,-0.40124303,0.13378733,8.245038,,,,,,,
30330185,,,,-0.19031098,-0.11261334,0.13153009,,,,
30330186,-0.36291534,0.16732404,8.245038,,,,,,,
30330188,,,,,,,19.870884,-3.898363,-44.69149,
30330189,-0.31500578,0.17690594,8.20671,,,,,,,
30330190,,,,-0.18338676,-0.11953755,0.14697641,,,,
30330191,-0.2814691,0.20565169,8.18515,,,,,,,
30330194,-0.30063292,0.1816969,8.194733,,,,,,,
30330195,,,,-0.17326677,-0.09663438,0.16402063,,,,
30330196,-0.27667814,0.19846526,8.20671,,,,,,,
30330198,,,,,,,20.331688,-4.7503347,-42.96775,
30330199,-0.25990978,0.1936743,8.2881565,,,,,,,
30330200,,,,-0.1572878,-0.05615437,0.17946695,,,,
30330201,-0.24793239,0.19127882,8.371997,,,,,,,
30330204,-0.21200022,0.14576472,8.458235,,,,,,,
30330205,,,,-0.13811307,-0.012478563,0.19917431,,,,
30330206,-0.20481378,0.093064204,8.594777,,,,,,,
30330208,,,,,,,19.714794,-3.002346,-43.77717,
30330209,-0.14971778,0.04036367,8.731319,,,,,,,
30330210,,,,-0.11627518,0.012022498,0.2204796,,,,
30330211,-0.07785343,0.023595303,8.772043,,,,,,,
30330214,-0.015570968,-0.053059995,8.83193,,,,,,,
30330215,,,,-0.08857833,0.017881447,0.23539327,,,,
30330216,0.022756696,-0.0985741,8.918167,,,,,,,
30330218,,,,,,,20.177338,-3.8774805,-43.60076,
30330219,0.09222555,-0.07461932,8.891817,,,,,,,
30330220,,,,-0.059283577,0.018946711,0.24764381,,,,
30330221,0.2000221,-0.15606555,8.934935,,,,,,,
30330224,0.31979603,-0.19199774,8.930144,,,,,,,
30330225,,,,-0.025727777,0.022675134,0.2508396,,,,
30330226,0.40603328,-0.20637062,9.064291,,,,,,,
30330228,,,,,,,20.023285,-2.7190723,-44.856117,
30330229,0.5114343,-0.25428018,9.2128105,,,,,,,
30330230,,,,0.020611184,0.03812145,0.24870908,,,,
30330231,0.68390876,-0.27344403,9.26072,,,,,,,
30330234,0.7222364,-0.29739884,9.385284,,,,,,,
30330235,,,,0.0696133,0.0541004,0.23539327,,,,
30330236,0.78930986,-0.28302595,9.485895,,,,,,,
30330238,,,,,,,20.024364,-4.759637,-43.28483,
30330239,0.83721936,-0.26625755,9.564946,,,,,,,
30330240,,,,0.13193123,0.062089875,0.21035959,,,,
30330241,0.9018972,-0.21595255,9.703884,,,,,,,
30330244,0.9474114,-0.17283392,9.756584,,,,,,,
30330245,,,,0.19957545,0.04717619,0.17946695,,,,
30330247,0.9929255,-0.14648366,9.735024,,,,,,,
30330248,,,,,,,18.179142,-4.5090485,-44.41697,
30330249,0.9522023,-0.081805766,9.708674,,,,,,,
30330250,,,,0.25923023,8.372305E-4,0.13685639,,,,
30330252,0.985739,-0.017127812,9.73263,,,,,,,
30330254,1.0288576,-0.007545918,9.677534,,,,,,,
30330255,,,,0.29864496,-0.075861745,0.085191116,,,,
30330257,0.9881345,0.07150489,9.564946,,,,,,,
30330258,,,,,,,18.947372,-4.050515,-44.093636,
30330259,0.935434,0.13857828,9.552969,,,,,,,
30330260,,,,0.31995022,-0.16374597,0.02713426,,,,
30330262,0.9689708,0.18409237,9.46194,,,,,,,
30330264,0.9569932,0.17211498,9.406844,,,,,,,
30330265,,,,0.32900497,-0.2479018,-0.032520495,,,,
30330267,0.9066882,0.13618281,9.306233,,,,,,,16.0
30330268,,,,,,,18.023632,-3.9101648,-43.653954,
30330269,0.92345667,0.15295115,9.193646,,,,,,,
30330270,,,,0.3274071,-0.31820917,-0.08471841,,,,
30330272,0.9737617,0.030781746,9.1074095,,,,,,,
30330274,0.9330385,-0.050664514,9.0068,,,,,,,
30330275,,,,0.30663443,-0.36508077,-0.13531843,,,,
30330277,0.885129,-0.15846106,8.767252,,,,,,,
30330278,,,,,,,18.79311,-3.612938,-44.257317,
30330279,0.8539877,-0.29500332,8.647478,,,,,,,
30330280,,,,0.26721966,-0.38425553,-0.1800595,,,,
30330282,0.82284653,-0.34291288,8.50854,,,,,,,
30330284,0.71744543,-0.498619,8.424698,,,,,,,
30330285,,,,0.21022812,-0.3634829,-0.22000687,,,,
30330287,0.7294228,-0.62557936,8.410325,,,,,,,
30330288,,,,,,,17.565533,-5.40979,-44.886086,
30330289,0.71984094,-0.71421206,8.388766,,,,,,,
30330290,,,,0.13406175,-0.30702394,-0.2503669,,,,
30330292,0.6575585,-0.829195,8.415116,,,,,,,
30330294,0.56892574,-0.84356785,8.510936,,,,,,,
30330295,,,,0.038720664,-0.23139022,-0.27007425,,,,
30330297,0.45873374,-0.93220055,8.575613,,,,,,,
30330298,,,,,,,17.10316,-4.536972,-45.21723,
30330299,0.3605191,-0.92980504,8.63071,,,,,,,
30330300,,,,-0.05662042,-0.13977754,-0.27327,,,,
30330302,0.23595428,-0.9968785,8.872653,,,,,,,
30330304,0.15690348,-1.0208333,9.004404,,,,,,,
30330305,,,,-0.1487657,-0.033251204,-0.26581317,,,,
30330307,0.099411994,-1.0016695,9.251138,,,,,,,
30330308,,,,,,,18.178192,-4.062188,-44.112633,
30330309,0.044315994,-0.98011005,9.526618,,,,,,,
30330310,,,,-0.23292153,0.07540567,-0.2503669,,,,
30330312,0.025152147,-0.9609463,9.804494,,,,,,,
30330314,-0.025152892,-0.93459606,10.144651,,,,,,,
30330315,,,,-0.30376157,0.16169202,-0.23279002,,,,
30330317,-0.10659915,-0.8627317,10.482414,,,,,,,
30330318,,,,,,,17.408234,-3.6293163,-43.982033,
30330319,-0.180859,-0.7213985,10.762685,,,,,,,
30330320,,,,-0.34743738,0.21442257,-0.21041949,,,,
30330322,-0.29823744,-0.6040201,11.174707,,,,,,,
30330324,-0.3916611,-0.6136019,11.517261,,,,,,,
30330325,,,,-0.3612858,0.2469131,-0.1768637,,,,
30330327,-0.46112996,-0.56808794,11.816696,,,,,,,
30330328,,,,,,,16.947598,-3.6479015,-44.767097,
30330329,-0.46112996,-0.5417377,12.1856,,,,,,,
30330330,,,,-0.33678472,0.25863102,-0.13425316,,,,
30330332,-0.47789833,-0.5489241,12.504198,,,,,,,
30330334,-0.4587345,-0.5513195,12.734164,,,,,,,
30330335,,,,-0.2760647,0.25383732,-0.08525105,,,,
30330337,-0.4132204,-0.61839294,12.880288,,,,,,,
30330338,,,,,,,17.56554,-4.5415497,-45.9795,
30330339,-0.4132204,-0.6399523,13.083904,,,,,,,
30330340,,,,-0.17912571,0.23892362,-0.035716288,,,,
30330342,-0.37968373,-0.6351613,13.210864,,,,,,,
30330344,-0.3701018,-0.6950482,13.251587,,,,,,,
30330345,,,,-0.055022527,0.23040152,0.008492148,,,,
30330347,-0.27428266,-0.6902572,13.270751,,,,,,,
30330348,,,,,,,18.176243,-2.0100422,-44.91027,
30330349,-0.22397761,-0.70463014,13.304288,,,,,,,
30330350,,,,0.08505962,0.22454257,0.054298483,,,,
30330352,-0.14253134,-0.76212156,13.2611685,,,,,,,
30330355,-0.087435335,-0.7357713,13.230028,0.23472916,0.20856363,0.09424585,,,,
30330357,0.0035928488,-0.75014424,13.174932,,,,,,,
30330358,,,,,,,18.946503,-4.0389338,-43.319984,
30330360,0.11857581,-0.8100312,13.088695,0.37001762,0.16808361,0.12460587,,,,
30330362,0.27907288,-0.8339859,12.959339,,,,,,,
30330365,0.43717444,-0.92980504,12.741351,0.4861313,0.101504624,0.13792168,,,,
30330367,0.56892574,-0.9465735,12.588039,,,,,,,
30330368,,,,,,,19.101654,-3.6198502,-45.023384,
30330370,0.65995395,-0.9920876,12.401193,0.58040714,0.020544607,0.13046482,,,,
30330372,0.8036827,-1.0807202,12.144876,,,,,,,
30330375,0.8659651,-1.1406072,11.845442,,,,,,,
30330376,,,,0.63580084,-0.068404905,0.11608376,,,,
30330377,0.9426204,-1.2244489,11.541216,,,,,,,
30330378,,,,,,,17.869247,-3.760458,-43.35,
30330380,0.96178424,-1.2244489,11.272922,,,,,,,
30330381,,,,0.6565735,-0.14457123,0.094778486,,,,
30330382,1.0192758,-1.3418274,10.973487,,,,,,,
30330385,1.0264621,-1.3873415,10.633328,,,,,,,
30330386,,,,0.64379036,-0.1861165,0.07560374,,,,
30330387,1.0384396,-1.3633868,10.41055,,,,,,,
30330388,,,,,,,18.181221,-5.4050827,-45.180367,
30330390,1.0863491,-1.3442229,10.154234,,,,,,,
30330391,,,,0.59425557,-0.1861165,0.06282058,,,,
30330392,1.0767672,-1.2963134,9.991341,,,,,,,
30330395,1.0576034,-1.2268444,9.773353,,,,,,,
30330396,,,,0.5186219,-0.14190806,0.04417848,,,,
30330397,1.0120893,-1.0759294,9.6224375,,,,,,,
30330398,,,,,,,17.71666,-3.924099,-44.28048,
30330400,0.9258522,-0.9154322,9.533805,,,,,,,
30330401,,,,0.42274815,-0.05562174,0.031395316,,,,
30330402,0.83242834,-0.7669126,9.505059,,,,,,,
30330405,0.72463185,-0.67109346,9.502664,,,,,,,
30330406,,,,0.31515652,0.058894087,0.026601626,,,,
30330407,0.5761122,-0.57287884,9.634415,,,,,,,
30330408,,,,,,,18.02452,-4.9350786,-43.177773,
30330410,0.4874795,-0.43154564,9.7278385,,,,,,,
30330411,,,,0.20223862,0.18193203,0.03352584,,,,
30330412,0.4132197,-0.39561346,9.979363,,,,,,,
30330415,0.29584128,-0.36207673,10.173398,,,,,,,
30330416,,,,0.105832264,0.28792575,0.049504794,,,,
30330417,0.2718864,-0.3309355,10.427318,,,,,,,
30330418,,,,,,,16.334358,-4.69837,-45.38926,
30330420,0.2862593,-0.3524948,10.671657,,,,,,,
30330421,,,,0.03179645,0.35876578,0.06708164,,,,
30330422,0.324587,-0.3309355,10.872877,,,,,,,
30330425,0.40842873,-0.3740541,11.016605,,,,,,,
30330426,,,,-0.026260411,0.37527737,0.07720164,,,,
30330427,0.49706143,-0.43873206,11.086075,,,,,,,
30330428,,,,,,,17.408634,-3.9241352,-43.978615,
30330430,0.66714036,-0.53215563,11.066911,,,,,,,
30330431,,,,-0.07206675,0.34172156,0.06921216,,,,
30330432,0.820451,-0.62557936,11.050143,,,,,,,
30330435,0.95459783,-0.74535334,11.059725,,,,,,,
30330436,,,,-0.11361202,0.28153417,0.04045005,,,,
30330437,1.0719763,-0.88668644,11.035769,,,,,,,
30330438,,,,,,,18.950539,-6.1188736,-44.379143,
30330440,1.1989366,-0.9417825,10.889646,,,,,,,
30330441,,,,-0.15675518,0.20749836,-0.0032257512,,,,
30330442,1.2612191,-1.0280197,10.803408,,,,,,,
30330445,1.2564281,-1.0974886,10.698007,,,,,,,
30330446,,,,-0.2057573,0.13825622,-0.057554185,,,,
30330447,1.2827784,-1.1238389,10.647702,,,,,,,
30330448,,,,,,,16.949547,-5.7000484,-43.969475,
30330450,1.3091286,-1.150189,10.561465,,,,,,,
30330451,,,,-0.25848785,0.0860583,-0.10655632,,,,
30330452,1.3115242,-1.150189,10.542301,,,,,,,
30330455,1.2947557,-1.174144,10.530324,,,,,,,
30330456,,,,-0.31601208,0.05356777,-0.14703631,,,,
30330457,1.2684056,-1.2699631,10.630934,,,,,,,
30330458,,,,,,,15.871632,-4.6891594,-44.317513,
30330460,1.2875694,-1.3490138,10.729149,,,,,,,
30330461,,,,-0.3698079,0.04344777,-0.17899422,,,,
30330463,1.2875694,-1.3466183,10.853713,,,,,,,
30330465,1.2444508,-1.4112962,10.975883,,,,,,,
30330466,,,,-0.40762475,0.046110928,-0.20935424,,,,
30330468,1.2684056,-1.4903471,11.129193,,,,17.71828,-4.2351313,-45.36019,
30330470,1.2013321,-1.5646069,11.270527,,,,,,,
30330471,,,,-0.4267995,0.049839348,-0.23758371,,,,
30330473,1.1893548,-1.6005391,11.380719,,,,,,,
30330475,1.1270722,-1.6987537,11.493306,,,,,,,
30330476,,,,-0.42413634,0.05623093,-0.26315004,,,,
30330478,1.100722,-1.7466632,11.6561985,,,,17.104023,-5.416794,-44.897484,
30330480,0.99532104,-1.8065501,11.744831,,,,,,,
30330481,,,,-0.39750475,0.06741619,-0.28498793,,,,
30330483,0.95938873,-1.8281094,11.799927,,,,,,,
30330485,0.8971064,-1.8209232,11.895747,,,,,,,
30330486,,,,-0.34797,0.084460415,-0.2999016,,,,
30330488,0.885129,-1.8568553,11.902933,,,,16.794483,-3.804596,-45.23339,
30330490,0.8180555,-1.8376914,11.958029,,,,,,,
30330491,,,,-0.2797931,0.099906735,-0.31055427,,,,
30330493,0.7821233,-1.8592507,11.972402,,,,,,,
30330495,0.72702736,-1.8688327,11.88856,,,,,,,
30330496,,,,-0.20735519,0.11055937,-0.31854373,,,,
30330498,0.66234946,-1.890392,11.876583,,,,16.332539,-4.2399282,-44.311256,
30330500,0.59048504,-1.9215332,11.775972,,,,,,,
30330501,,,,-0.1370478,0.11428779,-0.32387006,,,,
30330503,0.5329936,-1.8879966,11.704108,,,,,,,
30330505,0.43717444,-1.8568553,11.605894,,,,,,,
30330506,,,,-0.07153411,0.1126899,-0.32014164,,,,
30330508,0.35093725,-1.8664373,11.445396,,,,16.793129,-3.0629177,-44.932472,
30330510,0.24074522,-1.8137368,11.330414,,,,,,,
30330511,,,,-0.01986883,0.10842884,-0.30416265,,,,
30330513,0.11618033,-1.7706181,11.256154,,,,,,,
30330515,0.017965704,-1.6963582,11.239386,,,,,,,
30330516,,,,0.03179645,0.09617831,-0.2780637,,,,
30330518,-0.10659915,-1.610121,11.227407,,,,15.565445,-4.279397,-46.18705,
30330520,-0.21200022,-1.5574205,11.213035,,,,,,,
30330521,,,,0.081863835,0.06475304,-0.23758371,,,,
30330523,-0.27667814,-1.5310702,11.196267,,,,,,,
30330525,-0.43717518,-1.4544148,11.0884695,,,,,,,
30330526,,,,0.13512702,0.0077614435,-0.17952687,,,,
30330528,-0.50664407,-1.4472284,10.882459,,,,16.641895,-3.968237,-46.163887,
30330530,-0.5258079,-1.3873415,10.714776,,,,,,,
30330531,,,,0.17773756,-0.048164897,-0.11827421,,,,
30330533,-0.4946667,-1.279545,10.5734415,,,,,,,
30330535,-0.42998877,-1.2460083,10.456064,,,,,,,
30330536,,,,0.20436914,-0.07905754,-0.05702156,,,,
30330538,-0.31261033,-1.164562,10.331499,,,,17.565945,-4.8363676,-45.976067,
30330540,-0.21439569,-1.0256243,10.192561,,,,,,,
30330541,,,,0.22780496,-0.08331859,-0.0074868053,,,,
30330543,-0.1473223,-0.9777148,10.012901,,,,,,,
30330545,-0.01796645,-0.92261875,9.938641,,,,,,,
30330546,,,,0.23739232,-0.05615437,0.02127531,,,,
30330548,0.07066625,-0.8603362,9.797307,,,,15.872961,-5.2857447,-44.774864,
30330550,0.16408992,-0.8148221,9.646392,,,,,,,
30330551,,,,0.23419654,-0.007152246,0.03352584,,,,
30330553,0.24793166,-0.80284476,9.507455,,,,,,,
30330555,0.30542314,-0.8315904,9.428404,,,,,,,
30330556,,,,0.22088075,0.050904613,0.037786894,,,,
30330558,0.4204061,-0.8220086,9.337376,,,,15.718975,-5.430855,-44.46749,
30330560,0.47310662,-0.8531499,9.241556,,,,,,,
30330561,,,,0.2001081,0.103635155,0.0345911,,,,
30330563,0.5186207,-0.87710464,9.126573,,,,,,,
30330566,0.58569413,-0.9058503,9.064291,0.16601968,0.14198464,0.028199522,,,,
30330568,0.70307255,-0.948969,9.03315,,,,14.17959,-3.7038221,-45.763893,
30330571,0.9066882,-0.9585508,8.970867,0.119680695,0.1446478,0.010090043,,,,
30330573,1.1150949,-1.0136468,8.992427,,,,,,,
30330576,1.2875694,-1.0687429,8.978054,0.06801541,0.09564568,-0.023998389,,,,
30330578,1.3977613,-1.0903022,8.800788,,,,15.412119,-5.1569195,-45.561638,
30330581,1.6492866,-1.0926976,8.640291,0.0014364414,0.004033021,-0.07726157,,,,
30330583,1.8481112,-1.1621665,8.482189,,,,,,,
30330586,1.9966309,-1.2436129,8.352834,-0.08005622,-0.09983017,-0.15236264,,,,
30330588,2.1786873,-1.2484037,8.168382,,,,15.255089,-2.9458027,-45.436394,
30330591,2.281693,-1.2915224,8.0174675,-0.17912571,-0.18238808,-0.24131213,,,,
30330593,2.4158397,-1.2915224,7.931229,,,,,,,
30330596,2.506868,-1.2603811,7.866552,,,,,,,
30330597,,,,-0.28245628,-0.21647651,-0.3377185,,,,
30330598,2.497286,-1.2579856,7.806665,,,,16.488567,-4.8457603,-45.538475,
30330601,2.4445856,-1.2675676,7.806665,,,,,,,
30330602,,,,-0.37886265,-0.20049757,-0.43412483,,,,
30330603,2.391885,-1.2412174,7.9240427,,,,,,,
30330606,2.281693,-1.219658,8.130054,,,,,,,
30330607,,,,-0.465149,-0.15362598,-0.5230743,,,,
30330608,2.1379642,-1.2124716,8.4007435,,,,16.64325,-4.709914,-46.464775,
30330611,1.9535122,-1.1573756,8.676224,,,,,,,
30330612,,,,-0.54025006,-0.10249334,-0.60083854,,,,
30330613,1.6995916,-1.0950931,9.018777,,,,,,,
30330616,1.3977613,-1.0399971,9.375703,,,,,,,
30330617,,,,-0.592448,-0.070002794,-0.6594281,,,,
30330618,1.0743717,-0.999274,9.78533,,,,15.87393,-3.9961233,-47.266,
30330621,0.7342138,-0.9417825,10.16142,,,,,,,
30330622,,,,-0.59564376,-0.050828055,-0.6940491,,,,
30330623,0.4132197,-0.92261875,10.465646,,,,,,,
30330626,0.039525032,-0.8531499,10.767476,,,,,,,
30330627,,,,-0.5530332,-0.04017542,-0.69298387,,,,
30330628,-0.28865552,-0.7669126,10.98786,,,,13.25848,-4.6115503,-46.395348,
30330631,-0.57132196,-0.7333758,11.265736,,,,,,,
30330632,,,,-0.48006266,-0.038044892,-0.6498407,,,,
30330633,-0.8324291,-0.6567205,11.493306,,,,,,,
30330636,-1.021672,-0.61599743,11.572357,,,,,,,
30330637,,,,-0.37939525,-0.04443647,-0.5768702,,,,
30330638,-1.2013328,-0.5513195,11.6825485,,,,15.562359,-2.6463156,-45.432228,
30330641,-1.3426661,-0.48185065,11.711295,,,,,,,
30330642,,,,-0.25795522,-0.05242595,-0.48365957,,,,
30330643,-1.4336942,-0.4099863,11.665781,,,,,,,
30330646,-1.5103496,-0.3500993,11.555589,,,,,,,
30330647,,,,-0.12959096,-0.042838577,-0.38725322,,,,
30330648,-1.567841,-0.32135358,11.435815,,,,15.562166,-1.6306667,-46.52732,
30330651,-1.6133552,-0.29260787,11.18908,,,,,,,
30330652,,,,-0.0076182983,-0.009815404,-0.29510793,,,,
30330653,-1.6444963,-0.2638621,10.966301,,,,,,,
30330656,-1.6732421,-0.20157966,10.729149,,,,,,,
30330657,,,,0.103169106,0.0439804,-0.19763634,,,,
30330658,-1.6468918,-0.14648366,10.417736,,,,13.7199135,-3.3010273,-47.946693,
30330661,-1.6037732,-0.15606555,10.10872,,,,,,,
30330662,,,,0.19797757,0.11588568,-0.10549106,,,,
30330663,-1.5702364,-0.12492433,9.8667755,,,,,,,
30330666,-1.46244,-0.12971532,9.615251,,,,,,,
30330667,,,,0.2640239,0.19737835,-0.018139442,,,,
30330668,-1.4001575,-0.15127462,9.33498,,,,13.717386,-3.701561,-45.156364,19.0
30330671,-1.3235023,-0.1752294,9.064291,,,,,,,
30330672,,,,0.30184072,0.2666205,0.066016376,,,,
30330673,-1.2444514,-0.20397511,8.848698,,,,,,,
30330676,-1.0743725,-0.21116155,8.60915,,,,,,,
30330677,,,,0.30876496,0.30337206,0.13738903,,,,
30330678,-0.9234573,-0.24948928,8.362416,,,,14.178986,-3.2615957,-45.76902,
30330681,-0.76296026,-0.27104858,8.146823,,,,,,,
30330682,,,,0.2895902,0.31295943,0.19704379,,,,
30330683,-0.6168361,-0.29979423,7.9935117,,,,,,,
30330686,-0.4275933,-0.3093762,7.8114552,,,,,,,
30330687,,,,0.24804495,0.299111,0.23539327,,,,
30330688,-0.24074596,-0.25428018,7.672518,,,,15.409821,-3.1001434,-46.049812,
30330691,-0.027548373,-0.2638621,7.552744,,,,,,,
30330692,,,,0.19105336,0.26821837,0.25510067,,,,
30330694,0.08264366,-0.19918418,7.495252,,,,,,,
30330696,0.19283566,-0.17043844,7.5192075,,,,,,,
30330697,,,,0.12873544,0.23253205,0.25350276,,,,
30330698,,,,,,,14.178986,-3.2615957,-45.76902,
30330699,0.3533327,-0.103365034,7.4521337,,,,,,,
30330701,0.51382977,-0.0985741,7.435365,,,,,,,
30330702,,,,0.073874354,0.18832362,0.23486066,,,,
30330704,0.6192308,-0.04347807,7.420993,,,,,,,
30330706,0.7437957,-0.021918774,7.497648,,,,,,,
30330707,,,,0.020611184,0.14198464,0.20876169,,,,
30330708,,,,,,,14.640238,-2.8169975,-46.072227,
30330709,0.87315154,0.01640886,7.5311847,,,,,,,
30330711,0.99532104,0.0595275,7.514416,,,,,,,
30330712,,,,-0.028390938,0.08659094,0.16987957,,,,
30330714,1.1222814,0.04275915,7.5000434,,,,,,,
30330716,1.160609,0.07629584,7.5000434,,,,,,,
30330717,,,,-0.08378464,0.031197242,0.118746914,,,,
30330718,,,,,,,14.640238,-2.8169975,-46.072227,22.0
30330719,1.2228913,0.10983254,7.4808793,,,,,,,
30330721,1.26601,0.1146235,7.447343,,,,,,,
30330722,,,,-0.13385202,-0.0028911917,0.06069006,,,,
30330724,1.26601,0.15295115,7.476089,,,,,,,
30330726,1.2779874,0.18888333,7.5455575,,,,,,,
30330727,,,,-0.1706036,-0.02100067,-0.0021604877,,,,
30330728,,,,,,,14.7921715,-1.9209433,-45.459785,
30330729,1.2133095,0.20086074,7.583885,,,,,,,
30330731,1.0935357,0.24158387,7.6533537,,,,,,,
30330732,,,,-0.20149624,-0.019935407,-0.058619447,,,,
30330734,0.97136617,0.282307,7.7324047,,,,,,,
30330736,0.82524204,0.33500752,7.842597,,,,,,,
30330737,,,,-0.21694256,-0.006619614,-0.104425795,,,,
30330738,,,,,,,14.793123,-2.3678036,-45.76409,
30330739,0.60725343,0.33979848,7.9959073,,,,,,,
30330741,0.4659202,0.39489448,8.163591,,,,,,,
30330742,,,,-0.22013836,0.010424603,-0.13052474,,,,
30330744,0.34614623,0.4619679,8.348043,,,,,,,
30330746,0.15690348,0.47394526,8.566031,,,,,,,
30330747,,,,-0.2025615,0.023207765,-0.13638368,,,,
30330748,,,,,,,13.25531,-2.543191,-46.109856,
30330749,0.015570253,0.50269103,8.882235,,,,,,,
30330751,-0.16169517,0.5002955,9.155319,,,,,,,
30330752,,,,-0.1572878,0.018414078,-0.12253528,,,,
30330754,-0.32219222,0.5002955,9.38289,,,,,,,
30330756,-0.41082495,0.4931091,9.548178,,,,,,,
30330757,,,,-0.09550254,-0.0039564553,-0.09004474,,,,
30330758,,,,,,,14.330946,-2.5106344,-45.000114,
30330759,-0.5832994,0.47394526,9.672743,,,,,,,
30330761,-0.6863049,0.5146684,9.806889,,,,,,,
30330762,,,,-0.011879352,-0.03218594,-0.043173134,,,,
30330764,-0.7294235,0.55299604,9.931454,,,,,,,
30330766,-0.77972865,0.5793463,10.010505,,,,,,,
30330767,,,,0.08559226,-0.05295858,0.012753202,,,,
30330768,,,,,,,15.1010895,-2.0775805,-46.37887,
30330769,-0.8324291,0.6224649,10.044042,,,,,,,26.0
30330771,-0.846802,0.727866,10.024878,,,,,,,
30330772,,,,0.18253125,-0.07373122,0.07240795,,,,
30330774,-0.846802,0.7542163,9.950618,,,,,,,
30330776,-0.8779433,0.80691683,9.9602,,,,,,,
30330777,,,,0.2656218,-0.09610175,0.12780167,,,,
30330778,,,,,,,14.177586,-1.3614922,-46.874413,
30330779,-0.8491975,0.9171088,9.890731,,,,,,,
30330781,-0.796497,0.98897314,9.830844,,,,,,,
30330782,,,,0.33220074,-0.11953755,0.17999958,,,,
30330784,-0.80607885,1.0704194,9.826053,,,,,,,
30330786,-0.7006779,1.113538,9.778144,,,,,,,
30330787,,,,0.3849313,-0.13977754,0.23379537,,,,
30330788,,,,,,,14.333208,-2.5407467,-47.011665,
30330789,-0.62402254,1.1566567,9.694302,,,,,,,
30330791,-0.52820337,1.1350974,9.6487875,,,,,,,
30330792,,,,0.42274815,-0.14883229,0.28972173,,,,
30330794,-0.3605199,1.1063516,9.564946,,,,,,,
30330797,-0.21439569,1.0871878,9.473918,0.45683658,-0.15043019,0.34511545,,,,
30330798,,,,,,,13.258287,-3.5959005,-47.49047,
30330799,0.0059883296,1.0464647,9.385284,,,,,,,
30330802,0.11378488,1.0153234,9.287071,0.48133767,-0.14670175,0.39092177,,,,
30330804,0.32698244,0.9769957,9.131364,,,,,,,
30330807,0.53538907,0.9290862,9.009194,0.48666397,-0.13817964,0.41915125,,,,
30330808,,,,,,,12.486013,-2.8427324,-45.661232,
30330809,0.69588614,0.90752685,8.798393,,,,,,,
30330812,0.8587786,0.89554954,8.637896,0.47334817,-0.13072282,0.43246704,,,,
30330814,1.0887446,0.9242953,8.527704,,,,,,,
30330817,1.2851739,0.90513146,8.383975,,,,,,,
30330818,,,,0.44352078,-0.12060281,0.42980388,13.411022,-3.289483,-46.871162,
30330819,1.4672302,0.89794505,8.192337,,,,,,,30.0
30330822,1.6349138,0.90752685,8.036631,,,,,,,
30330823,,,,0.3865292,-0.1035586,0.40956387,,,,
30330824,1.7906199,0.86440825,7.9048796,,,,,,,
30330827,1.9750717,0.90034044,7.8114552,,,,,,,
30330828,,,,0.31568918,-0.07905754,0.37174705,13.258032,-3.158307,-47.805077,
30330829,2.1331732,0.8859676,7.7156363,,,,,,,
30330832,2.2146194,0.91471326,7.7156363,,,,,,,
30330833,,,,0.2336639,-0.045501735,0.32327753,,,,
30330834,2.3391845,0.8524308,7.641377,,,,,,,
30330837,2.4110487,0.86680377,7.622213,,,,,,,
30330838,,,,0.14258386,-0.0028911917,0.26522067,12.796495,-3.020216,-47.972908,
30330839,2.5116587,0.8356626,7.598258,,,,,,,
30330842,2.5859187,0.8021258,7.6629357,,,,,,,
30330843,,,,0.04511224,0.058361456,0.2023701,,,,
30330844,2.6410148,0.7494253,7.787501,,,,,,,
30330847,2.6410148,0.6703745,8.034235,,,,,,,
30330848,,,,-0.03904357,0.1377236,0.13632378,13.716326,-2.6743307,-45.47782,
30330849,2.6410148,0.6488152,8.33367,,,,,,,
30330852,2.602687,0.5817418,8.599567,,,,,,,
30330853,,,,-0.10722044,0.21122678,0.069744796,,,,
30330854,2.492495,0.4931091,9.03315,,,,,,,
30330857,2.396676,0.41166285,9.459545,,,,,,,
30330858,,,,-0.1455699,0.25650048,0.0021005664,12.798372,-3.7688427,-48.738014,
30330859,2.2553427,0.3709397,9.902708,,,,,,,
30330862,2.0852637,0.29667988,10.3554535,,,,,,,
30330863,,,,-0.1455699,0.25596786,-0.05915208,,,,
30330864,1.9726763,0.2487703,10.789036,,,,,,,
30330867,1.7978063,0.22002456,11.186685,,,,,,,
30330868,,,,-0.10455728,0.20749836,-0.10975211,12.950615,-3.6005697,-47.49807,
30330869,1.6301228,0.14336924,11.555589,,,,,,,35.0
30330872,1.5127444,0.09545967,11.857419,,,,,,,
30330873,,,,-0.0294562,0.11854885,-0.14969948,,,,
30330874,1.3450608,0.07390037,12.187995,,,,,,,
30330877,1.1821682,0.112228036,12.518571,,,,,,,
30330878,,,,0.07174383,-0.014076458,-0.18325529,12.182049,-3.1862307,-48.60534,
30330879,0.9929255,0.16971952,12.741351,,,,,,,
30330882,0.765355,0.19127882,12.930593,,,,,,,
30330883,,,,0.19211863,-0.17120282,-0.2136153,,,,
30330884,0.5617394,0.27751604,13.059949,,,,,,,
30330887,0.40842873,0.34219396,13.107859,,,,,,,
30330888,,,,0.3279397,-0.32726392,-0.2338553,12.335051,-2.4491663,-48.764824,
30330889,0.22637233,0.4044764,13.081508,,,,,,,
30330892,0.08024815,0.44280407,12.990479,,,,,,,
30330893,,,,0.470685,-0.46201974,-0.23438793,,,,
30330894,-0.04910767,0.4619679,12.834774,,,,,,,
30330897,-0.113785595,0.44280407,12.626368,,,,,,,
30330898,,,,0.6033103,-0.56694824,-0.21681109,13.257162,-3.1467257,-47.03141,
30330899,-0.18325448,0.39489448,12.3628645,,,,,,,
30330902,-0.15929969,0.27512056,12.017916,,,,,,,
30330903,,,,0.7124998,-0.6340598,-0.19071212,,,,
30330904,-0.1473223,0.17451046,11.665781,,,,,,,
30330907,-0.19523187,0.112228036,11.375928,,,,,,,
30330908,,,,0.7854704,-0.6527019,-0.15609106,10.337023,-3.951291,-48.642372,
30330910,-0.22397761,0.05234106,11.098052,,,,,,,
30330912,-0.23835048,-0.029105216,10.724358,,,,,,,
30330913,,,,0.83660305,-0.6212766,-0.115611054,,,,
30330915,-0.26470074,-0.06264192,10.432109,,,,,,,
30330917,-0.30781937,-0.081805766,10.120697,,,,,,,
30330918,,,,0.85844094,-0.5562956,-0.06980473,10.950983,-3.0551805,-48.482704,
30330919,,,,,,,,,,44.0
30330920,-0.32937866,-0.03868714,9.88594,,,,,,,
30330922,-0.3245877,-0.0051504374,9.5960865,,,,,,,
30330923,,,,0.8483209,-0.46468294,-0.016008914,,,,
30330925,-0.32937866,0.004431486,9.387681,,,,,,,
30330927,-0.32937866,0.004431486,9.169692,,,,,,,
30330928,,,,0.8089062,-0.3570913,0.04311321,12.798216,-4.7798605,-47.333427,
30330930,-0.32219222,-0.026709706,9.002008,,,,,,,
30330932,-0.24314144,-3.594756E-4,8.819952,,,,,,,
30330933,,,,0.74072933,-0.2479018,0.104365855,,,,
