Date created: 2021-10-22-21-28-53-471000000
Timestamp,acc_x,acc_y,acc_z,gyro_x,gyro_y,gyro_z,mag_x,mag_y,mag_z,light
30327220,-0.013859923,-0.12800427,9.0074835,-0.03132041,0.025870921,0.06881269,5.1101427,-8.564444,-46.320114,
30327240,-0.08384211,-0.13061361,9.35055,-0.19590361,0.11801622,0.07653585,6.56938,-7.427433,-45.677917,
30327260,-0.11079125,-0.1916983,10.1967535,-0.22959256,0.077536196,0.07507111,7.416402,-7.71636,-46.117798,
30327280,-0.07695511,-0.25457963,10.586019,-0.12213413,-0.046167523,0.07959848,5.9551697,-7.017707,-47.24559,
30327300,-0.1491189,-0.2776361,10.651895,0.019279603,-0.14683491,0.08505796,5.8004465,-7.370036,-46.00724,
30327320,0.0062877685,-0.40489587,10.126686,0.15430176,-0.11381176,0.11328744,6.3389187,-7.145382,-46.305977,
30327340,0.27697682,-0.35219535,9.181969,0.14538018,0.048374616,0.10263481,7.262639,-7.6473055,-46.27719,
30327360,0.27727625,-0.1375006,8.726528,-0.060348846,0.21641994,0.049904265,6.495228,-9.202143,-45.968742,
30327380,0.03353633,-0.058749247,9.170291,-0.31294942,0.28379786,0.0032989879,6.647607,-7.0095177,-47.383224,
30327400,-0.28386456,-0.09468144,10.1177025,-0.39657265,0.2285373,-0.015609439,7.4922895,-6.398934,-46.827606,
30327420,-0.40274018,-0.19768701,10.603384,-0.3054926,0.085525684,0.0068942523,6.646083,-7.2063103,-45.75595,
30327440,-0.20541264,-0.27104855,10.641414,-0.14170834,-0.080655426,0.029531103,7.646268,-6.6879435,-46.58828,
30327460,-0.010480581,-0.30608243,10.270714,0.0017027562,-0.13631545,0.0075600417,6.261817,-6.6375666,-46.77806,
30327480,0.18085827,-0.34021798,10.037154,0.08905437,-0.036979627,-0.022134177,6.7993927,-6.256241,-46.45958,
30327500,0.0392256,-0.2698508,9.920974,0.1320644,0.105366215,-0.086183146,6.491646,-6.3322973,-46.3116,
30327520,-0.3829775,-0.14768142,9.972477,0.12061279,0.10163779,-0.10216211,5.8768187,-6.7827044,-46.244286,
30327540,-0.49287003,-0.02551199,9.958103,0.10556595,-0.025661202,-0.07806052,6.87815,-7.7268467,-46.285828,
30327560,-0.6120451,0.15594551,9.768561,0.0813312,-0.19796757,-0.04836629,6.0293417,-6.2563314,-45.70491,
30327580,-0.589117,0.2730673,9.534491,0.01954592,-0.28758287,0.0070274104,7.4163027,-7.6426554,-46.118652,
30327600,-0.39974585,0.40806964,9.28228,-0.044236735,-0.29237655,0.056429006,5.9546585,-7.5174265,-46.156464,
30327620,-0.22787026,0.5730582,9.169392,-0.10109518,-0.09796596,0.069079004,5.340371,-7.613207,-47.021843,
30327640,-0.087435335,0.52784353,9.522126,-0.09696728,0.18099993,0.06335321,6.8783884,-7.1511087,-47.221077,
30327660,-0.3641131,0.71888304,9.802098,-0.040108837,0.28033575,0.04990427,6.491171,-6.1088676,-46.15943,
30327680,-0.32309052,0.79583764,10.003319,0.036989607,0.11788306,0.031927943,6.4151278,-7.0624027,-45.763367,
30327700,-0.28895494,0.893154,9.89612,0.11102543,-0.10222701,-0.046768397,5.723981,-7.015418,-46.864456,
30327720,-0.509339,0.9108207,9.699691,0.17534073,-0.21820757,-0.11321421,7.4140263,-6.1650906,-45.903664,
30327740,-0.1859494,0.7500242,9.300545,0.08972016,-0.4236703,-0.14690317,5.6463623,-7.4414406,-45.70072,
30327760,-1.2471464,1.8717071,8.881036,0.0022353893,-0.23991232,-0.07313366,5.493704,-7.2423506,-47.022316,
30327780,-0.30991536,1.0862894,9.910793,-0.08564885,-0.023530673,-0.023066284,5.494912,-8.126804,-47.012047,
30327800,-0.023655724,0.3984877,10.684234,-0.014143038,0.10976043,-0.08991157,5.4162817,-6.874995,-47.028503,223.0
30327820,-1.0444291,1.2132499,10.048832,0.08173067,0.118948326,-0.12386684,4.7239056,-6.739249,-47.124672,
30327840,-0.89650816,1.1096452,9.870668,0.02021171,0.021210393,-0.02346576,5.801984,-7.2457876,-47.556282,
30327860,-0.61503947,0.9877754,10.228194,-0.010547772,-0.17533073,-0.024797337,6.491935,-6.4808645,-46.387245,207.0
30327880,-0.60246325,0.8937528,10.657284,0.027668554,-0.17719492,-0.033319443,6.9540462,-6.916087,-46.370712,
30327900,-0.80637836,0.8913574,10.784245,0.12021333,-0.108219124,-0.030656286,4.5707827,-7.764182,-46.49755,184.0
30327920,-0.8429093,1.037781,10.251551,0.16255754,-0.068804376,0.01874531,5.2636127,-7.5441446,-47.25669,
30327940,-0.46592095,1.0545493,10.040748,0.10814033,-0.08385122,0.053055674,6.417371,-7.454088,-47.30642,
30327960,-0.030243281,0.72367394,10.571047,0.0737412,-0.118472286,0.036721632,5.800868,-7.303278,-46.472305,161.0
30327980,0.25541756,0.6104876,10.909408,0.08399436,-0.24270862,-0.021068916,5.6504107,-8.653142,-47.853294,
30328000,0.46771687,0.37333518,10.666865,0.110892266,-0.282656,-0.13212264,5.032712,-7.690423,-46.95121,138.0
30328020,0.2476322,0.33530697,10.030867,0.08625805,-0.09769964,-0.1869837,6.0343504,-8.421558,-47.53689,
30328040,-0.016768714,0.4622673,10.070991,-0.075129375,0.117483586,-0.18365476,4.416457,-7.470542,-46.427414,
30328060,-0.103005946,0.17361215,10.687826,-0.20788783,0.17900255,-0.11494527,6.3408413,-7.6775274,-47.383125,117.0
30328080,0.37848523,0.08468002,11.598707,-0.20802099,0.041716717,-0.03678155,6.265377,-8.494077,-47.685066,
30328100,1.0594001,-0.17822373,12.06313,0.0034338124,-0.08345174,-0.08365315,6.725994,-7.8962793,-47.60315,98.0
30328120,1.2881683,-0.24320109,11.320232,0.31515652,-0.08771281,-0.14357422,7.340891,-7.8086042,-47.279343,
30328140,1.6071947,-0.21218821,10.465303,0.47281554,-0.14763387,-0.21867529,6.958721,-9.149229,-47.815002,
30328160,1.4756143,-0.0892916,9.433793,0.47188342,-0.13445124,-0.35715955,7.802535,-8.527063,-46.485718,84.0
30328180,0.64108956,0.3454877,8.897505,0.3393913,-0.03658015,-0.40616167,6.033677,-8.991507,-46.214813,
30328200,0.38357562,0.440708,8.568727,0.16948175,0.009625655,-0.34424323,6.883342,-10.401057,-47.647614,
30328220,0.6030614,0.38082105,8.27528,-0.056354105,0.09604516,-0.23678477,7.4172297,-8.885207,-45.407806,
30328240,1.2615185,0.3754312,9.001111,-0.23704943,0.22906995,-0.2161453,7.726371,-8.393561,-47.340363,
30328260,1.1642022,0.42064586,9.658669,-0.17899257,0.35277367,-0.3201416,7.6497936,-9.267603,-46.55832,
30328280,0.4245982,0.84704113,9.396962,-0.04383726,0.3704837,-0.36941007,8.419569,-9.191491,-47.15911,
30328300,-0.17606804,1.0114307,9.049917,0.08173068,0.3390584,-0.32187268,9.186391,-8.64188,-45.676147,92.0
30328320,-0.79889244,1.3587751,8.851991,0.2136902,0.2000415,-0.21401475,9.879184,-9.14499,-45.49832,
30328340,-0.92555344,1.6387467,8.206112,0.3006423,-0.029789098,-0.08964525,9.571591,-8.644151,-46.208214,
30328360,-0.589288,1.7306732,7.59197,0.19265124,-0.20981863,-0.026128916,10.72613,-8.564518,-46.95424,
30328380,-0.38088146,1.752532,7.162281,-0.048231468,-0.15815336,0.018612152,10.113231,-10.487858,-46.792442,
30328400,-0.38297752,1.8085263,8.034834,-0.3029626,0.06635094,0.13605745,8.419775,-8.904779,-47.70411,
30328420,-0.1655878,1.8043342,9.402353,-0.30376154,0.14504729,0.2777375,9.343844,-9.411336,-47.984787,
30328440,0.39435527,1.669888,10.0662,-0.07619464,0.0775362,0.34231913,9.957161,-9.230268,-46.346596,
30328460,1.1291683,1.6965376,9.841924,0.12926807,-0.16933861,0.27893594,9.881717,-9.685244,-47.117027,101.0
30328480,1.6157498,1.6582099,9.476613,0.17534073,-0.18691546,0.09437902,8.727054,-9.1119585,-47.075005,
30328500,0.7408014,1.6842608,9.891928,0.15390229,0.006429862,-0.0014946978,10.496813,-9.744975,-46.791504,
30328520,-0.0080851,1.9193171,10.001222,0.13765702,0.11348884,0.10037113,10.114403,-10.720552,-47.563545,
30328540,-0.13264999,1.9456674,10.189568,0.054033823,0.16502097,0.28213173,9.651965,-9.485003,-48.28579,
30328560,0.35842308,1.6468315,11.3591585,0.021809604,0.14584623,0.43406492,10.730269,-10.7181635,-48.012543,110.0
30328580,0.78272223,1.4701649,12.492221,0.2029044,-0.0052880384,0.44405177,10.039531,-11.906784,-47.938576,
30328600,1.0058012,1.3078712,12.447305,0.41342705,-0.15522388,0.36349124,10.192895,-12.621805,-46.610992,124.0
30328620,0.7833211,1.6510235,12.385323,0.5922582,-0.07439701,0.25523382,10.0404415,-12.1360035,-48.477577,
30328640,0.8905187,1.3536848,11.531035,0.730343,0.008560388,0.11035797,11.040445,-12.483562,-48.061768,
30328660,0.6003665,0.7494253,9.948522,0.63513505,0.08512621,-0.07286735,8.811437,-13.262565,-48.649864,134.0
30328680,0.24763219,-0.20397516,8.7247305,0.066817,-0.12140175,-0.31175268,10.580168,-13.954231,-47.35975,
30328700,-0.54257625,-0.7857342,8.9866085,-0.7028359,-0.017139092,-0.40176743,9.733451,-13.452299,-47.463997,143.0
30328720,-1.6777337,-0.69175446,11.434318,-1.0434539,0.3868621,-0.20669109,10.117103,-11.697241,-48.79029,
30328740,-2.2643266,-0.5318563,13.402802,-0.7370575,0.5204195,0.13073114,11.194505,-11.832942,-49.07144,
30328760,-1.6403044,-0.56120086,12.46048,-0.25475943,0.26595467,0.38785917,10.886077,-11.9722805,-48.226288,170.0
30328780,-0.69738406,-0.5767715,10.815684,0.01435276,-0.035381727,0.44418493,11.579567,-12.484654,-48.667404,
30328800,-0.28116968,-0.36327443,9.361031,0.06335489,-0.2922434,0.32128018,10.656596,-12.282182,-49.002235,194.0
30328820,-0.26170638,0.016708314,8.974162,-0.0026914545,-0.26867443,0.21182433,11.500557,-11.517241,-47.98414,
30328840,-0.20181943,-0.24769263,8.956493,-0.032785147,-0.07359806,0.15816168,10.962611,-11.314721,-48.696297,
30328860,-0.3674069,-0.34680554,9.0744705,-0.079523586,0.011090392,0.12327429,11.040619,-12.485877,-48.216507,211.0
30328880,-0.41262156,-0.2599694,8.991229,-0.10908465,0.008160918,0.101436384,10.810963,-12.793462,-48.837715,
30328900,-0.38746902,-0.17642714,9.143043,-0.103492014,-0.016340144,0.08798743,10.655959,-12.128982,-48.61711,226.0
30328920,-0.1578025,-0.29530278,9.108607,-0.059416734,-7.606647E-4,0.11222217,11.502479,-12.049385,-49.06128,
30328940,-0.3650114,-0.0018566381,9.165799,0.056031197,0.11082569,0.17187694,11.271798,-11.9815,-49.222565,
30328960,-0.4919718,0.38441426,8.729523,0.24618074,0.21309099,0.27440858,12.194134,-12.030773,-48.502617,
30328980,-0.27488154,0.64132935,8.034235,0.33153498,0.14038676,0.2947817,11.811748,-13.151443,-49.118202,
30329000,0.05449677,0.99166805,7.7216253,0.32767338,0.060225666,0.26841646,12.039372,-11.731342,-48.04563,248.0
30329020,0.57491446,1.1743233,7.467106,0.27467653,0.021210397,0.12660325,12.042535,-12.858913,-49.502754,
30329040,0.5812026,1.221634,7.276964,0.16317897,0.022675132,-0.052405417,11.427402,-13.522326,-48.891327,
30329060,0.09192613,1.4477073,7.7770205,0.021276971,0.027601976,-0.14690317,12.579341,-12.539711,-48.40976,
30329080,-0.4509492,1.4683682,8.831631,-0.05981621,0.010824076,-0.13864738,11.657995,-13.589055,-48.652664,
30329100,-0.43867233,1.2937979,9.557459,0.031530134,-0.052559108,-0.033852078,12.81183,-12.99349,-49.404686,
30329120,-0.3150058,1.2159448,10.088059,0.18013442,-0.23232234,-0.0100168055,12.96648,-14.08746,-48.76911,
30329140,0.37788635,0.9772952,9.0738735,0.25177336,-0.78506094,-0.042374186,11.580766,-12.862442,-49.28205,
30329160,1.3983601,0.6470186,8.318099,-0.037978306,-0.9325999,-0.20003317,11.502868,-12.271659,-49.13607,
30329180,0.49885798,0.13738056,10.016194,-0.3925779,-0.40356344,-0.35090113,12.042191,-12.42016,-49.73999,
30329200,-0.5815027,0.051742196,12.233509,-0.44850424,-0.021400146,-0.22480056,11.732689,-11.4597225,-49.294525,265.0
30329220,-0.5195198,0.15744269,12.632355,-0.28125787,-0.013543827,0.008758465,12.7314005,-10.487547,-49.358322,
30329240,0.6678248,-0.18686458,11.92894,-0.33545315,-0.02486225,0.1612243,11.347192,-10.8022175,-49.31173,
30329260,2.3838003,-1.2208558,11.7253685,-0.5274669,0.17673887,0.07533744,11.4237995,-10.073271,-49.937325,
30329280,2.446382,-1.8248156,12.030791,-0.7053659,0.43706262,-0.27193844,12.422574,-9.897946,-49.06331,
30329300,0.9207618,-2.0984995,13.362377,-0.6865907,0.45091105,-0.4845917,13.419986,-8.4742775,-48.513298,
30329320,0.081146464,-1.90207,13.1881075,-0.3427768,0.19604677,-0.45516378,13.95816,-7.594392,-49.361313,
30329340,-0.12666129,-1.2909236,11.61817,-0.049030412,-0.047632262,-0.35889056,14.263599,-6.3297977,-48.904068,
30329360,0.50514615,-0.922918,9.659866,-0.009083036,-0.070668586,-0.2796616,14.034962,-7.881095,-48.8918,
30329380,1.0827559,-0.7249916,8.289353,-0.1627473,0.16182518,-0.3072253,13.802408,-6.6304626,-48.83467,
30329400,0.8764453,-0.6414494,7.882422,-0.41148633,0.45290843,-0.40269956,14.801716,-6.968754,-47.799927,
30329420,-0.023056842,-0.39231965,8.685805,-0.55263376,0.41961896,-0.46515062,15.184167,-4.83591,-48.511566,
30329440,-0.13264999,-0.3722575,8.862772,-0.5720748,-0.07080174,-0.46315324,16.105843,-4.152771,-48.109642,
30329460,0.10959277,-0.5237715,8.495364,-0.6568964,-0.37839657,-0.51694906,15.720726,-3.2108707,-48.82656,238.0
30329480,-0.30931652,-0.7240934,9.078364,-0.7664854,-0.26894075,-0.53452593,15.796238,-3.118627,-47.665016,
30329500,-1.0770674,-1.0528728,10.162918,-0.5739391,0.19205204,-0.36102116,15.795263,-2.092554,-48.063828,212.0
30329520,-1.7606771,-0.80404246,11.4579735,-0.06913726,0.26488942,-0.074198924,16.410017,-1.7135344,-47.975548,
30329540,-0.7560732,-0.51478845,10.759392,0.53713083,-0.3504334,0.09397954,16.792732,-0.95907164,-47.200943,
30329560,0.25272262,-0.19618984,7.5410657,0.7351367,-0.7512388,-4.2943284E-4,16.870787,-1.4796271,-47.57988,196.0
30329580,0.14163229,0.16283251,5.766316,0.4219492,-0.44630712,-0.07126945,16.024393,-0.83723354,-48.150063,
30329600,-0.80009013,0.4967023,6.138813,-0.10908464,-0.09077544,0.036188997,15.563896,-1.1471629,-48.699593,
30329620,-0.73541224,0.51227295,8.442664,-0.37819684,-0.0709349,0.3930523,16.024498,-1.8517246,-46.977562,
30329640,0.71564883,0.27362338,10.1967535,-0.2969705,-0.12153492,0.49358654,16.94719,-1.0373912,-47.660492,
30329660,1.4226145,-0.07222381,10.97169,0.037389085,0.09244989,0.35337123,17.25352,-0.36358976,-47.273758,171.0
30329680,1.2357671,-0.08629727,10.78125,0.425145,0.18779097,0.2372575,18.407784,-1.5828433,-46.147575,
30329700,0.653067,0.0110190585,9.609861,0.5661593,0.13652517,0.17307536,17.63975,-1.6821184,-47.094116,157.0
30329720,0.19792604,-0.09198652,9.356539,0.4158239,0.07993304,0.17720327,18.408783,-1.8132224,-46.763947,
30329740,0.23206162,-0.32135358,9.960199,0.15576649,-0.2124818,0.20343538,19.253502,-1.8543983,-45.426956,
30329760,0.5386828,-0.3024892,10.871979,0.0018359157,-0.24936655,0.22247696,17.638418,-1.5196543,-46.090065,146.0
30329780,-0.06198337,-0.27134794,12.659305,0.14165175,0.040385135,0.31954914,18.25417,-2.7459197,-44.89982,
30329800,-0.3184279,0.11530793,13.1958065,0.5087682,0.121611476,0.48652917,19.483717,-2.205521,-44.48857,130.0
30329820,0.7120556,0.57515424,11.534927,0.6571061,-0.06827174,0.47387916,19.485405,-2.8792849,-45.17717,
30329840,1.8852413,-0.031201255,9.205624,0.15217124,-0.30223024,0.19597852,19.562506,-3.8212209,-44.15838,
30329860,2.0128007,-1.4169855,9.6586685,-0.45170003,-0.27599812,-0.09523788,19.177876,-3.1752987,-44.94924,118.0
30329880,0.39435533,-1.6277878,11.990068,-0.5989727,0.039186716,-0.31122005,20.636457,-2.2466607,-43.45346,
30329900,-1.8666772,-1.2831382,13.470174,-0.26221627,0.18978836,-0.13651682,19.176977,-1.6437178,-46.05036,92.0
30329920,-2.1903658,-1.2804432,12.547018,0.15470123,0.10256989,0.2834633,21.635046,-0.62156725,-44.221268,
30329940,-1.0117906,-1.1774375,10.824369,0.30343866,-0.12499702,0.539526,20.946606,-2.4920588,-45.377457,
30329960,0.58000493,-1.3127823,9.40894,0.17121282,-0.3549608,0.5079676,20.025791,-4.0550194,-45.45965,46.0
30329980,1.2462474,-1.0932964,8.794499,-0.06860463,-0.40303078,0.2917191,19.869684,-3.520576,-44.076836,
30330000,0.97615707,-0.9166299,8.532794,-0.3004326,-0.17626283,0.09384639,19.10071,-3.2455368,-44.640823,20.0
30330020,0.45693713,-1.1933076,8.689099,-0.51907796,0.18765783,-1.6311859E-4,19.640171,-4.119505,-44.46251,
30330040,0.1646888,-1.4972341,9.785929,-0.536788,0.123342544,0.034457944,19.331043,-3.3087912,-44.170067,
30330060,0.6725303,-1.3328445,10.491697,-0.3204063,-0.14763388,-0.019604178,20.023903,-3.2338452,-44.77276,17.0
30330080,0.5114344,-1.0627542,10.3323965,0.1130228,-0.06054858,-0.10988526,19.791578,-2.2757144,-44.557487,
30330100,0.19313508,-0.7905678,8.742099,0.4331345,0.09870832,-0.09550421,21.023157,-2.8478322,-44.59762,
30330120,0.21738932,-0.792664,7.16288,0.3396576,0.1861931,-0.055556826,19.71627,-3.4561543,-44.545685,
30330140,-0.08743533,-0.5246698,6.7969704,0.07014594,0.1421622,0.004408637,20.330547,-2.8537054,-44.305244,
30330160,-0.40303963,-0.032099552,7.828224,-0.13624886,0.051437248,0.073473215,21.02246,-2.8385673,-43.978676,
30330180,-0.32428828,0.17001894,8.2222805,-0.18445203,-0.10182755,0.13978589,20.101286,-4.324349,-43.82962,
30330200,-0.0991133,0.033476662,8.696285,-0.1250636,-0.009682246,0.20862854,19.946066,-3.4399133,-43.688965,
30330220,0.558745,-0.24110506,9.229878,0.0013032816,0.033460923,0.24564645,20.023825,-3.7393546,-44.070473,
30330240,0.96657515,-0.053958304,9.679031,0.22234546,0.008560387,0.15296851,18.563257,-4.279782,-44.255302,
30330260,0.92525315,0.021499258,9.1122,0.3207492,-0.27373445,-0.056355767,18.408371,-3.7615514,-43.955635,16.0
30330280,0.6294116,-0.7145115,8.483088,0.16255756,-0.32153815,-0.23012689,17.334347,-4.973381,-45.05166,
30330300,0.031140853,-0.9348955,9.7311325,-0.18551731,0.01601724,-0.25556,17.793213,-3.8457522,-44.047333,
30330320,-0.42190403,-0.5857546,12.2371025,-0.33039314,0.243451,-0.15169685,17.256569,-4.0947256,-45.3733,
30330340,-0.21063137,-0.7104477,13.243375,0.021410134,0.22560783,0.030330049,18.561373,-3.024488,-44.115128,
30330360,0.5844964,-0.99478245,12.413769,0.51808923,0.055431984,0.12726903,18.48545,-3.690154,-44.18669,
30330380,1.0348463,-1.2825395,10.353956,0.6033103,-0.16467807,0.069345325,17.94894,-4.664591,-44.730423,
30330400,0.56593144,-0.5558111,9.810482,0.2614939,0.118282534,0.035256892,17.17944,-4.8167243,-44.283516,
30330420,0.62881273,-0.5357489,10.98247,-0.045035683,0.3393247,0.06348637,18.179586,-5.0215044,-44.17888,
30330440,1.2728971,-1.1169518,10.662974,-0.2342531,0.12134516,-0.07859314,16.41059,-5.194604,-44.143494,
30330460,1.2133095,-1.5259798,11.186087,-0.40709215,0.048907243,-0.22227055,17.411152,-4.8259625,-45.128838,
30330480,0.84081256,-1.8460757,11.879877,-0.30815575,0.09058568,-0.3034969,16.56351,-4.022262,-44.772324,
30330500,0.27248535,-1.802957,11.448092,-0.049163572,0.10789621,-0.3065595,16.179287,-3.6711574,-45.55976,
30330520,-0.39944646,-1.3834488,10.807001,0.14977439,-0.013676988,-0.14810158,17.10392,-4.4023023,-46.069977,
30330540,0.10360408,-0.88219506,9.73263,0.23006864,-0.023930147,0.02127531,15.795968,-5.3582997,-44.621178,
30330560,0.873451,-0.96453965,9.025963,0.13845597,0.12147832,0.012220571,14.795855,-4.430371,-45.662766,
30330580,2.1718006,-1.2310364,8.158201,-0.13505045,-0.12366544,-0.20216371,15.871828,-3.8957815,-45.487434,
30330600,1.9226706,-1.1540818,8.639692,-0.49417743,-0.13165492,-0.55436647,16.25859,-4.3530188,-46.865387,
30330620,-0.34105662,-0.7552346,11.049544,-0.5020337,-0.04337121,-0.653436,14.410419,-3.628933,-45.913788,
30330640,-1.554067,-0.30847788,11.208843,-0.072998844,-0.015274883,-0.34091428,14.64104,-2.465847,-47.237007,
30330660,-1.3252988,-0.1752294,9.226285,0.2681518,0.22081414,0.019943727,13.948186,-3.4815784,-45.462692,19.0
30330680,-0.18085897,-0.23391862,7.7054553,0.21435598,0.27820522,0.23526013,14.794403,-3.1808696,-45.909416,
30330700,0.9063888,0.017606618,7.4850717,-0.00442251,0.11202411,0.18306221,14.640238,-2.8169975,-46.072227,22.0
30330720,1.0650892,0.23200196,7.6596417,-0.18072361,-0.012611721,-0.026128918,14.792647,-2.1443734,-45.61194,
30330740,-0.061683945,0.47514302,8.964879,-0.16887255,0.012022498,-0.11987211,13.793128,-2.5269127,-45.554985,
30330760,-0.8060788,0.6844479,9.9524145,0.13046649,-0.06374437,0.042447425,14.639338,-1.7195363,-46.62664,26.0
30330780,-0.50305086,1.0880861,9.650284,0.3991792,-0.13964438,0.26215804,13.795748,-3.0683236,-47.25107,
30330800,0.7964962,0.93148166,8.745991,0.47121763,-0.13405176,0.418086,12.948518,-3.0661077,-46.266197,30.0
30330820,2.1262865,0.87848175,7.7557607,0.26961654,-0.05775227,0.3424523,13.027264,-3.0892615,-47.888992,
30330840,2.5320203,0.59102434,8.601664,-0.061680418,0.16595307,0.10263481,13.257349,-3.2215867,-47.107918,
30330860,1.5648459,0.17001894,11.649012,-0.05195989,0.14198466,-0.12546474,12.566332,-3.3934002,-48.051704,35.0
30330880,0.2119995,0.36974198,12.874298,0.39851344,-0.38185865,-0.2246674,12.796106,-2.797946,-47.898117,
30330900,-0.21952887,0.062949605,11.0621195,0.79825354,-0.6160835,-0.13305473,10.644003,-3.5032358,-48.56254,44.0
30330920,-0.2721866,-0.01682838,9.1271715,0.7608361,-0.30209708,0.0722748,12.028803,-4.9331517,-46.963882,
30330940,0.07216342,-0.019523295,8.402241,0.34431815,0.12747043,0.2467117,11.952448,-3.7840009,-48.91365,
30330960,0.018564597,0.14426754,9.950019,-0.029323043,0.25064152,0.3381912,10.798421,-4.738822,-47.538414,
30330980,-0.04102294,1.0051426,11.703508,0.0120890755,0.003500387,0.3813344,12.954222,-5.240599,-48.717102,
30331000,1.2785863,0.52934074,10.851019,0.0772033,-0.29450706,0.24218433,11.798579,-4.0753627,-48.527184,58.0
30331020,3.0072234,-1.3768613,9.158612,-0.24117732,-0.3006323,-0.13172317,11.952525,-4.6533985,-47.897614,
30331040,1.8768574,-2.2790585,10.294967,-0.7078959,0.050904617,-0.5181475,10.642282,-3.1184988,-47.48369,
30331060,-0.7722428,-2.1568894,12.718294,-0.7363917,0.23852415,-0.5213433,11.645449,-4.593628,-48.525,77.0
30331080,-2.2831907,-1.9005729,13.386033,-0.3840558,0.14424834,-0.2056258,11.644272,-3.420147,-48.92552,
30331100,-1.9627957,-1.8340982,12.2871065,-0.026393572,-0.22579758,0.1476422,11.719287,-2.52526,-48.314972,104.0
30331120,-0.78511846,-1.6505446,10.4509735,0.0788012,-0.37520078,0.3003744,9.49216,-3.6187701,-50.214874,
30331140,-0.42699438,-1.1977993,9.283776,-0.01334409,-0.16321334,0.33233225,10.029382,-3.666932,-49.040215,
30331160,-0.2323618,-0.7992515,8.879241,-0.17752783,-0.07626122,0.37867123,10.799135,-4.386514,-48.62584,123.0
30331180,0.5186207,-1.173545,8.415714,-0.3964395,-0.12699439,0.31648648,11.26029,-3.4340906,-49.4766,
30331200,0.4746037,-1.2909234,8.685506,-0.58073,-0.016473303,0.23512697,9.873666,-1.9798536,-49.450546,
30331220,0.26799384,-1.258285,9.969183,-0.45968953,-0.059350155,0.20197064,10.02864,-2.4992404,-49.827583,145.0
30331240,0.21529326,-0.9687316,9.242154,-0.27588716,-0.22233546,0.16135746,8.950108,-2.348485,-48.540657,
30331260,0.36770555,-1.0088559,8.677122,-0.24224256,-0.07799227,0.158428,9.102145,-1.0920148,-48.474045,164.0
30331280,0.292248,-1.0352062,9.506855,-0.10548937,0.25303838,0.19198379,10.101887,-1.4360986,-47.826126,
30331300,0.49466592,-0.7977544,9.017578,0.17107967,0.16741781,0.19185063,10.024269,-1.8621206,-46.66239,
30331320,0.58808964,-0.5956359,7.9261384,0.272546,-0.20089705,0.116083756,9.948756,-1.9543648,-47.823944,176.0
30331340,0.21080175,-0.13181134,7.139524,0.117150694,-0.33671814,0.051635318,10.409399,-1.5016594,-47.58558,
30331360,-0.2539211,0.35447082,7.8656535,-0.093105696,0.016683027,0.15762904,10.026434,-2.759315,-47.503166,
30331380,0.40812927,0.54371357,9.302042,-0.1108157,0.35330626,0.38519597,9.7933445,-1.4291859,-47.060066,
30331400,3.1090312,0.08198511,9.600279,0.041783296,0.28659418,0.34604755,11.254431,-0.89570856,-47.33944,
30331420,3.709398,-0.16385087,9.743409,0.24178651,0.22827101,-0.19390792,11.4092655,-1.1237526,-47.952003,191.0
30331440,1.7735093,0.040705882,8.785731,0.3417881,0.17340992,-0.71588707,9.564838,-2.7651596,-47.437187,
30331460,0.06437811,0.005928654,8.52441,0.10436755,0.2694168,-0.78459656,12.02364,-1.0291281,-47.163986,
30331480,-0.73331624,-0.8241046,10.207233,-0.14463781,0.33399838,-0.5180143,11.560724,-0.945055,-46.015747,
30331500,-0.62821454,-1.4319572,11.522052,-0.06847148,0.16701835,-0.21641159,11.408033,-1.0349917,-46.94709,
30331520,-0.055395808,-1.7697198,11.81969,0.09331542,0.17900255,-0.07965842,12.635906,0.1066246,-45.769028,207.0
30331540,-0.08264438,-1.4059064,11.890356,0.25177336,0.11495359,-0.06620946,12.405876,-0.051234722,-46.23722,
30331560,0.12815773,-0.54173756,11.59721,0.31675446,-0.038311206,-0.05702156,11.176996,-1.8307137,-45.705505,
30331580,0.7015754,-0.44202584,10.714776,0.15749756,-0.14177492,-0.15103105,12.252251,-0.7076454,-45.614388,
30331600,0.85668266,-1.5095109,10.956719,-0.1383794,0.047442507,-0.3021653,11.942843,-0.25503063,-44.621346,
30331620,0.095219925,-2.085923,12.1326,-0.26554525,0.074873045,-0.3844569,12.9429655,-0.3147192,-44.673157,
30331640,-0.44555938,-2.5162113,12.335616,-0.2294594,-0.021533303,-0.25449476,12.940712,0.58363295,-43.755043,
30331660,-0.04820937,-2.6105328,11.891853,-0.14503728,0.10989358,0.00889162,13.093738,0.7414837,-43.21138,226.0
30331680,0.5611405,-2.3060076,12.024204,0.050571725,0.34278685,0.15989274,12.093827,1.5220027,-44.25126,
30331700,0.7791291,-1.6948612,11.159137,0.36748764,0.14544676,0.1554985,13.323261,0.8337455,-42.200768,
30331720,0.9539989,-0.9929859,9.406246,0.4587008,-0.22686285,0.07906585,11.784695,0.5236888,-41.69378,
30331740,1.0117899,-0.5201783,8.295342,0.31901813,-0.34364235,0.018878466,12.398863,1.7065091,-42.07911,
30331760,1.1201853,-0.27044964,7.403326,0.017415397,-0.1060886,0.015416361,12.631635,0.67004013,-42.602997,
30331780,1.1866597,-0.20547232,7.8060656,-0.375001,0.32334578,0.031528473,12.321912,1.4163146,-41.690758,
30331800,1.1866598,-0.3686643,9.28677,-0.5600906,0.64119375,-0.016674701,12.782496,1.7250853,-41.218575,
30331820,0.79859227,-0.4926302,10.726454,-0.3507663,0.58380264,-0.103760004,13.164349,3.35937,-40.76371,
30331840,0.52341175,-0.23302034,10.135968,0.07307541,0.11348885,-0.21601214,12.932908,2.8584669,-39.52555,
30331860,-0.013175502,0.12420541,8.256715,0.3007755,-0.16427861,-0.30509478,13.703146,2.7836957,-40.356728,
30331880,-0.58389825,0.49071366,7.091913,0.25283864,-0.056287527,-0.2658132,12.93333,2.9252224,-39.990612,
30331900,-0.7839207,0.5425158,7.253009,0.070545405,0.2845968,-0.18099159,13.318193,2.855038,-40.134987,
30331920,-0.8761467,0.4260357,8.683109,0.007428549,0.42028475,-0.050230503,12.701047,3.6657145,-39.54067,208.0
30331940,-0.57880783,0.72187734,9.222093,0.033394344,0.1177499,0.04657532,13.701493,2.8057,-38.886765,
30331960,0.33207285,0.6482163,9.56225,0.101304896,-0.07413069,0.095843755,14.23975,3.2503078,-39.265434,194.0
30331980,0.737807,0.6146797,9.332585,0.18159914,-0.0054211933,0.061222687,14.393363,3.9792647,-39.966496,
30332000,0.7787013,0.6672946,9.303154,0.18985492,0.09284937,0.030596368,14.468769,3.711093,-38.259106,
30332020,0.59677327,0.59312034,9.696098,0.15550019,0.10576568,-0.008019437,14.699556,4.003622,-38.643665,180.0
30332040,0.21170005,0.60809207,10.595901,0.25017548,-0.034982257,-0.009617332,14.158662,5.1137586,-37.81877,
30332060,-0.09372346,0.62605816,10.701302,0.38506445,-0.20316073,0.035656363,15.005784,4.7511272,-38.257793,168.0
30332080,0.16109556,0.44999048,10.165612,0.42621025,-0.36654553,0.08612323,13.467847,4.7945366,-38.760845,
30332100,0.34764344,0.3116516,9.900313,0.2652223,-0.27866125,0.08226164,12.697637,4.7242155,-37.773216,
30332120,0.02844594,0.14935794,10.297663,0.050039094,0.064619884,0.1276685,14.313909,4.0842295,-37.802986,157.0
30332140,-0.6842089,0.4688549,11.748425,-0.020934094,0.43160316,0.2650875,14.621278,4.3100123,-37.797955,
30332160,-0.40573454,0.6068943,12.83687,0.1139549,0.18512784,0.29864332,15.31278,5.1266356,-38.099743,145.0
30332180,1.1642022,-0.56988454,11.387905,0.10210385,-0.37852973,0.09384639,14.235228,4.685438,-36.9607,
30332200,1.1519253,-1.0672457,10.506968,-0.22852731,-0.3581566,-0.1961716,14.541261,6.014473,-37.123245,
30332220,-0.14372908,-1.0462852,11.572956,-0.40576053,0.101637796,-0.2394479,14.157776,6.1386733,-38.294956,133.0
30332240,-0.9369319,-1.054969,12.196379,-0.24503891,0.52494687,-0.049697872,15.389434,6.0720644,-39.037373,
30332260,-1.0863498,-0.88488984,12.264951,0.02860066,0.32494366,0.14457956,14.694703,7.179866,-38.216274,120.0
30332280,-0.25541827,-0.8396752,11.079487,0.24697968,-0.2102181,0.15802853,15.692985,8.591952,-38.43994,
30332300,-0.10809634,-0.6677996,9.548477,0.31528968,-0.45416343,0.06322006,14.231771,8.277271,-38.317883,
30332320,-0.41651416,-0.35159647,8.245337,0.19171914,-0.38119292,0.015948992,15.23377,7.468958,-39.1348,107.0
30332340,-0.48478532,-0.5504212,7.6791053,-0.017560758,-0.16161545,0.01399601,14.080169,7.015012,-38.771324,
30332360,-0.612644,-0.8267995,7.7114444,-0.3213384,-0.044170156,0.037254263,14.233919,7.018504,-38.69016,92.0
30332380,-0.14552568,-0.7890708,8.956195,-0.620278,-0.04536858,0.10236849,15.078551,8.353394,-38.99414,
30332400,0.41801062,-0.84775996,10.233283,-0.55569637,0.033460923,0.06455163,15.07908,8.780565,-40.00504,
30332420,0.23505594,-0.6806753,9.85989,-0.17086993,0.17407571,-0.0375805,14.461359,8.947589,-38.087788,50.0
30332440,-0.34914136,-0.41268122,8.402241,0.09944068,0.25716627,-0.08684894,13.999318,9.454201,-38.25991,
30332460,-0.7285253,-0.34231403,7.358111,0.056696985,0.22094731,-0.030256815,15.306757,9.910481,-38.619583,21.0
30332480,-0.66923714,0.02209814,7.938416,-0.14064308,0.18459518,0.09584376,16.3832,9.787521,-38.04971,
30332500,-0.2997346,0.23589462,9.406246,-0.085782014,0.1963131,0.17001274,16.304722,10.241322,-37.20571,
30332520,-0.05868959,0.28290585,10.083866,0.24271864,0.036656715,0.1311306,17.920723,10.111476,-37.628304,16.0
30332540,-0.40432292,0.1447381,9.83016,0.573483,-0.25562495,0.039517947,16.308046,9.183978,-38.89579,
30332560,-1.2249883,0.5532955,9.966188,0.8448588,-0.56721455,0.071209535,15.538001,9.618007,-38.687824,15.0
30332580,-1.2082198,1.1174308,8.841212,0.9994551,-0.8617599,0.26961488,15.847898,8.869417,-39.7548,
30332600,0.30182993,1.1635438,7.3811674,0.74499035,-0.8030372,0.4243444,15.155553,9.294189,-40.241234,
30332620,2.014597,0.46645942,7.484173,0.25310495,-0.47466975,0.33313122,15.078108,8.86585,-39.232227,
30332640,2.5781336,-0.023116514,8.860974,-0.21481204,0.13599253,-4.2943284E-4,14.849697,8.396959,-40.78013,
30332660,1.3040382,-0.19738755,11.442402,-0.41055423,0.6005806,-0.28871635,14.541279,9.12586,-41.02838,
30332680,-0.18535051,-0.3336304,13.976219,-0.105622545,0.3690189,-0.3458411,16.694866,8.870676,-40.507572,
30332700,-0.28087023,-0.3695626,13.110853,0.3899913,-0.34936813,-0.24730423,14.310196,9.488565,-41.193096,
30332720,0.30602202,-0.08360235,11.48612,0.5776108,-0.5191445,-0.16314843,15.389693,7.4434967,-40.987804,13.0
30332740,0.38387507,0.8599168,10.544099,0.53193766,-0.22220232,-0.092841044,14.694433,9.064914,-40.32743,
30332760,1.2234904,0.46406394,9.213709,0.2822665,0.12680465,-0.05742103,15.542192,8.549084,-41.151573,
30332780,1.5205295,-0.17403165,8.831631,-0.13291991,0.36142892,-0.19031265,17.465246,8.50456,-41.103226,
30332800,1.6696482,-1.2253473,9.479008,-0.6031006,0.24411678,-0.3905822,15.23529,8.606537,-41.933693,
30332820,1.6783316,-2.2536066,10.93486,-0.9967154,0.07766937,-0.5877891,15.310753,9.423086,-41.631752,
30332840,0.89680696,-2.2853465,13.380943,-1.0438534,0.21029466,-0.6671512,15.847201,10.253589,-40.854195,
30332860,-0.4689153,-1.9359062,14.29871,-0.45822474,0.5601006,-0.5519696,14.538763,10.968473,-41.04979,15.0
30332880,-1.3151181,-1.0837145,12.304474,0.18652599,0.5971185,-0.22227055,16.997513,12.0539055,-39.917843,
30332900,-0.7417005,-0.27613893,9.51524,0.4120955,0.3386589,0.06108953,16.459356,11.535593,-39.538322,
30332920,0.5183213,-0.34950045,7.61862,0.2311339,-0.06880437,0.08346006,17.381178,12.361508,-39.447575,16.0
30332940,0.9093832,-0.418071,7.102094,-0.18977836,-0.26747602,-0.10083052,17.689194,11.927424,-39.202736,
30332960,0.3488412,-0.1090543,8.056993,-0.51521635,-0.13538334,-0.23785004,18.151112,12.507851,-40.28132,
30332980,-0.15660478,0.05832976,8.464524,-0.58938533,0.116285175,-0.2579569,16.230072,12.01907,-41.484177,
30333000,-0.41651416,-0.0066476017,8.507942,-0.51641476,0.38300052,-0.19910108,18.228512,12.7197075,-40.97829,
30333020,-0.9833443,-0.20247796,9.030155,-0.3494347,0.29937735,-0.089112625,18.7635,13.931473,-39.353985,14.0
30333040,-1.4537565,-0.090788774,9.6817255,-0.12013675,-0.27466655,0.067880586,17.687052,13.620313,-39.37716,
30333060,-1.3648242,0.12809807,8.615738,0.06721646,-0.68252933,0.25922856,17.919947,13.305834,-40.91537,12.0
30333080,-0.8734517,0.36944252,7.640778,-0.009349352,-0.5653503,0.47121596,16.688417,13.1536455,-40.015648,
30333100,0.24861608,0.5451252,8.262833,-0.16008413,-0.090375945,0.68506765,18.228357,11.708692,-39.573704,
30333120,1.3420665,0.7353519,9.440981,-0.14836623,0.17966835,0.6662923,19.536663,12.153391,-40.707043,
30333140,2.2843876,0.7449337,9.784132,-0.05142726,0.13372886,0.44405177,17.384306,10.944908,-40.514442,
30333160,2.3882914,0.46406394,10.210527,0.10583227,0.023474079,0.18039906,19.000765,9.79594,-40.074017,11.0
30333180,1.3830891,0.5386232,10.490798,0.2867939,-0.21141653,-0.00136154,18.382639,11.6326885,-39.878517,
30333200,0.5240106,0.714092,10.161719,0.39451867,-0.3203397,-0.008019436,18.53859,10.087229,-39.856743,
30333220,0.30033275,0.70421064,9.818567,0.43606395,-0.053624373,0.0931806,19.462433,9.873173,-40.29557,
30333240,0.23565482,0.3736346,9.865877,0.48226976,0.30723363,0.2106259,18.616781,9.781996,-40.625088,
30333260,-0.28536174,0.3526742,9.865279,0.42967236,0.33959103,0.34777862,20.696356,8.835666,-41.8779,
30333280,-0.44346333,-0.09797521,10.619256,0.31582233,-0.02326436,0.4742786,20.926426,8.775887,-41.17504,
30333300,-0.46412432,0.14756133,10.979476,0.24524863,-0.40609342,0.5312702,19.62127,7.276161,-41.57705,
30333320,0.12576225,0.53233504,11.638232,0.30596864,-0.46415028,0.48013756,20.774647,7.0818224,-40.927048,
30333340,0.5000558,-0.09557973,10.230588,0.24165335,-0.2678755,0.38492966,19.92994,7.0504518,-42.18582,
30333360,1.0324509,-0.54053986,9.159811,-0.19936574,0.05742935,0.37281227,20.161985,5.7342205,-41.700504,10.0
30333380,1.6139532,-0.927709,9.6685505,-0.73039955,0.37967157,0.1906522,20.547562,5.582225,-42.385597,
30333400,1.3211061,-1.3876408,11.337599,-1.0098982,0.50017947,-0.0064215437,20.236849,6.052211,-40.232063,
30333420,0.6833099,-1.8005615,13.008447,-0.9253428,0.27634102,-0.17526582,20.083063,6.7004776,-41.094604,
30333440,-0.49436724,-1.4394432,13.887587,-0.5688346,-0.02899015,-0.1882265,20.312624,6.575101,-39.849323,
30333460,-0.84111273,-1.2190591,13.1979885,-0.075928316,-0.211816,-0.07579683,21.083288,7.0012054,-41.69226,
30333480,-0.580305,-0.96064687,11.005527,0.3769418,-0.18052387,0.06468479,22.006535,6.7227106,-41.511307,
30333500,-0.14342964,-1.0190367,9.060398,0.44658342,-0.044036996,0.14391378,21.315042,6.774328,-42.302933,
30333520,0.17277353,-0.93369776,8.154608,0.1734765,-0.08078858,0.16615115,21.00744,5.4661407,-40.747784,
30333540,0.5338919,-0.86063564,8.421405,-0.15409203,-0.10502333,0.15762904,22.319056,4.4919233,-43.10273,
30333560,0.63989186,-0.8327882,9.219099,-0.26248258,0.06035883,0.09957218,21.93265,4.4378614,-41.4093,
30333580,0.49346817,-0.67019516,9.448765,-0.12865888,0.23186627,0.038852163,21.702671,4.930603,-42.73623,
30333600,0.21708986,-0.51718396,9.240358,0.09890807,0.23412997,0.033658996,22.93286,4.3770156,-41.53849,
30333620,0.15660402,-0.232122,8.395952,0.30410445,0.0949799,0.053499535,23.088173,3.9255416,-42.303215,
30333640,0.20002209,-0.002070527,7.818642,0.38852656,-0.050694894,0.047374263,23.319872,3.048063,-42.055153,
30333660,-0.015271539,0.2607477,7.6117325,0.36602288,-0.23645021,0.0027663563,23.474466,3.1850677,-42.90409,
30333680,-0.118875995,0.47963452,7.479981,0.29172075,-0.32313603,0.01794636,24.321812,2.0958138,-42.638252,
30333700,-0.06887037,0.7389451,7.889608,0.21235864,-0.21900654,0.06361953,23.09177,1.4172711,-42.42885,
30333720,0.029044809,0.847041,8.695687,0.16961493,-0.2349855,0.1210106,23.093098,0.82068634,-42.8862,
30333740,0.45394284,0.79703546,9.968285,0.15763073,-0.4317929,0.14151694,22.401653,1.5229044,-44.536552,
30333760,1.4229138,0.36075893,11.207645,0.3254097,-0.4279313,0.038852155,21.940641,1.6540446,-45.16861,
30333780,1.2528349,0.2882957,10.832753,0.6095688,-0.15375914,-0.13904685,21.480734,0.97443485,-45.79122,
30333800,0.4419654,0.68864006,9.807189,0.6919935,0.06648409,-0.22679792,21.48387,-1.3829522,-45.686462,
30333820,0.09102782,0.8108095,8.968772,0.5236819,0.1253399,-0.2053595,22.10034,-1.8227897,-46.130325,
30333840,0.19044018,0.84195065,9.360731,0.23938969,0.07860146,-0.1863179,21.410517,-2.8065104,-47.142067,
30333860,0.18175654,0.74792814,10.896532,0.06934699,0.001103546,-0.20855528,20.560883,-1.5420523,-45.55282,
30333880,0.2560164,0.5973124,12.255366,0.14711124,0.026803028,-0.24743742,22.484632,-2.5366263,-44.951775,
30333900,-0.22188157,0.99136865,12.563786,0.37028393,0.24544837,-0.22133845,22.639685,-2.9846258,-45.484406,
30333920,0.20211816,0.5994084,11.7259655,0.50770295,0.34145522,-0.08045736,21.94832,-2.7176852,-46.66542,11.0
30333940,1.2456484,-0.015331205,10.175195,0.3367281,-0.0110138245,-0.09403946,20.488476,-3.846591,-46.766052,
30333960,2.61167,-0.895969,9.270302,-0.20935255,-0.32886183,-0.30975533,21.949444,-3.6009822,-46.57779,
30333980,2.3275063,-1.6514429,10.512359,-0.6820633,-0.021133829,-0.6679502,22.410854,-3.0861535,-47.113953,
30334000,0.38986373,-1.5373583,11.906227,-0.6975096,0.4374621,-0.80097497,22.257393,-3.2382135,-47.270775,
30334020,-1.2474458,-1.0157429,12.0269,-0.40655947,0.7630333,-0.62560594,21.487108,-2.4391365,-47.29918,12.0
30334040,-1.7972081,-0.79356223,11.9400625,-0.04636726,0.48020583,-0.28205848,22.56341,-2.2707524,-46.96483,
30334060,-0.92914647,-0.374653,9.942832,0.14884229,-0.28758287,-0.027061023,22.637394,-1.4345145,-45.34765,14.0
30334080,0.3943553,-0.5453308,8.373494,-0.03158672,-0.6191461,0.043512687,20.333931,-2.3922071,-47.94747,
30334100,0.67762065,-0.39621225,7.658744,-0.35369578,-0.32939443,-0.0034920669,21.102167,-2.4403405,-46.999214,
30334120,0.25571695,-0.02521256,8.144128,-0.61348695,0.15916201,0.011687938,20.870956,-1.8588386,-47.321228,16.0
30334140,0.20361531,0.31045386,8.710659,-0.6845933,0.32414472,0.08931902,20.795,-1.4386253,-48.72087,
30334160,0.4740049,0.411064,9.475115,-0.5092243,0.3792721,0.10742849,21.103174,-1.8024793,-48.708984,26.0
30334180,0.19163793,0.55898476,9.91199,-0.14663519,0.23239891,0.07613637,20.409878,-2.3057532,-47.172752,
30334200,-0.031312693,0.68235195,9.526618,0.22673967,-0.01607383,0.08678901,22.562283,-0.4466691,-48.2241,
30334220,-0.1284579,0.87938,8.493269,0.39012447,-0.10116175,0.10050428,20.949352,-1.8773599,-48.63456,38.0
30334240,-0.15301156,1.0554476,7.9662633,0.3320676,-0.019402778,0.15190324,20.56518,-2.2505608,-48.562416,
30334260,0.06318039,1.2186396,8.125263,0.18386284,0.012421971,0.23273012,20.952808,-4.0942864,-48.995712,46.0
30334280,0.59317994,1.1596509,8.537286,0.04750909,0.023207763,0.2780038,21.87327,-2.960813,-48.057358,
30334300,0.9848408,1.2866113,9.192449,-0.014675668,0.030797763,0.24924172,21.642849,-2.896401,-48.450752,
30334320,1.3091286,1.1886961,9.844318,-0.033717256,-0.007818036,0.18612483,20.722292,-3.5220494,-49.93666,57.0
30334340,1.849908,0.7428377,11.405572,0.06481962,0.025071975,0.039784264,20.105513,-3.7293386,-48.401955,
30334360,1.3594338,0.17930143,12.622475,0.4389934,0.083395146,-0.10961895,19.952948,-4.038073,-49.175995,75.0
30334380,0.13025376,0.30745953,12.053248,0.78533727,-0.013810145,-0.09843368,20.491837,-4.1807857,-49.39308,
30334400,-0.5497626,0.495804,11.17351,0.95884204,-0.27466655,0.08865322,21.18252,-4.0768867,-48.061615,
30334420,-0.19283639,0.8260806,10.13028,0.90198356,-0.42873028,0.2547012,20.03373,-7.489437,-48.360207,83.0
30334440,0.33147395,0.8811766,9.656572,0.6825393,-0.21634336,0.3091628,19.653072,-8.560723,-50.60135,
30334460,0.01407307,1.6665943,10.463849,0.5682898,0.3335989,0.30596703,19.49593,-7.144141,-49.383545,
30334480,-0.15480818,1.3168542,10.446781,0.5246139,0.3822016,0.28625962,20.422403,-7.9721546,-51.44023,
30334500,-0.14013587,0.6311486,9.4305,0.2642902,-0.009948559,0.2669517,19.343868,-8.255517,-49.606606,
30334520,0.3925587,0.626657,9.189156,-0.24037838,-0.35109922,0.22234382,19.03776,-9.655941,-49.288475,95.0
30334540,1.2076204,0.04096255,10.176092,-0.620278,-0.14377229,0.03738743,18.963715,-9.261209,-52.390175,
30334560,0.6309088,-0.36447218,11.775972,-0.6180143,0.2630696,-0.13531841,18.57411,-6.59515,-51.19262,119.0
30334580,-0.7656552,-0.1734328,11.974198,-0.36821,0.36049682,-0.17566529,18.342476,-7.45531,-49.331245,
30334600,-1.5783213,0.24218273,11.130091,-0.13558307,0.057163034,-0.042107873,17.728405,-7.7710476,-50.11669,
30334620,-0.8246438,0.2718268,10.311438,-0.004156192,-0.36268392,0.16002586,18.419987,-7.3897038,-49.949142,147.0
30334640,0.40812927,0.14157264,9.247544,0.08852173,-0.3839892,0.16495273,17.42249,-7.4373064,-52.1401,
30334660,0.49975634,0.3577646,7.815049,-0.04663357,-0.033517517,0.0154163595,17.498625,-7.4257164,-51.44191,
30334680,0.26260394,0.433821,7.88901,-0.4178779,0.3887263,-0.11001842,16.4206,-7.209363,-50.697395,171.0
30334700,-0.47819775,0.27841437,9.644297,-0.5997717,0.54824954,-0.1496995,16.958632,-6.472254,-51.23423,
30334720,-0.76266086,0.32362902,10.072787,-0.39617315,0.108961485,-0.06527735,17.419186,-6.0183907,-50.918503,192.0
30334740,-0.10061048,0.3526742,9.053211,-0.18924572,-0.42340395,0.029131629,16.26516,-5.5983047,-51.261604,
30334760,0.3793408,0.34698492,7.6944194,-0.16940519,-0.47387078,-4.2943517E-4,16.573803,-5.2448025,-52.57351,
30334780,0.45933264,0.44250464,7.6934786,-0.25129732,0.058760945,-0.054491557,17.8806,-5.0694427,-52.001366,208.0
30334800,0.070366815,0.41615433,8.454641,-0.28911418,0.38952526,-0.08778105,17.498337,-5.9022427,-53.084587,
30334820,-0.101808205,0.523352,9.333482,-0.2013631,0.29924417,-0.072867356,16.649345,-5.2976503,-51.255524,
30334840,-0.3638137,0.6170751,10.468941,0.029799087,-0.0984986,-0.0711363,17.494331,-4.9081807,-50.697342,
30334860,-0.079650044,0.50328994,10.301855,0.4653587,-0.4280645,-0.051295765,16.881395,-6.179762,-51.316917,
30334880,0.039824467,0.6494141,8.665444,0.76696146,-0.468145,-0.085117884,15.573811,-5.4039125,-52.364395,
30334900,0.3401576,0.7889507,7.474292,0.6774793,-0.38185868,-0.11840737,14.4981165,-6.955308,-51.52198,
30334920,0.35183555,0.74164003,7.776422,0.33699447,-0.21407968,-0.17726319,15.574978,-7.445634,-50.87046,223.0
30334940,0.0529996,0.5556909,9.34037,0.07254278,-0.046700153,-0.20322898,15.1886635,-6.125946,-50.972733,
30334960,-0.24403974,0.23918839,10.236279,0.0325954,0.0775362,-0.18791582,14.266653,-6.876999,-50.98697,
30334980,-0.38866675,0.19606978,10.330002,-0.0076182988,0.027335659,-0.14051159,15.497322,-7.2198973,-50.48809,
30335000,-0.09222629,-0.049466774,10.984266,-0.10309255,-0.091041744,-0.08458526,14.343507,-7.453886,-50.20456,
30335020,-0.31171203,0.30356687,11.894548,-0.082852535,-0.1582865,-0.040509973,14.957992,-6.564727,-50.5091,
30335040,-0.35782498,0.9380692,12.391012,0.031396978,-0.13525018,0.11009166,14.499645,-7.6993027,-51.977623,
30335060,1.3669195,0.40567416,11.86161,0.13059965,0.021077234,0.24178487,13.804837,-7.0970097,-50.45424,
30335080,2.619156,-0.23541582,10.546793,0.028733812,0.24518205,0.057094797,15.035431,-6.570509,-50.971405,
30335100,2.4029639,-0.6423477,10.200945,-0.31920788,0.34558314,-0.27273738,14.573132,-6.060422,-50.911423,
30335120,1.186061,-0.91333616,11.154645,-0.5465085,0.3257426,-0.50962543,14.572462,-6.196249,-50.136047,
30335140,0.0796493,-0.69534767,11.984977,-0.5046969,0.21162625,-0.5009702,15.187148,-5.4544983,-50.438873,
30335160,-0.22697194,-0.4932292,11.866102,-0.22772838,0.1554336,-0.35156688,14.030653,-3.9161072,-49.94378,
30335180,-0.112587854,-0.2656587,10.277601,-0.042239364,0.14757729,-0.22506687,15.492582,-4.6240244,-49.43492,
30335200,0.27847403,0.014013408,9.052613,-0.14490414,0.19431572,-0.1600858,15.108192,-4.77727,-49.44271,
30335220,0.45783544,-0.028206896,8.940325,-0.33252367,0.1873915,-0.13412,16.182453,-3.4238229,-48.73523,
30335240,0.694389,0.28200758,9.230477,-0.41534787,0.026536709,-0.1451721,16.722433,-4.3047385,-49.02112,
30335260,0.6473777,0.38710922,9.505059,-0.37833,-0.07306543,-0.20549266,15.642681,-2.7628617,-48.369392,
30335280,-0.3398589,0.5730582,9.831143,-0.26328152,-0.079856485,-0.19151106,15.720346,-3.495267,-48.12684,201.0
30335300,-0.58740586,0.5618935,9.922898,-0.03318462,0.014286181,-0.008019438,15.564524,-2.1686025,-47.991302,
30335320,-0.36680797,0.7176852,9.384088,0.18226492,0.070745155,0.13139692,13.644507,-3.032856,-49.654076,183.0
30335340,0.1527114,0.83656085,8.588787,0.29025602,0.039186712,0.13978589,14.6434765,-2.4982748,-49.403282,
30335360,0.009282116,0.9198038,8.272884,0.3405897,-0.07399753,0.09744164,15.258782,-3.2120848,-48.451126,
30335380,-0.17277426,1.4965153,7.8060656,0.31289285,-0.22819442,0.10516481,14.9495325,-3.123361,-47.14434,
30335400,0.031440295,1.738758,7.6925797,0.19291757,-0.07293226,0.16308852,14.950718,-3.4286017,-47.837227,
30335420,0.40932703,1.7923567,8.129155,0.082662776,0.12254359,0.2188817,14.25856,-3.0786915,-48.40016,161.0
30335440,1.2705016,1.685758,8.520517,0.0021022307,0.17354308,0.17707011,14.720384,-3.3653474,-48.307976,
30335460,1.6346142,1.4788485,9.12328,-0.075129375,0.091917254,0.006095303,15.02649,-3.3398314,-46.907776,
30335480,0.9153718,1.3123629,10.126686,-0.025328305,-0.09010965,-0.13864738,14.2588625,-3.2998052,-48.3976,149.0
30335500,0.056293372,1.2410972,10.480618,0.123275965,-0.23405336,-0.11454579,14.412351,-3.2928386,-48.084328,
30335520,0.016767982,1.0479617,10.755797,0.28572863,-0.1212686,-0.0086852275,14.564795,-3.2719731,-46.84266,136.0
30335540,-0.09372346,0.6545045,11.028584,0.43007183,0.0347925,0.07866638,13.951708,-3.745544,-48.322693,
30335560,-0.19792676,0.6377362,10.602188,0.45457292,-0.026859622,0.1653522,14.950612,-3.7890177,-47.291374,
30335580,-0.061384503,0.7617021,10.062607,0.2845302,-0.11647492,0.20982696,13.488734,-3.8054056,-46.940636,126.0
30335600,-0.39735037,1.4024928,10.704595,0.12540647,-0.047632262,0.26908225,13.950916,-4.603361,-46.53299,
30335620,0.29733843,0.97430104,11.16303,0.07773594,-0.039642785,0.3176849,13.027126,-3.7387047,-46.952896,117.0
30335640,1.3453603,0.059826933,10.794724,-0.02053462,0.03359408,0.16894747,13.335013,-3.953991,-46.865356,
30335660,0.9159706,0.036770444,10.63782,-0.26168367,0.08712357,-0.03624892,14.102404,-3.194849,-46.158623,
30335680,0.20002209,-0.15337065,11.434018,-0.47926372,0.10456727,-0.12626368,14.4111,-3.565652,-46.61094,98.0
30335700,-0.101808205,-0.35968128,11.8544235,-0.5089579,0.12573938,-0.106423154,14.179293,-3.0485892,-46.313156,
30335720,-0.29434478,-0.3944157,11.527442,-0.4366532,0.11948096,-0.06381261,14.332713,-2.6788902,-46.391006,35.0
30335740,-0.30602276,-0.61899185,11.205549,-0.4254679,0.08912094,-0.025596283,14.175925,-0.8328204,-46.029373,
30335760,-0.8360224,-0.4971218,11.610984,-0.37353632,-0.091041744,0.0048968834,14.176387,-0.9837036,-46.259766,
30335780,-0.835723,-0.30997506,11.044454,-0.19270782,-0.3140813,0.07200848,12.715032,-1.007041,-46.373222,15.0
30335800,-0.46502262,-0.46538174,10.210528,-0.07992306,-0.32047287,0.1317964,13.022368,-1.0702858,-45.97793,
30335820,-0.08204551,-0.39741,9.757483,-0.04516884,-0.27333495,0.17427379,13.713016,-0.31462765,-45.42784,
30335840,0.24014635,-0.35459086,9.145139,0.0067627584,-0.13631545,0.17760274,12.253065,-0.4290409,-46.700935,
30335860,0.047053676,-0.08864997,8.5297575,0.014885393,0.0674162,0.16348799,12.253623,-1.087749,-46.383774,
30335880,0.08024816,0.073002055,8.413918,-0.027725147,0.20576729,0.19065222,14.252796,-1.0481343,-45.71544,14.0
30335900,0.083242506,0.17271386,9.012489,0.04710961,0.20123991,0.20796274,13.408653,-2.679,-45.48542,
30335920,0.33686382,0.48801872,8.738506,0.21289125,-0.045368575,0.24498066,12.944718,-0.41042805,-46.142273,
30335940,0.92675036,0.5730582,8.363614,0.31062916,-0.21794125,0.14311484,13.101214,-2.5420508,-45.881554,
30335960,0.72942287,0.57066274,7.8174443,0.32660812,-0.12805966,-0.0014946978,13.023505,-2.0261278,-45.81208,
30335980,0.15540633,0.7206795,7.9581785,0.26229283,0.041716717,-0.036515236,13.86952,-1.5780096,-46.260513,
30336000,-0.11707938,0.7407417,8.578009,0.24897707,0.114287786,0.017147413,12.717105,-2.3371973,-46.58992,
30336020,0.12875661,0.47963452,9.210415,0.36016393,-0.053491205,0.083060585,12.796009,-3.6650276,-46.72734,
30336040,0.72313476,0.038866494,8.664845,0.43979236,-0.3584229,0.038319524,12.485146,-2.3970313,-45.434265,
30336060,0.9468125,0.19726752,7.794388,0.33912498,-0.3324571,-0.09830052,11.9486475,-2.5032282,-47.071404,
30336080,0.50634396,0.20295677,7.777919,0.03898698,0.008294072,-0.16727632,11.331771,-2.2026925,-46.08426,
30336100,-0.13654265,-0.0075459015,9.214308,-0.2108173,0.28100154,-0.13025843,11.641895,-3.2437844,-46.993073,
30336120,-0.75427663,-0.012037424,10.459358,-0.30935422,0.21322416,0.0150168855,11.715233,-1.7476802,-45.615692,13.0
30336140,-0.032339342,-0.28931406,11.407368,-0.22932626,-0.02938962,0.20929432,13.103471,-3.0062819,-47.346382,
30336160,0.83482385,-0.3345287,11.420244,-0.107087284,-0.30063233,0.19597852,12.0241375,-1.8317709,-46.613,
30336180,0.7159483,0.0819851,11.634639,-0.09816569,-0.37213814,0.15057167,11.562537,-2.2717366,-46.000336,
30336200,0.9378295,0.63593954,11.994861,-0.0073519843,-0.19224179,0.17094484,12.101747,-2.2739892,-46.683334,
30336220,1.7448064,0.07060658,10.587815,0.056696985,0.089254096,0.04697479,11.563322,-2.2821608,-46.69664,14.0
30336240,1.5708346,0.050544452,9.127771,-0.22613049,0.29658103,-0.18405423,11.487093,-2.7267127,-46.770767,
30336260,1.2528349,-0.45520097,9.65328,-0.7137549,0.25623417,-0.38152745,11.254051,-1.1801033,-46.6397,
30336280,0.5901856,-0.7199013,11.668476,-0.9158886,0.15436833,-0.46408534,12.48539,-1.3871727,-46.916206,16.0
30336300,0.13025376,-0.7755962,12.728775,-0.68978643,0.10256989,-0.42866534,12.176335,-0.50507116,-46.77935,
30336320,-0.17846352,-0.7767939,12.298786,-0.29390785,0.24677995,-0.28125954,11.561036,-0.29792786,-47.106583,
30336340,0.25481868,-0.77978826,10.942945,-0.055022523,0.294051,-0.13638368,12.175758,-0.20793724,-46.628044,
30336360,0.59078455,-0.6046189,9.780539,-0.10508991,0.23692626,-0.12653,12.791116,-0.27114534,-46.53463,
30336380,0.60785234,-0.33991852,9.883246,-0.23957941,0.20283782,-0.16208316,12.63789,-0.28158617,-47.079987,15.0
30336400,0.36667895,-0.016443402,10.184347,-0.23891363,0.12773675,-0.18551897,11.636973,0.2951913,-46.956795,
30336420,0.28446272,0.20804717,9.936844,-0.14889887,0.11708411,-0.17406738,12.5588875,0.17916203,-45.77179,14.0
30336440,0.64947367,0.0059286635,9.468828,-0.042771995,0.22653994,-0.18991317,12.173035,1.3479657,-46.104446,
30336460,0.20331585,0.32332957,9.235268,0.054033823,0.29138786,-0.25276375,11.48302,0.00498724,-46.492973,
30336480,-0.109593496,0.6030017,8.878342,0.16375598,0.09910779,-0.2727374,13.250183,0.709074,-45.528587,
30336500,-0.055395804,0.7248717,8.350438,0.26535547,0.037721977,-0.27473477,12.481155,1.2742977,-46.405464,
30336520,-0.43717518,0.9362726,7.8057666,0.27441025,0.0088267075,-0.23212424,13.176187,-0.054617405,-47.22399,
30336540,-0.71385294,1.163843,7.270377,0.13925491,0.08073199,-0.07925893,13.328388,0.331295,-46.218704,
30336560,-0.49346897,1.2443911,7.960874,-0.010547774,0.14864255,0.07587006,14.636741,-0.3824315,-45.94574,
30336580,0.045214284,1.139589,9.01219,-0.03744568,0.02773513,0.15616432,13.251122,0.33476114,-45.91114,
30336600,0.75128156,1.0539505,9.478409,0.039120138,-0.056287527,0.12061113,12.867453,-0.40696287,-45.83471,
30336620,0.74948496,1.0659279,10.00272,0.14165175,-0.10715386,0.038186368,12.330267,-1.0105605,-46.227997,
30336640,1.0087956,0.79763424,10.11351,0.33033657,0.010957232,-2.9627653E-4,13.329946,-0.55779123,-46.5179,
30336660,0.54167724,0.97370195,9.912889,0.41422606,0.07420725,-0.07233472,13.252606,-0.6257138,-46.05474,
30336680,0.07635552,0.888363,9.94972,0.36309338,-0.041640155,-0.042374182,12.792091,-1.2972178,-46.135796,
30336700,0.17397127,0.58922774,10.338086,0.29465023,-0.22366706,-0.026395231,12.022276,-1.1556911,-45.769684,
30336720,-0.21888721,0.47903568,10.961511,0.27986968,-0.2544265,0.02247373,12.714833,-1.8004189,-45.20331,
30336740,-0.43537858,0.64073044,11.329216,0.33113548,-0.1801244,0.1359243,11.4829,-1.6577883,-44.307022,
30336760,-0.6578586,0.94974715,11.47025,0.42150536,0.0661734,0.24000943,11.563087,-2.423779,-46.30809,
30336780,-0.45783618,1.2689447,11.2843,0.49145764,0.18699205,0.3227449,12.332185,-3.3517332,-45.0401,
30336800,0.6488749,0.5008943,10.179386,0.36309338,-0.05748595,0.31209227,12.333129,-3.2919269,-45.96936,
30336820,1.521428,-0.045873556,9.41972,-0.065941475,-0.2111502,0.064551644,11.254179,-2.773807,-44.764076,
30336840,0.67312914,-0.7681103,9.981759,-0.5465085,-0.068538055,-0.27300373,11.563444,-2.9350781,-45.992622,
30336860,-0.7183445,-0.8118278,11.339994,-0.7961796,0.11508675,-0.3421127,12.638484,-1.5920539,-45.981445,
30336880,-1.7043834,-0.627376,12.355679,-0.7174833,0.20017467,-0.17619792,12.945872,-2.3796048,-44.726562,
30336900,-1.8382306,-0.5803647,12.491622,-0.37766418,0.12600571,0.121942714,13.021106,-1.2705522,-44.58277,
30336920,-0.81955343,-0.4668789,11.560978,-0.045301996,-0.14190808,0.35896385,13.330087,-2.224042,-44.56404,15.0
30336940,0.20271699,-0.4854439,10.522538,0.13139859,-0.34018022,0.37321174,11.792605,-2.765636,-44.75078,
30336960,0.41766843,-0.39321798,9.332927,0.20623337,-0.38252446,0.25416857,13.407225,-2.0087109,-45.028915,
30336980,0.12067186,-0.03988486,8.142331,0.07973331,-0.30422762,0.14977272,11.638175,-2.8324099,-44.13479,16.0
30337000,0.021858376,0.12899637,7.869846,-0.1956373,-0.13032334,0.115151644,12.17688,-2.4661398,-44.822067,
30337020,-0.004192453,-0.07491875,8.680416,-0.3923116,0.017748287,0.113820076,10.6382265,-2.7750382,-44.23771,21.0
30337040,0.12306735,-0.071325526,9.565245,-0.35036683,-0.02832436,0.111023754,11.8670845,-1.791254,-43.754242,
30337060,0.47580153,-0.0033538155,9.49428,-0.119204655,0.0078946,0.04098268,11.866411,-0.9862952,-44.15049,
30337080,0.25152487,0.07060659,8.746291,0.10916121,0.16755098,-0.027061021,12.253065,-3.178855,-43.264275,30.0
30337100,0.02395442,0.21313755,8.221981,0.1646881,0.16981466,-0.051961556,12.328074,-1.3431816,-43.825348,
30337120,-0.010780014,0.2781149,8.362716,0.15709808,0.093781464,-0.055556823,12.023369,-3.2688007,-44.120155,39.0
30337140,-0.13115281,0.5338322,8.662749,0.19637968,0.021609869,-0.017739967,12.024142,-4.1474643,-43.723045,
30337160,-0.013774361,0.6194706,9.005003,0.3178197,-0.019802252,0.008625305,12.10042,-4.427218,-42.78932,
30337180,-0.21858776,0.6311486,9.243952,0.52075243,0.03758882,0.028598996,11.792125,-4.351234,-42.33358,48.0
30337200,-0.4509492,0.89674723,8.680415,0.63846403,-0.054290157,0.08985165,11.5616045,-4.213117,-42.72782,
30337220,0.096417636,1.0293968,8.017467,0.52794296,-0.2095523,0.14657693,11.71669,-5.3128767,-42.479088,54.0
30337240,0.9845413,0.7449338,8.098314,0.22021493,-0.23112391,0.07147585,11.026693,-6.29428,-43.336082,
30337260,1.0183774,0.29308668,9.392172,-0.089909896,-0.15016387,-0.108953156,10.56621,-6.676756,-43.807404,
30337280,0.16349104,0.07120545,11.0225935,-0.16274728,0.052103035,-0.20868844,10.486711,-6.788271,-41.331863,63.0
30337300,-0.50215256,-0.16744408,12.142779,0.034193296,0.29711366,-0.1658116,11.10352,-6.726074,-42.710114,
30337320,-0.78212416,-0.40130267,12.082594,0.26881757,0.3200168,-0.03638208,10.180095,-6.879385,-42.189636,83.0
30337340,-0.5949774,-0.27074912,12.243389,0.36455813,0.035325132,0.11848061,10.1795,-6.943824,-41.569847,
30337360,0.12097129,0.4293295,12.329927,0.49332184,-0.2789276,0.26215804,9.028208,-8.586308,-41.811615,
30337380,1.7448063,0.68175304,10.98247,0.59731823,-0.25029865,0.33965597,8.797403,-9.240412,-40.958572,94.0
30337400,3.417449,0.09605855,8.710659,0.33126864,0.1294678,0.08266112,8.567234,-10.047714,-40.490654,
30337420,2.9003253,-0.27613893,8.520218,-0.29923418,0.4631616,-0.47780064,8.72054,-9.531764,-40.647583,102.0
30337440,0.9614848,-0.8525509,10.248555,-0.829336,0.34864578,-0.80670077,8.334566,-8.65083,-40.51262,
30337460,-0.82763815,-0.8759068,12.426046,-0.8397223,-0.087712795,-0.6940492,9.254281,-6.783785,-39.814922,
30337480,-1.2004344,-0.44741565,12.769795,-0.4559611,-0.5515019,-0.31561425,8.409292,-7.607375,-39.826405,128.0
30337500,-0.2903666,-0.43051893,10.8105955,-0.05595462,-0.3545613,0.031528473,6.2558336,-7.5709877,-40.18992,
30337520,0.5338919,-0.22224066,9.149631,-0.019203039,0.14251727,0.2156859,6.6418943,-8.45308,-40.402252,152.0
30337540,1.362428,-0.2225401,8.459433,-0.31468052,0.22494204,0.1444464,6.4870043,-7.9348497,-40.102573,
30337560,1.293558,-0.18511076,8.900501,-0.60869324,0.083395146,-0.037846815,6.3322296,-7.562871,-39.72382,
30337580,0.5479653,0.14756133,9.797307,-0.60749483,0.0041661793,-0.13718264,6.7135744,-5.9941835,-38.72653,169.0
30337600,-0.19074035,0.5425159,9.894025,-0.33425474,-0.010880668,-0.018006282,5.484292,-7.4788437,-38.19824,
30337620,0.23924805,0.785657,9.39337,-0.027725147,0.094447255,0.1320627,7.3302565,-5.71319,-40.26209,182.0
30337640,0.70906126,0.8551258,8.664246,0.15803018,0.21921626,0.11355376,5.7903204,-6.58393,-37.814075,
30337660,0.7593663,1.0195155,8.011478,0.16282389,0.21948257,0.04764058,6.6360235,-5.408032,-38.89001,
30337680,0.61593705,1.2680464,7.905478,0.101304896,0.11561938,-0.014144701,5.712615,-5.633888,-38.291306,
30337700,0.87494814,1.4144702,8.090229,0.042049613,0.033860397,-0.0695384,4.712365,-5.355403,-38.396797,
30337720,0.70007825,1.4228542,9.053211,0.03126382,-0.065209106,-0.13824789,5.171525,-5.3171287,-36.296497,193.0
30337740,0.6030613,1.2476848,9.5757265,0.10916122,-0.1380465,-0.12586421,4.4021378,-4.2406054,-37.488834,
30337760,0.7153494,1.1536623,9.804194,0.22247863,0.07979989,-0.10682263,4.557811,-6.144165,-36.76648,
30337780,0.45753607,1.3195492,9.61615,0.29052234,0.24611416,-0.02186786,4.7863894,-4.7368035,-36.544945,
30337800,0.55575067,1.3620689,9.691907,0.23832445,0.15956149,0.023139521,5.787552,-5.2445087,-36.978455,
30337820,0.5572478,1.1779165,10.256939,0.1845286,-0.099031225,-0.006687857,4.2466545,-3.7868152,-36.56937,
30337840,0.35902196,0.9389676,11.465757,0.26362443,-0.22806126,-0.037580498,3.6316986,-4.0184255,-36.659367,
30337860,-0.06497772,0.5967136,12.208656,0.5006899,-0.29548356,-0.024353476,4.2462893,-4.1437564,-35.791428,
30337880,-0.39884752,0.7125948,11.650509,0.7055756,-0.3704071,0.040849525,4.861143,-3.8384423,-35.702282,
30337900,-0.6461806,1.0671257,10.887549,0.76283354,-0.36055344,0.16801536,3.1680355,-3.634902,-35.20508,
30337920,-0.534192,1.5016055,10.073685,0.70451033,-0.24417336,0.32088068,3.3206205,-3.9053812,-33.727886,
30337940,0.9360329,0.90183777,8.912178,0.37720817,-0.27120444,0.40303913,3.7819643,-3.0278206,-34.65516,
30337960,2.8814611,-0.12881699,8.9651785,-0.18924573,-0.17599651,0.17813535,3.01402,-4.069041,-34.50744,
30337980,2.2041392,-0.93429667,10.647702,-0.667549,0.080066204,-0.3501022,3.7794704,-1.7644196,-33.97341,
30338000,-0.38866675,-0.6414494,12.09547,-0.79538065,0.1554336,-0.6337286,3.5492887,-2.499176,-33.58372,
30338020,-2.135869,-0.28063047,12.518571,-0.6325285,0.047442507,-0.43226063,4.776882,-0.34075165,-33.42342,208.0
30338040,-2.0550213,-0.22822937,11.800226,-0.37220475,-0.0826528,-0.0040246993,5.6210566,0.20423317,-32.325375,
30338060,-0.5980144,-0.5242848,10.5580435,-0.24610417,-0.11287965,0.2834633,5.0824766,0.5599537,-32.652424,
30338080,0.11138939,-0.5028111,10.074583,-0.2999,-2.2803433E-4,0.28399593,4.6188345,1.7391706,-32.213318,
30338100,0.08833291,-0.43992978,10.289877,-0.31761,-0.00169277,0.20197064,5.310461,1.9028757,-31.811096,
30338120,-0.021559674,-0.19349492,10.017691,-0.25409365,-0.09503649,0.16974643,4.849244,2.1814253,-32.44485,191.0
30338140,0.39555302,-0.1890034,10.021285,-0.18445204,-0.07333174,0.18412746,6.0807476,2.4787061,-33.501015,
30338160,0.78781265,-0.3635739,10.046737,-0.018537253,0.065418825,0.1476422,5.309765,3.287048,-32.910496,
30338180,0.5868919,-0.15995821,9.712867,0.15097281,0.13026676,0.08479164,5.462758,3.1558714,-31.976582,174.0
30338200,0.36021972,0.028086847,8.970568,0.28319865,0.10922779,0.067880586,6.0032215,2.4856458,-32.96135,
30338220,0.15510687,0.26973075,8.176766,0.30450392,0.08352831,0.07693532,7.232422,3.0306776,-32.240646,
30338240,0.19373396,0.3889058,7.810258,0.23885708,0.027735133,0.092914276,6.691474,4.4309998,-31.728642,162.0
30338260,0.25931016,0.6098887,7.92584,0.15882915,-0.0256612,0.0807969,6.233491,1.844337,-31.710083,
30338280,0.43567726,0.7098999,7.9878225,0.12514016,-0.09130807,0.04657532,6.694372,2.872781,-32.406967,
30338300,0.68450755,0.8126061,8.417212,0.18239811,9.7038597E-4,-0.038512602,7.462989,3.1090422,-32.158436,
30338320,0.029044807,1.0650294,8.798992,0.2818671,-0.0083506685,-0.10282789,8.08021,2.3697534,-32.908344,
30338340,-0.26769507,1.2192385,9.015783,0.40543765,-0.11767334,-0.03118892,8.38704,2.2409115,-31.97063,144.0
30338360,-0.05868959,1.3725492,8.62472,0.54631877,-0.123265974,0.053100053,9.08068,2.3054328,-33.269627,
30338380,0.30871692,1.5099899,7.7892976,0.45763552,-0.15549019,0.045909528,8.694757,2.4620616,-32.27507,
30338400,1.1525242,1.1752216,8.622325,0.13086596,-0.22952601,-0.06421209,8.30922,3.3372052,-32.526943,
30338420,1.0528125,0.7146909,10.2249,-0.0772599,-0.22166967,-0.29750478,8.23162,3.2727568,-31.83168,
30338440,0.0341352,0.72756654,11.528639,-0.03411673,-0.058418058,-0.41188744,9.465439,1.8748329,-32.868156,125.0
30338460,-0.73211855,0.624561,11.750521,0.19198546,0.16542044,-0.32067424,9.386489,2.9861827,-32.418697,
30338480,-0.1910398,0.11911504,11.504685,0.28639442,0.11189095,-0.12453263,9.307663,3.444615,-31.265232,113.0
30338500,0.5135304,0.08408116,11.834961,0.22780493,-0.11993702,-0.07646263,8.926972,2.0843015,-33.116127,
30338520,0.38058126,0.9518432,12.61409,0.31901813,-0.18318704,-0.0610163,9.773377,2.3101485,-33.639362,
30338540,0.83302724,1.4734588,11.285499,0.5805403,0.04384724,0.017813204,10.083255,1.1999846,-34.237854,106.0
30338560,1.8573937,0.97130644,8.398947,0.46455973,0.39072368,-0.1322558,10.234565,2.1766915,-33.162052,
30338580,1.5804166,0.24637482,6.92423,-0.22120364,0.45197633,-0.5491733,11.0032835,2.339248,-32.91267,
30338600,0.14047731,-0.5280492,8.244012,-1.1382623,0.14810991,-0.8596977,9.69623,2.6014826,-33.79942,
30338620,-1.3744061,-0.6306697,11.611584,-1.4699588,-0.0074185617,-0.7346623,9.926821,3.4755414,-34.73239,
30338640,-2.091852,-0.41058514,13.814824,-0.9636923,0.14344938,-0.31721216,10.539911,4.383232,-33.799065,84.0
30338660,-1.4235135,-0.42675465,13.327943,-0.113345705,0.3399905,0.1853259,10.07833,4.3048396,-33.654873,
30338680,0.25242317,0.020900398,10.6261425,0.35670185,0.19151941,0.35363758,12.463957,3.674211,-33.820377,58.0
30338700,1.4606427,0.064917326,7.9354215,0.16934861,-0.15522388,0.13592431,11.694109,3.5267103,-33.064003,
30338720,1.1671965,0.020301538,7.3626027,-0.36541367,-0.2506981,-0.1591537,10.926191,3.7153044,-34.478165,
30338740,-0.16678554,0.2772166,8.670834,-0.6754053,-0.13285334,-0.2126832,12.002106,4.10596,-34.06901,38.0
30338760,-0.93633294,0.452386,9.519731,-0.6134869,0.1956473,-0.0341184,12.001322,4.116383,-33.37271,
30338780,-0.8327286,0.4311261,10.365934,-0.28125787,0.42374682,0.19517958,11.771493,3.811114,-33.839188,24.0
30338800,-0.18594936,0.34039733,10.159024,0.08186384,0.2996437,0.31781808,11.925947,3.298675,-33.75203,
30338820,0.31081295,0.45298487,9.378996,0.29105496,5.709138E-4,0.26122594,11.07956,3.434402,-33.697277,
30338840,0.057790555,0.8003292,8.591483,0.32807285,-0.22912653,0.17067853,11.3887205,2.9127162,-34.379982,16.0
30338860,-0.35542947,1.0506566,7.8863134,0.22327758,-0.22699599,0.20796272,12.38967,3.0590863,-35.440132,
30338880,-0.30183068,1.2384025,7.786602,0.04564488,-0.01727225,0.34658018,14.002546,3.405055,-33.62422,13.0
30338900,0.20840627,1.2713403,8.6609535,-0.016273566,0.13759044,0.46349284,12.62123,2.4729521,-35.427586,
30338920,0.35303327,1.4911253,9.696398,0.097975954,0.011356704,0.524346,14.008341,1.6635246,-36.6992,
30338940,0.8833324,1.5465208,10.332397,0.39105654,-0.1684065,0.55297494,12.931209,1.289083,-36.02522,12.0
30338960,1.4666313,1.5719728,9.664658,0.5686893,-0.30933198,0.4997562,12.854846,1.5699949,-36.881577,
30338980,1.9963316,1.7186959,8.685207,0.503575,-0.3016976,0.42128175,12.855341,0.33323193,-35.783897,
30339000,2.1032298,1.6474303,8.751381,0.24032179,-0.022864886,0.28412908,13.010147,0.25028038,-36.552902,
30339020,1.2297785,1.6612043,10.238075,0.011423285,0.28153417,0.15243588,13.626973,0.67405033,-38.39964,
30339040,0.097914815,1.3363175,12.626068,0.11861543,0.36076313,0.16095798,13.702171,1.0599542,-37.318893,
30339060,-0.3416555,1.0123291,13.217153,0.613963,0.03545829,0.30863014,13.164674,-0.19077063,-36.621338,
30339080,0.056293383,1.242295,11.266633,0.9698941,-0.5449772,0.4569681,12.858421,-0.3590622,-37.710358,
30339100,0.64168847,2.2034807,9.582912,0.9063778,-0.5686793,0.5364634,13.013991,-2.1889176,-36.988853,
30339120,1.8753599,1.9663283,8.516624,0.6292761,-0.06614121,0.47720808,12.62909,-1.4669743,-37.62585,
30339140,2.0163937,1.2440917,7.611134,0.094913326,0.47594476,0.18039905,12.631059,-3.1575456,-37.296696,
30339160,0.98231703,0.47189203,8.896606,-0.600837,0.6414601,-0.14930001,12.938072,-2.4204636,-37.607117,
30339180,-0.2503279,-0.30458522,10.915696,-1.0314696,0.24651363,-0.296839,12.708209,-3.01476,-37.68334,11.0
30339200,-0.8087738,-0.46987328,12.965327,-0.9734129,-0.1339186,-0.17007264,12.935893,-1.4507236,-36.84458,
30339220,-0.76864946,-0.47526306,13.1057625,-0.50922424,-0.15402545,0.00436425,13.707372,-2.120922,-38.055744,
30339240,-0.4656215,-0.2336192,11.765193,-0.085116215,0.07766937,0.16388746,13.630659,-1.8353777,-38.60264,
30339260,-0.03233933,0.05623371,10.271612,-0.018936723,0.17261098,0.20663117,13.554396,-3.003078,-37.739807,
30339280,0.42160386,0.21493416,9.976369,-0.11321254,0.15743098,0.15363431,12.554948,-2.3734422,-39.010075,
30339300,0.72493136,0.26224488,9.714364,-0.12679464,0.019745655,-0.0038915407,13.244997,-1.6822243,-37.84018,
30339320,0.39016318,0.47514302,8.71485,-0.15209465,-0.03871068,-0.17739634,13.630733,-1.7639904,-38.758224,
30339340,-0.040124625,0.4550809,8.149518,-0.28658417,-6.2750664E-4,-0.28139266,14.244997,-2.4639015,-36.877674,12.0
30339360,-0.48658198,0.20954433,8.732816,-0.3999016,-0.101561226,-0.29098004,13.092361,-2.062346,-38.458633,
30339380,-0.6809151,0.16253307,9.886539,-0.3026963,-0.24856758,-0.2246674,13.398957,-0.95790005,-38.850708,
30339400,-0.42909044,0.15145399,9.717957,0.0250054,-0.28771603,-0.13385369,12.474202,-0.9487448,-37.32617,
30339420,-0.03742972,0.21762908,8.41871,0.2539039,-0.048697524,-0.11108369,13.168754,-1.1134434,-39.164158,
30339440,-0.14642398,0.23739177,7.54436,0.17707178,0.14637886,-0.09230842,12.4769945,-1.4924712,-39.176983,10.0
30339460,-0.17427143,0.55000174,8.486082,0.058294877,0.17846993,-0.04210787,13.40068,-2.7175436,-38.21123,
30339480,-0.24553692,0.77457786,9.337076,0.17946862,-0.018337516,0.0010353043,13.709862,-2.4435353,-39.909126,
30339500,-0.040124632,0.97430086,9.062794,0.40037763,-0.26534548,0.06401901,13.091877,-1.3322492,-38.931393,
30339520,0.23655313,1.1824081,8.005789,0.496784,-0.27613127,0.0681469,14.092644,-2.0518036,-38.7434,
30339540,0.5207168,1.2033684,7.427281,0.33286655,-0.1684065,0.036189,13.018378,-4.273492,-38.35749,
30339560,0.7282251,0.94016534,8.324088,0.026869608,-0.15296018,-0.04796682,13.095244,-3.5480185,-39.21518,
30339580,0.5180218,0.7922445,9.8239565,-0.1469015,-0.2203381,-0.14011212,12.021051,-4.3234105,-40.70318,
30339600,0.26709554,0.51886046,10.869584,-0.09070885,-0.16960493,-0.17060529,11.404345,-4.4593115,-39.324066,
30339620,0.10360409,0.42813176,11.080087,0.08745647,-0.0449691,-0.16993947,11.709324,-2.6097126,-39.183136,
30339640,0.03383577,0.36584932,11.0094185,0.18053387,0.09671095,-0.16181685,12.0188,-3.4250584,-39.785053,
30339660,0.22337802,-0.045274686,10.977079,0.11821596,0.06967988,-0.14770211,13.634592,-4.275735,-39.115955,
30339680,-0.22876856,0.51406956,11.588526,-0.046367265,-0.018603828,-0.1363837,12.097705,-4.752889,-39.92248,
30339700,-0.12713183,0.7747489,12.19792,-0.021599885,0.03678987,0.015016886,12.8665695,-4.447556,-39.984272,
30339720,0.9522023,0.5281429,11.320832,0.058827516,0.1744752,0.10702902,13.252299,-4.9634414,-40.355614,
30339740,2.1939585,0.21104151,10.3836,-0.116008855,0.3071005,0.005030038,13.558411,-4.503806,-39.502117,
30339760,2.7565966,-0.33931968,10.702499,-0.39151263,0.28765944,-0.2823248,12.865462,-3.6368065,-39.99369,
30339780,2.0163937,-0.58605397,11.402877,-0.45649374,0.21602046,-0.5511707,12.401234,-3.0286946,-38.309868,
30339800,1.0162814,-0.8061385,11.534328,-0.3544947,0.103635155,-0.63213074,14.327036,-3.3993044,-40.346992,
30339820,0.35932145,-0.62348324,11.259148,-0.20602363,0.0632883,-0.5498391,14.094318,-2.6530213,-39.510223,
30339840,0.5225134,-0.32195246,10.326109,-0.054756213,0.12001358,-0.43652165,14.863618,-2.353479,-39.95885,
30339860,0.95819104,-0.14139327,8.738506,-0.09963043,0.22973573,-0.47100958,13.863895,-3.0227294,-39.35691,
30339880,0.6982816,-0.0728227,7.9995008,-0.39617315,0.23506203,-0.57527226,13.246284,-2.06117,-38.532204,
30339900,-0.104203686,0.17810369,8.6615505,-0.66422015,0.15436834,-0.59591174,14.710002,-2.1416497,-40.429413,
30339920,-0.7704461,0.45358372,9.513443,-0.6437137,0.15876254,-0.46421853,15.478175,-1.3929315,-40.41898,
30339940,-1.0570052,0.70061743,9.753291,-0.4286637,0.1956473,-0.30975533,15.938357,-0.7893429,-39.950226,13.0
30339960,-1.1989373,0.78266263,9.563449,-0.1905773,0.13798991,-0.1651458,14.861769,-0.37503815,-40.755623,
30339980,-1.1288697,0.79434055,9.222992,-0.011213563,-0.08944385,-0.046102606,15.245477,-0.28507423,-40.050686,19.0
30340000,-0.98603916,1.0000522,8.510037,0.02660329,-0.39943552,0.044045314,14.475727,-0.50627995,-39.29345,
30340020,-0.4281921,1.063233,7.992614,-0.12732728,-0.5099566,0.11555113,14.709513,-1.8456731,-40.355473,
30340040,0.20271698,0.9227981,8.692095,-0.22426625,-0.2525623,0.15842798,14.477316,-1.106339,-39.982903,25.0
30340060,0.31919718,1.0665268,10.052426,-0.14024359,0.024628112,0.14946203,15.16865,0.14672041,-40.676655,
30340080,0.40842873,0.97370195,10.610572,0.052968565,0.08738989,0.16069168,15.168585,-0.43133402,-39.896137,36.0
30340100,0.71624774,0.9695099,10.384499,0.2899897,0.0076282835,0.15975955,14.630877,-1.0279827,-39.825222,
30340120,0.88093686,1.1752216,9.459545,0.43593082,-0.13778019,0.092248484,14.0154915,-0.81968355,-40.07509,
30340140,0.80338323,1.2440915,8.699879,0.38133603,-0.19730178,5.0266925E-4,14.17045,-1.7006445,-39.983654,45.0
30340160,0.446457,1.1401877,9.024167,0.20530127,-0.14869912,-0.06820683,14.940491,-2.5687933,-39.644917,
30340180,0.008683244,0.8344648,9.89133,0.09637805,0.039319873,-0.054624714,13.862763,-1.6327672,-40.069473,53.0
30340200,-0.34315267,0.686544,10.800713,0.08346173,0.20403624,0.07746796,13.633951,-3.181748,-39.90246,
30340220,-0.139537,0.51466846,11.632544,0.22221231,0.2501089,0.24271697,14.864149,-2.8670945,-39.798126,
30340240,0.32048044,0.23781957,11.68905,0.40889972,0.092583045,0.3090296,14.634306,-3.0998168,-40.34282,66.0
30340260,0.14492609,0.58473617,11.498995,0.5030424,-0.10329227,0.29598016,14.019794,-3.843885,-40.19472,
30340280,0.031739723,1.2716396,10.948036,0.5668251,-0.11447754,0.33060122,15.17557,-4.7937994,-40.774033,75.0
30340300,0.9258521,0.78625584,9.528414,0.44005868,-0.026460148,0.26788384,15.021696,-4.1443753,-41.559204,
30340320,1.2175016,0.29578155,8.701676,-0.022132505,0.10656464,0.024337944,14.407318,-4.673119,-41.800514,
30340340,0.2808695,-0.16205427,10.170702,-0.5695448,0.2810015,-0.18964685,15.407945,-5.1013293,-41.848038,83.0
30340360,-0.8312314,-0.4845456,12.674875,-0.6670164,0.22693941,-0.15063159,15.865406,-3.8826256,-39.684074,
30340380,-0.9462144,-0.4683761,13.518383,-0.30469367,-0.04177331,0.022606889,16.635462,-3.4484138,-40.985443,100.0
30340400,-0.63899434,-0.37644958,11.935271,0.15110597,-0.23951285,0.11408639,16.251293,-3.3874946,-41.460007,
30340420,-0.5452711,-0.07791308,9.3715105,0.24391705,-0.15003072,0.18505959,14.866086,-3.471787,-40.797047,
30340440,-0.5273051,0.1155218,8.052201,-0.018404093,0.08685726,0.23366222,16.252651,-5.0699596,-40.589283,113.0
30340460,-0.23475727,0.040064223,8.471111,-0.3346542,0.22454257,0.2441817,16.790615,-3.5359979,-42.063927,
30340480,-0.100909896,-0.18061922,9.383788,-0.42160633,0.13279675,0.16402061,15.557739,-3.453174,-40.238384,127.0
30340500,0.036530677,-0.2680542,9.986549,-0.34464106,-0.09956386,0.05829322,16.63709,-4.266113,-41.44023,
30340520,0.057491116,-0.4423253,10.169805,-0.13891202,-0.106754385,-0.043572605,16.328787,-3.6834617,-41.609413,
30340540,-0.58689266,-0.28661913,9.667353,0.0493733,-0.038843837,-0.061415773,17.098648,-3.6085076,-42.287575,141.0
30340560,-1.0147849,-0.11264752,9.426008,0.15230438,-0.012478563,0.03472426,16.327644,-3.5958595,-40.68187,
30340580,-0.95340085,-0.06922947,9.072975,0.24591443,-0.018736985,0.1777359,16.098595,-3.911552,-41.844643,153.0
30340600,-0.76206195,0.18978164,8.760364,0.29558232,-0.049363315,0.30649963,16.405785,-4.1175733,-41.138176,
30340620,-0.15361042,0.48023346,8.365709,0.33646184,-0.08038911,0.35270542,16.098515,-4.41706,-41.14235,
30340640,0.16708426,0.74164,7.971354,0.31955075,-0.019535935,0.34178647,15.793039,-5.464016,-41.834267,162.0
30340660,0.31740052,1.0332897,8.399845,0.25510234,0.003633547,0.3164865,16.868395,-5.789559,-40.023956,
30340680,0.47400498,1.0913798,8.788812,0.34112236,0.025870923,0.28239805,15.792638,-5.1691976,-41.837685,
30340700,0.38866603,1.2099559,8.761863,0.48799554,-0.074130684,0.21262327,17.331766,-5.083729,-42.57422,
30340720,0.47460383,1.1943853,7.98962,0.5160919,-0.35642552,0.13046482,17.25439,-5.874799,-41.1741,
30340740,0.57341737,1.1138376,7.924941,0.29425073,-0.50063556,0.038186368,16.561636,-6.023448,-40.570557,
30340760,0.7791291,0.92699015,8.559743,0.031663295,-0.2642802,-0.020536283,17.332632,-6.904337,-41.08285,
30340780,0.5276038,0.5416175,10.141658,-0.08005622,0.27993628,-0.06367946,15.411099,-7.097142,-42.21176,
30340800,-0.12952732,0.32508343,11.247255,0.047775403,0.60244477,-0.052760504,17.256163,-6.983841,-41.393368,
30340820,-0.5156271,0.22212058,11.466956,0.24671337,0.38060367,0.01927794,17.6388,-6.3007674,-40.463165,
30340840,-0.08563873,0.39130127,10.795921,0.2329981,-0.17146914,0.056828484,17.869694,-7.022729,-39.675243,
30340860,0.36021972,0.5730582,11.084877,0.17147914,-0.38225815,0.013418992,17.56362,-6.7592163,-41.4657,
30340880,0.35932142,1.081798,11.087572,0.24591443,-0.17466493,0.04497742,16.871109,-6.8387947,-41.172478,
30340900,1.2510384,0.97130644,9.753889,0.14924176,0.04531198,0.0421811,18.71909,-7.488019,-42.047577,
30340920,2.3053482,0.12540317,8.198027,-0.3650142,0.18619308,-0.19510634,18.64243,-7.926779,-41.73487,
30340940,2.1385632,-0.5911444,8.91068,-1.0663571,0.3411889,-0.5149517,18.178513,-6.671542,-41.141888,
30340960,0.7321177,-0.8124266,11.519057,-1.4016488,0.3559695,-0.65703124,18.562227,-5.713337,-41.530357,
30340980,-0.3278815,-0.5252687,13.275243,-1.1937892,0.40190896,-0.5568965,19.561226,-5.323848,-41.1231,178.0
30341000,-0.6770225,-0.45370376,13.432446,-0.6206775,0.5707532,-0.3646164,20.632242,-3.3483372,-38.256195,
30341020,-0.8162597,-0.03838768,11.860712,-0.12586254,0.5049732,-0.17952687,21.25136,-4.040559,-40.786392,
30341040,-0.25691545,0.21343699,10.133873,0.036190663,0.16275729,-0.094971575,20.63443,-3.4498372,-40.11214,
30341060,0.37159824,0.14935793,8.630111,-0.073664635,-0.25828812,-0.16101791,20.249477,-3.3784952,-39.890396,
30341080,0.4769993,0.09575911,8.258512,-0.3305263,-0.34457448,-0.2578237,20.555552,-2.2670999,-39.81827,
30341100,0.154508,0.3502787,9.006801,-0.4489037,-0.18944545,-0.29284424,20.863335,-1.4678941,-40.90322,
30341120,-0.31979674,0.38501316,9.543087,-0.43731898,-0.007951196,-0.2945753,21.095182,-2.2025957,-40.966324,
30341140,-0.59348017,0.03736932,10.141658,-0.263681,0.19764467,-0.18871476,20.785124,-1.9583554,-39.119694,154.0
30341160,-0.6389942,-0.037788816,10.396775,-0.02750322,0.12067937,-0.111705095,21.709688,-1.8926492,-40.56772,
30341180,-0.55904514,0.23829007,9.827552,0.17161229,-0.17453177,-0.071535766,20.938787,-1.5195856,-39.507862,141.0
30341200,-0.31111315,0.64522207,8.754675,0.27028233,-0.41514817,-0.05289366,21.63118,-1.293757,-39.880165,
30341220,-0.100909896,0.95363986,8.042918,0.2412539,-0.26747602,-0.027726812,20.478603,-2.557294,-39.429913,
30341240,-0.017367586,1.0413742,8.254021,0.1389886,0.09977358,0.028332682,21.94228,-2.420135,-41.5618,
30341260,0.1742707,0.98537993,9.126573,0.09837542,0.26275888,0.06881269,22.63312,-2.246006,-40.463276,
30341280,0.13654192,1.0024477,9.696697,0.17680547,0.034126718,0.0630869,21.78624,-2.248423,-39.787876,124.0
30341300,0.2982367,1.1857018,9.529613,0.2760081,-0.33951446,0.054298483,23.633024,-2.5198584,-40.048317,
30341320,0.7267279,1.1389899,9.251736,0.302906,-0.412485,0.024737418,22.631786,-2.5176606,-38.91252,
30341340,0.51203316,0.96352124,9.299348,0.2565671,-0.07133437,-0.035716288,22.249474,-2.1920352,-41.402027,115.0
30341360,-0.32116556,0.8449022,9.75282,0.18639284,0.2503752,0.01088899,21.94177,-2.485732,-41.01937,
30341380,-0.87015796,0.72816545,10.708788,0.16175862,0.21761835,0.15310167,23.018774,-3.2673998,-40.132328,107.0
30341400,-0.51892096,0.4425046,11.672069,0.23566127,-0.08638122,0.300907,22.55677,-3.4125476,-39.523083,
30341420,0.058089986,0.060725234,12.027499,0.389725,-0.37267077,0.3531049,21.86449,-2.409721,-40.790024,
30341440,0.07096568,0.6811542,11.534628,0.5629635,-0.23951286,0.36761916,22.942183,-2.693987,-41.146835,100.0
30341460,0.16259274,0.83536315,10.164414,0.6573724,0.2045689,0.3955823,21.635834,-4.322591,-40.309273,
30341480,0.560841,0.19067995,8.768149,0.38013762,0.46023214,0.36189336,23.17446,-3.8685994,-41.05008,
30341500,0.23715201,0.0065275375,9.084053,-0.20362678,0.31535628,0.16908063,23.790243,-4.805839,-40.250084,
30341520,-0.6204293,-0.22583388,11.247769,-0.61828065,-0.08158754,0.02833268,22.787693,-3.8454828,-39.125412,
30341540,-0.7521806,-0.7175058,12.239198,-0.4956421,-0.21381336,0.11741534,22.789484,-4.592951,-39.813152,80.0
30341560,-0.87135565,-0.6133026,11.243577,-0.2827226,-0.06454332,0.24338275,24.250406,-4.5638237,-39.312855,
30341580,-0.65007335,-0.4842461,10.350363,-0.30482683,0.13745727,0.37294543,24.710382,-2.8720384,-40.01745,27.0
30341600,-0.29644084,-0.4875399,10.465945,-0.3916458,0.16834992,0.39837864,24.324064,-2.927258,-38.401394,
30341620,-0.19343525,-0.390523,10.693216,-0.34171158,0.04011882,0.34924334,24.24823,-3.1599631,-39.097023,
30341640,-0.46113,-0.36537054,10.587216,-0.17233466,-0.18305388,0.3128912,24.250343,-3.7669716,-40.25067,13.0
30341660,-0.118876,-0.21295817,9.767664,0.0066296,-0.4242029,0.3512407,23.786875,-2.5900702,-39.966297,
30341680,0.68091434,-0.11534242,8.530997,0.059360143,-0.2688076,0.34378386,22.864943,-2.8356142,-40.682835,
30341700,0.7973945,0.08378172,7.8662524,-0.058484633,0.16102624,0.24471435,24.325907,-3.0241256,-39.94787,
30341720,0.37608975,0.30356687,8.134846,-0.21068415,0.36901894,0.14071798,23.862194,-2.8570833,-38.181545,
30341740,0.22038367,0.26194537,8.695387,-0.2776626,0.19484837,0.07653585,25.479153,-2.9996676,-39.455173,
30341760,0.3257847,0.28230703,9.023568,-0.22799467,-0.0984986,0.04817321,23.865234,-3.3317385,-40.342674,
30341780,0.5308975,0.36914307,9.076868,-0.065542005,-0.18465176,0.020476364,24.555649,-2.2835789,-39.95073,
30341800,0.43717444,0.57066274,8.603161,0.100639105,-0.03351752,-0.015875757,24.093987,-1.926693,-40.27587,
30341820,0.29194856,0.52694523,8.13724,0.1238086,0.047575664,-0.037979968,23.785305,-1.628437,-39.745327,
30341840,0.34345138,0.41136336,8.257014,0.0034338105,0.018946711,-0.055956297,23.939512,-2.2099476,-39.347847,
30341860,0.21798818,0.2993748,9.243352,0.012222233,0.021876184,-0.083653145,26.476883,-3.244567,-37.10605,
30341880,-0.39405662,0.64043105,10.216217,0.2706818,-0.08385122,-0.06873946,23.634104,-3.1855154,-40.195354,
30341900,-0.58021945,0.78741074,9.929744,0.6158272,-0.32113868,0.038852155,24.78613,-2.2040563,-39.791153,12.0
30341920,-0.013474919,0.7236739,8.538782,0.680542,-0.41261816,0.13805482,24.019209,-2.6799607,-41.27498,
30341940,0.87195385,0.6407305,7.6907835,0.39438552,-0.32233706,0.10716218,24.096884,-3.4849114,-40.954193,
30341960,1.4040495,0.36974195,8.319896,-0.06500937,-0.15389231,-0.060749978,23.32673,-3.8454185,-39.65368,
30341980,0.7812251,-0.047370724,10.7549,-0.2875163,-0.031253833,-0.20988686,23.557215,-3.3317757,-40.040806,
30342000,-0.032039892,-0.37555128,12.536537,-0.08671412,-0.08718017,-0.21800949,23.63327,-2.450786,-40.35865,
30342020,-0.06288169,-0.6800765,12.867114,0.23313127,-0.259886,-0.15529211,23.094826,-2.820531,-39.903465,
30342040,0.10839503,-0.34021798,12.479944,0.463095,-0.2938413,-0.123334214,24.017693,-2.0085135,-40.741116,
30342060,0.15031591,0.27422228,11.064515,0.4902592,-0.16068335,-0.087248415,22.712234,-3.2871246,-41.145695,
30342080,0.9339368,0.14666304,9.0595,0.105832264,0.022808287,-0.09044419,23.789312,-3.9974046,-40.414238,
30342100,1.3103263,-0.14618424,8.851393,-0.56808007,0.24917677,-0.24357581,22.48027,-2.4061732,-41.16166,
30342120,1.1519253,-0.9025566,11.570261,-0.95889866,0.3245442,-0.33998215,23.476881,-1.3336554,-39.446884,
30342140,0.613841,-1.3058951,14.111564,-0.69697696,0.18885623,-0.40802586,23.401672,-1.6470118,-40.60586,15.0
30342160,-0.031441018,-1.0690424,14.339733,-0.043171465,-0.056686997,-0.33465585,23.246077,-0.6128516,-40.31218,
30342180,0.011977024,-0.70942104,12.209255,0.45217606,-0.26281548,-0.18232319,23.015274,0.107952595,-41.177467,
30342200,0.4099259,-0.17403167,9.731432,0.46429345,-0.29796916,-0.10842053,22.631336,-1.0644169,-40.322243,16.0
30342220,0.751581,0.030482316,8.150116,0.11848227,-0.12260018,-0.1385142,24.40014,-0.3097887,-40.906036,
30342240,0.74289745,0.0870755,8.391161,-0.25236258,0.09697726,-0.1961716,24.3221,-0.802567,-39.27725,
30342260,0.5877902,0.027487973,9.171786,-0.38046053,0.16257975,-0.21805388,24.013176,-0.1392622,-38.98308,
30342280,0.78751314,-0.1590599,9.831144,-0.3061584,0.24731258,-0.19284265,22.705357,0.49496937,-39.642017,
30342300,0.5437732,0.13678168,9.749099,-0.12093569,0.25556836,-0.20895475,24.243973,-0.35339975,-38.742714,
30342320,0.4012423,0.39788884,9.39876,0.038188033,0.19870993,-0.1936416,23.93566,-0.20486927,-38.365196,
30342340,0.084739685,0.78835183,8.807973,0.22181284,0.18659255,-0.18738317,24.319614,-0.04583311,-37.970577,
30342360,-0.33357075,1.0668263,7.246123,0.27760598,0.22614047,-0.13878053,23.782482,0.43528986,-39.7693,
30342380,-0.45334464,1.4087808,6.759541,0.0677491,0.2667536,-0.03238734,23.397179,0.0771451,-38.691383,
30342400,0.06437812,1.2752328,7.440756,-0.15076308,0.21428943,0.018212676,24.396963,0.8903303,-39.527138,15.0
30342420,0.3344683,1.264453,8.502253,-0.23451942,0.15396887,-0.010549438,25.31986,0.6164684,-39.036716,
30342440,0.4766999,1.2851142,9.52033,-0.16887255,0.05250251,-0.029990496,24.473259,0.9721508,-39.061893,
30342460,0.56413484,1.286697,10.011531,0.0029011779,-0.0801228,-0.044637874,24.471336,1.5042968,-37.984753,
30342480,0.823146,1.2770294,10.312934,0.19704548,-0.040308572,-0.044904187,23.318907,0.81765604,-38.39238,
30342500,0.83242846,1.118329,10.087759,0.36695498,0.07567199,-0.0401105,23.240986,1.9876537,-38.94954,
30342520,0.691694,1.1940861,9.611956,0.39957866,0.067948826,-0.043705765,24.548069,1.580327,-37.90634,
30342540,0.5572479,1.1854023,9.153822,0.2580318,0.011356709,-0.063013665,23.087406,1.5477247,-38.638737,
30342560,0.21469441,1.0183177,10.037752,0.07240962,0.030398294,-0.08072367,23.780529,0.6784086,-38.3019,
30342580,-0.53269494,0.82847613,11.942758,0.089187525,-0.04630068,-0.036248922,23.392561,2.0201,-36.934208,
30342600,-0.6171355,0.38261768,12.876696,0.40796763,-0.21514493,0.118214294,23.933006,0.9883008,-37.450493,
30342620,-0.25362164,0.28200758,11.870295,0.7508493,-0.18704863,0.24285012,24.23914,0.8687234,-35.89385,
30342640,-0.47550285,1.1192273,10.287782,0.8133004,0.097909376,0.32966912,24.548487,0.27217484,-36.653065,
30342660,0.002694551,1.0949732,9.182567,0.5757466,0.20017466,0.33832437,24.856092,0.63957644,-37.036583,
30342680,0.28116894,0.93267936,8.551959,0.109827,0.079400405,0.18412748,23.16611,-1.0076036,-37.059544,
30342700,0.021259498,0.76080376,9.676934,-0.42653316,-0.102759644,-0.03105576,23.395391,0.8246136,-38.003643,
30342720,-0.23475727,0.10593988,11.312747,-0.62240845,-0.16134915,-0.073666304,23.240435,0.33066845,-36.37675,
30342740,-0.2299663,-0.013534598,11.839153,-0.48059535,-0.08744648,-0.048898928,23.010818,-0.19455576,-36.763294,
30342760,-0.44016954,0.023894748,10.87138,-0.31468052,0.133862,-0.04636892,23.085327,1.0688534,-36.157013,
30342780,-0.8471014,-0.042579778,10.134471,-0.3523642,0.22574098,-0.008152595,23.853878,1.6678462,-36.299595,
30342800,-1.1007228,-0.073721,10.502177,-0.43305793,0.017348817,0.053899005,23.16218,1.4327526,-36.546227,16.0
30342820,-0.98663807,0.03467441,10.733042,-0.40376315,-0.2538939,0.14058483,22.776499,1.2243323,-35.315285,
30342840,-0.4880791,-0.11713904,10.505171,-0.27886102,-0.2959718,0.20676433,22.622904,2.2318568,-36.80104,18.0
30342860,-0.21349737,-0.02461368,9.858692,-0.1627473,-0.15708807,0.22846906,22.315092,2.5185313,-37.04416,
30342880,0.053897906,0.12570259,9.444873,-0.06634095,0.08392778,0.23685801,22.929604,1.887692,-35.473923,
30342900,0.030541986,0.21104151,8.995421,0.004898548,0.16342306,0.21342222,22.853508,1.658462,-35.93746,20.0
30342920,0.19313508,0.27272508,8.671432,0.040052243,0.07873462,0.19850853,24.005571,1.9881618,-34.75189,
30342940,0.33626494,0.24338047,8.423202,0.04604435,-0.07133438,0.16828167,22.466265,2.8457959,-35.032253,23.0
30342960,0.40303886,0.47035205,8.396852,0.052569088,-0.11061597,0.12593745,21.313482,1.7296672,-34.58371,
30342980,0.33207285,0.49849892,8.294443,0.11794964,-0.026726462,0.07187533,22.006117,2.9653547,-36.437965,
30343000,-0.0042780084,0.69809353,8.015756,0.16628598,-0.011146984,0.050836373,22.23629,2.8318706,-35.734253,27.0
30343020,-0.067972064,0.7590072,8.120772,0.11288963,-0.1412423,0.07360638,22.005648,2.2479978,-35.11417,
30343040,0.20121983,0.8057191,8.812168,0.09264963,-0.24683651,0.08532427,22.08278,2.0292094,-35.03234,34.0
30343060,0.42938918,0.84464556,9.381393,0.18506125,-0.23418653,0.044444792,22.081335,3.7128325,-35.82569,
30343080,0.6207281,0.7021146,9.100523,0.29558232,-0.081720695,-0.012679963,22.390064,2.2561507,-34.94994,
30343100,0.5276038,0.738945,8.409727,0.20503493,0.045445137,-0.08618315,22.697653,2.696098,-35.411674,43.0
30343120,0.46861508,0.5407192,8.866664,-0.086980425,0.10363516,-0.1347858,21.158918,2.8224773,-35.296646,
30343140,0.30392596,0.30476463,10.972289,-0.16447835,0.023873553,-0.18112476,21.080687,3.345349,-34.762974,55.0
30343160,0.17067748,-0.059947,12.055346,0.0838612,-0.013943301,-0.21894161,21.00221,4.2332683,-34.46568,
30343180,-0.2383505,-0.07072665,11.75591,0.3761429,-0.047499105,-0.20296265,21.311474,3.6378782,-35.14753,
30343200,-0.28386456,-0.062342476,10.776159,0.49465343,-0.1060886,-0.14037843,20.925228,3.6540465,-33.687065,76.0
30343220,0.06437813,0.052041635,10.080873,0.43246868,-0.07333175,-0.10921948,20.387995,3.7747538,-34.93994,
30343240,0.0263499,0.2161319,9.857792,0.18852335,0.017215656,-0.079525255,21.31034,3.652934,-34.141766,87.0
30343260,0.0011973772,0.6715722,10.682736,-0.044503048,0.12760359,0.01088899,19.61875,3.619146,-34.72513,
30343280,1.022869,0.36195666,11.120509,-0.061414104,0.2951163,0.022873206,20.539152,5.549472,-34.72459,
30343300,1.9160831,-0.30278862,10.634228,-0.07433042,0.36968473,-0.2343879,20.84684,4.5408077,-33.46714,107.0
30343320,1.2154055,-0.5417376,10.503675,-0.2454384,0.14890885,-0.6362586,21.38578,5.0486965,-34.542965,
30343340,-0.36291534,-0.6336641,10.497685,-0.43625373,-0.2035602,-0.77261233,20.61519,4.69398,-32.855614,136.0
30343360,-1.531909,-0.52946085,10.636622,-0.572208,-0.24151021,-0.5665726,20.766098,7.340413,-33.501564,
30343380,-1.744807,-0.31326884,11.017505,-0.67181015,-0.06441016,-0.1768637,19.533974,7.557905,-32.528767,
30343400,-0.7452935,-0.10037069,11.887661,-0.6057638,0.22986889,0.25603276,20.610153,8.379207,-32.89842,170.0
30343420,0.6638466,-0.037788816,11.744531,-0.31574577,0.25050837,0.39584863,20.918821,7.719377,-32.96048,
30343440,1.5780212,-0.04767016,10.386296,-0.078458324,-0.060415424,0.2258059,20.612268,6.8314114,-32.880444,196.0
30343460,1.274394,0.11821672,9.036443,-0.1630136,-0.394775,-0.042107873,19.995502,7.926483,-32.985844,
30343480,0.31141186,0.5209566,8.6888,-0.39604,-0.32087234,-0.15702318,20.225792,8.080869,-32.74976,
30343500,-0.17007935,0.4987984,8.973862,-0.49404424,0.07700357,-0.054225244,18.838074,10.27331,-32.6549,220.0
30343520,-0.34824306,0.56167966,9.62663,-0.39843684,0.42960578,0.10396639,19.607735,9.120766,-31.61644,
30343540,-0.16049743,0.63534063,10.022781,-0.15315992,0.40164262,0.20303589,20.06906,9.636752,-32.075233,245.0
30343560,0.0812748,0.7110977,9.845217,0.17028072,0.12041306,0.20916116,20.299465,9.644887,-31.76007,
30343580,0.07605607,0.98717654,8.675325,0.3901245,-0.17306703,0.14244904,19.838694,9.410978,-32.155735,
30343600,0.19073962,1.0874872,7.681501,0.35430497,-0.20262809,0.117149025,19.91391,10.158457,-31.543457,261.0
30343620,0.17157578,1.236007,7.7617493,0.2010402,-0.11540965,0.16695009,19.683466,9.427175,-30.921665,
30343640,0.6306094,1.1503685,8.234857,0.10303595,-0.0070190886,0.27480802,19.530167,9.345345,-31.31144,279.0
30343660,1.0629933,1.1845042,8.617834,0.06921383,0.122277275,0.27613962,20.451372,11.120153,-31.850758,
30343680,1.2657106,1.100363,8.5923815,0.058028564,0.21269152,0.226738,19.606752,9.278598,-30.921848,
30343700,1.1495298,1.0344872,8.7948,-0.0053546135,0.2149552,0.13605745,20.759909,10.245001,-31.523418,
30343720,0.7955979,0.8754873,9.564946,-0.01068093,0.0917841,0.058959007,20.145418,8.9217205,-30.672173,
30343740,0.35932136,0.8096117,10.346769,0.11794965,-0.04563489,0.012753202,21.067396,9.383747,-30.267681,299.0
30343760,-0.1266613,0.7230751,10.09794,0.28599495,-0.15375912,0.07427217,19.14284,10.967957,-30.875568,
30343780,-0.25811318,0.82608056,10.050031,0.34764707,-0.07013595,0.21302275,20.450556,10.40743,-30.217491,
30343800,0.16678482,0.47574183,10.18268,0.3120939,-0.10528964,0.34085438,18.835644,10.739858,-31.03534,
30343820,0.47430438,0.5652728,10.845328,0.16508757,-0.22326759,0.36855122,20.452307,10.31172,-31.686607,
30343840,0.6018636,1.3390125,11.850231,0.11515333,-0.17759441,0.3333975,20.066904,10.02728,-30.609547,
30343860,1.3896766,0.64342546,12.150266,0.19731179,0.032928288,0.24777699,19.527523,10.031849,-29.771812,
30343880,1.5546652,0.014013406,11.245074,0.20596705,0.23279837,0.03565636,20.835695,10.261225,-30.515747,
30343900,0.5737167,-0.13061363,10.942646,0.022342235,0.26049522,-0.19950055,20.374407,10.468386,-30.99392,
30343920,-0.39974582,-0.3842349,10.967498,-0.18565044,0.07260936,-0.2819253,20.834522,10.493919,-29.744656,
30343940,-0.8506947,-0.40160212,10.741127,-0.34077948,-0.1269944,-0.19071212,19.06325,11.798386,-29.49429,
30343960,-0.5731186,-0.5528167,10.290775,-0.5125532,-0.084250696,-0.0375805,18.371164,12.219685,-30.212818,
30343980,-0.3416555,-0.6830709,11.041161,-0.64677644,0.18392938,0.059491634,18.984127,13.346172,-29.436798,
30344000,-0.5285029,-0.57916695,12.046062,-0.41721213,0.38033736,0.12966588,18.06,13.708794,-28.92231,328.0
30344020,-0.7890111,-0.25308245,11.304961,0.019812243,0.31362525,0.18093169,19.44618,12.767014,-29.186451,
30344040,-0.72253656,0.10174781,9.514641,0.27920392,0.082729355,0.23273014,19.980667,14.3473015,-27.56643,
30344060,-0.17756517,0.33440867,8.170178,0.22500862,-0.24430653,0.23206434,21.060108,12.592419,-27.674023,
30344080,0.34255305,0.29667988,7.2685804,-0.02013514,-0.39916924,0.14484589,20.520771,14.188375,-28.866653,
30344100,0.21815929,0.21078484,7.194107,-0.31934103,-0.19397283,0.032460578,20.059135,14.400168,-29.035355,
30344120,-0.29674026,0.062521845,7.8584666,-0.5205427,0.13652518,0.0031658304,20.443281,14.918462,-29.263947,
30344140,-0.7911072,0.18139747,8.946314,-0.48552215,0.2811347,0.117548496,21.211405,15.016579,-28.394772,
30344160,-0.2736838,0.22571382,9.886838,-0.2050915,0.101770945,0.17147747,20.669767,16.860287,-27.810532,
30344180,0.17936109,0.3122505,9.412533,0.10077226,-0.2959718,0.060956374,21.05486,16.4976,-27.79676,
30344200,0.3290785,0.46226734,8.11089,0.2226118,-0.48558873,-0.071136296,21.82379,16.4402,-27.467442,281.0
30344220,0.3042254,0.5017927,7.169168,0.09984017,-0.35069972,-0.15222949,21.439281,16.939873,-28.179226,
30344240,0.17397127,0.12420541,7.6563478,-0.124131486,-0.08904438,-0.13505211,20.438667,17.295536,-28.053474,260.0
30344260,-0.26889282,0.124205425,9.35564,-0.14929834,0.09231673,-0.043705765,21.822588,17.758776,-28.02441,
30344280,-0.67342925,0.27302453,10.529427,0.15550017,0.110559374,0.060690057,22.206318,18.644434,-28.334656,
30344300,-0.37938428,0.41765153,9.887138,0.49585187,0.023607237,0.1444464,22.745398,17.486073,-27.456627,237.0
30344320,0.19553056,0.4215442,8.861274,0.5026429,-0.13591596,0.17134431,22.28384,18.203373,-28.327618,
30344340,0.8468013,0.39938602,8.678319,0.287726,-0.14963123,0.11794797,23.054178,18.054897,-29.157944,221.0
30344360,1.0429311,0.35387194,9.184963,0.027535398,0.057296194,-0.013079437,23.820616,19.260899,-28.146877,
30344380,0.4371745,0.29817706,10.358448,-0.10455728,0.28632787,-0.08178894,22.358656,19.67979,-28.265472,
30344400,-0.05419807,0.13977604,11.352272,-0.043970414,0.29378468,-0.087914206,24.587624,20.676434,-27.91204,204.0
30344420,0.03802785,-0.11025205,11.952639,0.055498563,0.00456566,-0.077261575,24.587776,20.312542,-27.598293,
30344440,0.38926494,-0.19978304,12.52965,0.2152881,-0.22020495,-0.11787474,25.50827,21.735044,-27.050198,185.0
30344460,0.35183552,0.16073647,12.591932,0.43375587,-0.14137544,-0.09483842,25.66415,21.493101,-28.59116,
30344480,0.87195385,-0.043178633,10.677944,0.53619874,0.051437244,-0.0359826,27.357752,21.427704,-29.709007,
30344500,1.5552641,-0.3749524,8.415415,0.17627281,0.34837943,-0.10961895,26.663141,21.448471,-27.63721,
30344520,1.5594562,-0.9920876,8.6483755,-0.60922587,0.48047215,-0.36608112,27.50782,21.624933,-26.534893,
30344540,0.7485867,-1.7799004,11.41725,-1.2170919,0.28326523,-0.61894804,27.660564,22.799593,-27.008991,144.0
30344560,-0.058090717,-1.9658495,13.749546,-1.2193556,0.052901983,-0.65450126,28.812654,24.359106,-27.385303,
30344580,-0.8243444,-1.5753865,14.423576,-0.7050995,0.087789364,-0.4976412,28.348354,25.836615,-26.717522,
30344600,-0.7908078,-1.1708502,12.867113,0.013820138,0.32720736,-0.18871474,28.575693,26.464497,-24.39767,51.0
30344620,-0.4395707,-0.3198564,10.297363,0.37787393,0.30829892,-0.002559958,30.113836,26.707798,-24.439617,
30344640,0.36111802,-0.09528029,8.742398,0.28879127,0.02706934,0.063752696,32.344597,27.391094,-25.320625,21.0
30344660,0.9350917,0.069793835,8.424698,0.017015921,-0.186516,-0.026262077,33.73062,26.813204,-25.898514,
30344680,0.8581798,0.23349912,8.930445,-0.15196149,-0.10555597,-0.15782212,33.270382,26.065681,-26.133453,
30344700,0.33416888,0.35596794,9.227182,-0.115343064,0.14438148,-0.21388161,34.038116,27.760975,-26.90781,
30344720,-0.12097204,0.51257235,9.305036,0.03565803,0.24731258,-0.2046937,34.49783,28.081327,-25.661968,
30344740,-0.31500578,0.5455102,9.102918,0.20370336,0.02400671,-0.19151106,36.11139,29.865486,-26.26155,18.0
30344760,-0.21559343,0.66019374,8.694189,0.32647496,-0.31621182,-0.19643793,38.264034,29.984613,-25.358185,
30344780,-0.23385894,0.7826626,7.998602,0.3829339,-0.45895714,-0.22227055,38.80297,30.058384,-25.887306,
30344800,-0.6090508,1.0461651,7.032027,0.2596297,-0.34790343,-0.2161453,40.264263,30.87857,-26.711658,
30344820,-0.7476891,1.3710521,7.630896,0.028068028,-0.11793964,-0.092441574,40.267544,30.038868,-28.636414,
30344840,-0.14462738,1.2515774,8.760664,-0.04663358,-0.08185385,0.006228463,41.650272,30.373228,-27.367775,
30344860,0.48119137,1.1653404,9.592793,0.04897382,-0.08078859,-8.289097E-4,43.802696,31.218977,-27.169266,
30344880,0.52820265,1.0791029,9.779041,0.22487548,-0.095702276,-0.09084368,45.650574,31.150127,-28.670147,
30344900,0.33386946,1.0210127,9.046624,0.31528968,-0.025927516,-0.12852737,47.72659,31.119518,-27.844334,16.0
30344920,0.11887526,1.1315042,8.806777,0.21382336,0.011756182,-0.12240211,47.96045,29.851515,-29.06195,
30344940,0.042219944,0.9656171,9.521229,0.07360805,-0.010880669,-0.08365315,50.651466,30.269001,-28.458172,
30344960,-0.008085109,0.4961035,10.7848425,0.1038349,-0.044835947,-0.0752642,52.883938,29.699318,-29.32463,
30344980,-0.5725198,0.35087758,11.651407,0.28692704,-0.15961808,-0.0594184,54.499542,28.923504,-28.579021,
30345000,-0.9528019,0.22960645,11.245075,0.41515815,-0.16414544,0.074538484,56.88484,28.65908,-28.903542,
30345020,-1.1893556,0.665883,11.405571,0.41862023,0.11202411,0.28546065,58.579704,27.419044,-29.698227,
30345040,-1.34057,1.4411198,11.514267,0.53806293,0.48659742,0.5206176,60.733315,26.584648,-28.474266,15.0
30345060,-0.22337875,1.4504023,10.462651,0.58879614,0.36262736,0.67548025,62.43217,22.107403,-28.844452,
30345080,1.8190662,0.53383213,8.748687,0.2561676,-0.012345407,0.45696813,64.048325,22.120335,-29.578224,
30345100,1.9648906,0.08677607,9.008296,-0.3872516,-0.07146753,-0.039178398,67.58725,21.223976,-28.938145,
30345120,0.20571136,-0.59863025,10.6327305,-0.9248102,0.09897463,-0.38592166,67.43677,19.078423,-29.303951,
30345140,-1.122282,-1.1998954,12.702423,-1.0558376,0.30190733,-0.3366532,70.66783,18.758924,-29.219883,
30345160,-2.0900552,-1.0944945,14.156179,-0.79644597,0.12187779,-0.13878053,70.66823,17.595867,-28.12305,
30345180,-1.9047053,-0.88189554,13.609113,-0.29404104,-0.24297497,0.1644201,71.7489,15.752224,-29.235554,
30345200,-0.6709055,-0.644401,11.80198,0.10916123,-0.37852973,0.3753423,73.213844,13.773956,-29.872646,14.0
30345220,0.38357562,-0.44531962,9.454454,0.17467493,-0.19437228,0.3689507,73.83295,10.911135,-29.66933,
30345240,0.586293,-0.18960227,7.8428965,-0.08165412,0.16968149,0.24617907,74.52864,9.718046,-31.263237,
30345260,0.2620051,-0.17193562,7.945303,-0.37153894,0.36342633,0.11275482,76.68756,6.0631876,-31.32198,
30345280,-0.12127146,-0.11893565,8.811269,-0.38845003,0.31295946,0.015416359,75.22829,4.637149,-31.57391,
30345300,-0.4889774,-0.23930845,9.395765,-0.19004466,-0.055754893,-0.04410524,75.84793,2.5630717,-32.849976,
30345320,-0.81116927,-0.27404287,9.368816,0.095445946,-0.37506765,-0.009883648,75.77466,0.70423603,-33.83624,
30345340,-0.8114688,-0.15696388,8.434879,0.2934518,-0.3513655,0.08678901,74.47075,-1.8975835,-33.99331,
30345360,-0.77284163,0.07629585,7.47519,0.26575497,-0.08544911,0.15256904,74.55145,-3.538763,-35.365173,
30345380,-0.5443728,0.14606415,7.516512,0.1479102,0.12747043,0.209028,74.247284,-6.484664,-34.87434,
30345400,-0.33057642,0.109533116,8.071664,0.07334173,-0.015940674,0.21834905,73.32957,-8.812465,-36.804756,
30345420,-0.04042408,0.179002,8.5660305,0.064952776,-0.34417498,0.17893432,71.40793,-10.306473,-36.216198,
30345440,-0.1302545,0.22960646,8.724433,0.106098585,-0.479064,0.11448586,71.40964,-11.486903,-36.279865,
30345460,-0.23805106,0.42423913,9.196939,0.25843126,-0.19397283,0.17480642,68.2585,-11.929923,-38.132915,
30345480,-0.010780018,0.52305263,9.111901,0.50317556,0.16262414,0.25270382,68.72386,-14.434664,-38.47924,
30345500,0.22786951,0.59312034,8.537286,0.48932713,0.14398201,0.28306386,66.18797,-16.603666,-38.052906,
30345520,0.61893135,0.51347065,8.377387,0.23539492,-0.10329227,0.18399431,64.34508,-18.55495,-38.540443,
30345540,0.627615,0.44160634,8.742998,-0.08245306,-0.21621022,0.03259373,63.959774,-18.913094,-37.46253,
30345560,0.26170564,0.31105274,10.122792,-0.31512436,-0.19073264,-0.04033243,61.115078,-18.321896,-39.47469,
30345580,0.19582999,-0.10665883,12.46617,-0.26740944,-0.06094805,-0.020802598,60.809284,-19.58186,-39.62247,
30345600,0.5973721,-0.8783024,13.030605,0.13765702,0.037189346,0.019144783,58.65708,-20.213444,-40.28775,
30345620,0.42729315,-0.34111628,11.992463,0.35976446,-0.044835944,-0.0010952242,55.275017,-21.09177,-41.445053,
30345640,0.59347945,0.468256,11.275317,0.27574182,-0.05282542,0.045110583,54.5041,-21.586948,-39.29179,
30345660,1.9517158,0.1266009,10.28868,0.0661512,0.20470205,0.026202153,53.12135,-21.776215,-40.716873,
30345680,2.5577717,-0.7354719,10.596199,-0.2643468,0.42281476,-0.28765112,51.04426,-21.586617,-40.770733,
30345700,1.3121231,-1.3606917,11.947549,-0.5212085,0.09857516,-0.7265396,51.120224,-21.138592,-40.464504,
30345720,0.00329341,-1.6577312,12.581751,-0.46435,-0.2403118,-0.87541026,48.811745,-19.424389,-41.857277,
30345740,-0.6252202,-1.0852116,12.035882,-0.21601045,-0.19983177,-0.69245124,48.194195,-18.318893,-41.266373,
30345760,-0.20857811,-0.48048177,10.609375,-0.003224087,0.043181457,-0.42826587,47.65582,-17.676466,-42.138412,
30345780,0.3395587,-0.16444974,9.287669,0.022342237,0.26648733,-0.26781055,45.73266,-17.99236,-41.640915,
30345800,0.7036714,-0.11624074,8.151314,-0.12905833,0.3502437,-0.18485317,44.88739,-17.79914,-42.670143,
30345820,0.66234946,0.116719544,8.032139,-0.42200577,0.28153417,-0.22107214,44.653233,-16.310022,-41.4551,
30345840,0.4242988,0.24397936,8.719043,-0.58046377,0.16142571,-0.26208478,43.57611,-15.816222,-41.87452,
30345860,0.14911819,0.24996802,9.572731,-0.50789267,0.11788306,-0.27167213,41.57715,-16.075794,-42.46292,15.0
30345880,-0.21080247,0.20026185,9.900911,-0.28005943,0.03505882,-0.24064635,42.728676,-14.291692,-42.609695,
30345900,-0.5635367,0.21852739,9.539194,-0.034383044,-0.1313886,-0.1734016,42.113182,-13.503019,-43.485336,20.0
30345920,-0.5297006,0.37333518,8.594478,0.096644364,-0.23099074,-0.0543584,40.881775,-12.933218,-43.599953,
30345940,-0.17876294,0.5182617,8.11658,0.046710137,-0.17826019,0.036188997,40.267006,-13.673811,-43.219757,
30345960,0.08533856,0.5341317,8.433382,-0.028657254,-0.01993541,0.07626953,39.189857,-13.034919,-43.795624,26.0
30345980,-0.06707376,0.7383462,9.028359,0.0026348615,0.12747043,0.124605864,38.728302,-12.824284,-44.04168,
30346000,0.19493169,0.7775722,9.231974,0.09810911,0.12520675,0.18585852,37.958824,-13.555631,-42.891624,33.0
30346020,0.58958685,0.67546487,9.517336,0.19544758,0.03013197,0.1586943,36.727158,-11.607446,-44.49247,
30346040,0.5928806,0.75451565,9.6652565,0.29544914,-0.099031225,0.10330059,36.49667,-11.180304,-45.27697,
30346060,0.6680387,0.8120071,9.325398,0.37081653,-0.044702787,0.07280743,35.419563,-11.699838,-44.44654,41.0
30346080,0.5934794,0.7814648,8.7900095,0.27587497,0.14957464,0.05922532,34.263123,-10.885751,-43.09185,
30346100,0.542875,0.58234066,9.4302,0.034592766,0.3144242,0.03845269,35.264183,-11.319752,-43.526215,48.0
30346120,-0.06437885,0.63773614,11.375328,0.008360652,0.22973573,0.0067610946,34.34117,-10.89964,-44.09572,
30346140,-0.5770112,0.42364022,11.93168,0.26322496,-0.028457515,0.039651103,33.571983,-11.345432,-43.568016,
30346160,-0.7096609,0.10564046,11.682248,0.5015776,-0.30382812,0.14071798,33.649662,-10.775475,-44.96556,61.0
30346180,-0.5916835,0.07988906,11.331312,0.5505798,-0.41741183,0.26468801,32.342537,-11.959537,-43.978394,
30346200,-0.6812146,0.68654406,11.454979,0.547384,-0.0851828,0.402906,32.035084,-11.75004,-44.45276,73.0
30346220,-0.13684206,0.8254817,11.043554,0.56789035,0.25596786,0.49518442,30.264202,-11.608632,-43.105568,
30346240,0.75367707,0.24637486,9.818567,0.42208236,0.32427788,0.37867126,31.03761,-13.751763,-44.222244,
30346260,0.7087619,0.21074207,9.22329,-0.049429886,0.12081253,0.12513849,31.189125,-12.488344,-43.69143,80.0
30346280,0.11647978,-0.03209955,10.330003,-0.48126107,-0.023264358,-0.104558945,30.88017,-11.679948,-43.55371,
30346300,-0.7297658,-0.19302437,11.16273,-0.53851897,0.070478834,-0.1370495,29.956543,-11.685848,-43.03495,98.0
30346320,-1.2734966,-0.11863622,10.9791765,-0.46714634,0.17527413,-0.0052231215,30.263325,-11.090385,-42.956825,
30346340,-1.1809713,-0.2363141,10.933362,-0.4174784,0.029599342,0.1042327,30.110176,-10.595317,-44.204483,
30346360,-0.9519037,-0.2201446,10.853114,-0.31774312,-0.2644134,0.14804167,29.494675,-10.240766,-44.533424,124.0
30346380,-0.58779085,-0.23751183,10.064703,-0.27872786,-0.45642713,0.12287482,29.723898,-9.927389,-43.525383,
30346400,-0.31859902,-0.34441006,9.411634,-0.38139263,-0.36521396,0.103833236,28.413864,-7.6716585,-44.203156,144.0
30346420,-0.19642961,-0.43124616,9.725143,-0.47886425,-0.11860544,0.11581744,28.10835,-9.007642,-44.504807,
30346440,-0.2093053,-0.39591286,10.518646,-0.3603537,0.12014675,0.17227641,27.414183,-8.558549,-43.366547,
30346460,-0.08683646,-0.18002035,10.482714,-0.03158673,0.2168194,0.2391217,27.260191,-8.196994,-43.68409,164.0
30346480,0.15570575,-0.0075458996,9.674839,0.2939844,0.02493882,0.2622912,26.414232,-8.501177,-43.46946,
30346500,0.5087394,0.2736234,8.194133,0.42115024,-0.2688076,0.21249011,26.182411,-7.9115677,-43.24991,179.0
30346520,0.71894264,0.59491694,7.038315,0.2858618,-0.3223371,0.09411271,26.41404,-8.860436,-42.846245,
30346540,0.68929857,0.760205,7.0137615,0.07920068,-0.04323805,-0.045836292,26.261238,-8.37,-44.403374,
30346560,0.18475091,0.65660053,7.606941,0.0043659164,0.21735205,-0.13105738,25.722029,-8.367748,-43.720375,192.0
30346580,-0.31889844,0.61617684,8.430089,0.022475395,0.09711041,-0.13212264,25.796741,-7.251748,-43.112373,
30346600,-0.30961597,0.42813176,8.98015,0.12087911,-0.1902444,-0.11534474,26.103718,-7.237813,-42.485847,207.0
30346620,-0.061983366,0.289194,8.855885,0.21981546,-0.30276287,-0.13012525,25.103338,-6.740531,-42.748642,
30346640,0.12127072,0.052939937,8.47111,0.17667231,-0.21567756,-0.16314843,24.412111,-7.633175,-42.60073,
30346660,0.09192613,-0.0036532432,8.996319,0.028245574,-0.15841967,-0.19497319,24.720324,-7.273881,-43.52581,
30346680,0.11558147,-0.20157965,10.263527,-0.069936216,-0.083984375,-0.22786318,23.951197,-7.575739,-43.23191,
30346700,-0.2859606,-0.40279981,11.564872,0.0120890755,0.06368777,-0.22040634,23.872747,-7.2670317,-42.23147,223.0
30346720,-0.7117568,-0.225235,12.139486,0.25909707,0.101371475,-0.12906,24.486673,-5.719164,-42.85318,
30346740,-0.2709889,-0.1803198,11.606492,0.5021103,-0.017139092,-0.016408388,23.795422,-7.407501,-41.69009,
30346760,0.544971,-0.2947039,10.972888,0.5199535,-0.27200338,-0.0056225937,24.177792,-6.214285,-41.15272,
30346780,0.81266576,0.34997928,11.291188,0.4214166,-0.37333658,-0.06274735,22.873531,-7.8706865,-42.17195,
30346800,1.2693039,0.59910905,11.063916,0.44032502,-0.1035586,-0.09217525,23.259563,-8.607686,-42.540726,
30346820,1.6588686,0.3865103,9.992239,0.4429882,0.30496997,-0.20163108,23.334347,-7.4202957,-42.088326,
30346840,1.4600437,-0.10186788,8.6280155,0.20849702,0.45836788,-0.4142843,24.412642,-8.1467905,-42.439995,
30346860,0.9186657,-0.7231096,8.119103,-0.39137948,0.17434202,-0.62653804,23.101501,-6.4552164,-41.40885,
30346880,-0.018565308,-0.7693081,9.326595,-1.0142924,-0.07106806,-0.76915026,23.946154,-6.1336603,-40.46298,
30346900,-0.92315793,-0.92231923,11.313047,-1.1802071,0.1152199,-0.62161124,22.790195,-4.6747627,-40.353863,238.0
30346920,-1.3854853,-0.7522403,12.671283,-0.8113596,0.50044584,-0.32173952,23.637314,-4.096607,-41.964508,
30346940,-1.2426549,-0.60192406,12.2700405,-0.24224259,0.45610422,0.001967404,24.94245,-3.3925762,-40.547325,
30346960,-0.36111876,-0.48155117,10.363239,0.08359489,0.014685657,0.20090537,23.404713,-3.4965744,-41.048653,
30346980,0.6063551,-0.18930283,8.69389,-0.0068193506,-0.37999445,0.20476696,23.866781,-3.714159,-41.266796,
30347000,1.086349,0.10743707,8.537285,-0.28005946,-0.40476185,0.12327428,22.868149,-4.1808257,-41.90529,
30347020,1.1477333,0.21074209,9.223889,-0.42799795,-0.11847228,0.046442162,22.867065,-3.5151696,-41.758263,
30347040,0.71774495,0.23829009,10.040149,-0.3068242,0.22587416,0.0034321458,23.018349,-2.3933687,-40.8389,
30347060,0.20361531,0.31105277,10.307545,0.008227501,0.2716805,-0.0044241725,24.018261,-3.1738882,-39.79902,
30347080,-0.074260205,0.23619404,9.441579,0.28626126,0.056630403,-0.011215227,22.632261,-2.7410913,-39.064682,
30347100,-0.19343525,0.31195104,8.485483,0.28120127,-0.30409443,-0.0072204894,20.174034,-3.8334703,-40.660828,221.0
30347120,-0.277277,0.5452107,8.538485,0.15496755,-0.3911797,0.029264785,22.250633,-3.7270913,-40.53302,
30347140,-0.29404536,0.661092,8.318996,0.06282225,-0.17612967,0.112355344,21.635242,-3.9529104,-40.236183,
30347160,0.14851929,0.70540833,8.609449,-0.04223936,0.22906993,0.20103852,22.787024,-3.0405226,-39.521664,
30347180,0.45005018,0.5179622,9.540991,-0.023330936,0.31522316,0.22886854,22.096218,-3.8664107,-39.83881,
30347200,0.85099334,0.6826513,10.084765,0.08306226,-0.01860383,0.1561643,20.787622,-3.728423,-39.176517,192.0
30347220,0.9761571,0.83955514,10.104228,0.24511549,-0.27706337,0.064551644,22.172136,-3.6348653,-39.220543,
30347240,0.56323653,0.9036342,9.140048,0.33406496,-0.28345495,0.02060952,21.326382,-4.086458,-39.004204,
30347260,0.36171693,0.8138038,8.635201,0.17547387,-0.14683492,0.12753534,21.482784,-5.276136,-39.83774,178.0
30347280,0.30272827,0.5383237,10.109318,-0.055288844,-0.11341228,0.15896063,21.557943,-4.2384725,-39.53836,
30347300,0.07515777,0.25086635,11.78226,-0.09297253,-0.24031179,0.181198,20.4824,-5.2129736,-39.55383,166.0
30347320,-0.035333674,0.34219396,13.095881,0.21515495,-0.10635492,0.29025435,20.40251,-4.161431,-38.175114,
30347340,-0.044915583,0.6571993,12.938978,0.7178262,0.022142498,0.4392581,20.405636,-6.0121517,-38.69528,
30347360,0.48208967,1.0021483,11.722973,1.1315478,0.121478334,0.5899929,20.944271,-5.283149,-39.773674,153.0
30347380,1.4896879,1.015024,9.679929,1.205051,0.15743098,0.52354705,20.022831,-7.1995764,-38.845818,
30347400,1.9357175,0.48250055,7.624608,0.7680267,0.1956473,0.26095963,19.561644,-7.066119,-39.323124,
30347420,1.4289026,0.20625055,6.628389,-0.03691306,0.21641994,-0.055423666,20.869255,-7.5529423,-38.665905,
30347440,0.1122877,0.22721097,8.373195,-0.83799124,0.17580678,-0.20762318,20.870375,-7.495451,-39.749893,
30347460,-0.4156159,-0.33572644,11.278611,-1.0134934,0.25090784,-0.17792897,21.403627,-5.826404,-37.12496,139.0
30347480,-0.80667776,-0.659116,12.4452095,-0.65769535,0.32680786,-0.081522614,21.329247,-5.9337044,-39.292274,
30347500,-1.0570052,-0.67528546,11.863408,-0.28418735,0.17154571,0.020609517,20.328964,-5.9442463,-39.0075,97.0
30347520,-0.9426211,-0.6189918,10.477023,-0.2048252,-0.18598336,0.13033167,20.021732,-5.5205865,-39.948635,
30347540,-0.532096,-0.42915016,9.814075,-0.2988347,-0.32579917,0.18332854,21.250751,-5.8414783,-37.979794,
30347560,-0.3200962,-0.37405407,9.405947,-0.40056738,-0.20968547,0.2248738,19.943468,-5.2867417,-39.024704,27.0
30347580,-0.0011981055,-0.39082247,9.436789,-0.5065611,-0.029789098,0.27507436,19.020067,-4.644358,-39.519405,
30347600,0.29344577,-0.48843822,9.859888,-0.54118216,0.07394094,0.2765391,20.095884,-5.120785,-37.939484,15.0
30347620,0.56952465,-0.4842462,10.813889,-0.35302997,0.08872147,0.1951796,21.095913,-4.672648,-38.538853,
30347640,0.34464908,-0.23751183,10.279997,-0.043704096,-0.11181438,0.08306059,19.635277,-4.8503428,-39.114807,
30347660,0.2748808,-0.08390178,9.162805,0.121811226,-0.29490656,0.05669532,20.788427,-4.752179,-38.622967,
30347680,0.31680167,0.14157264,8.138738,0.102103844,-0.30915445,0.04604269,19.634523,-4.985012,-38.26206,
30347700,0.47909537,0.1825952,7.753066,-0.03464936,-0.050162256,0.06255427,19.789,-4.7017565,-39.190086,
30347720,0.5314964,0.21972512,8.308816,-0.0889778,0.29112154,0.0798648,20.324451,-3.6408758,-37.79617,
30347740,0.5829992,0.23529576,8.787912,0.0047653886,0.26928362,0.023405837,21.01941,-5.0411797,-38.459106,
30347760,0.526406,0.22331832,8.465421,0.071388744,0.041139696,-0.056488927,19.943804,-4.784709,-39.959095,14.0
30347780,0.5698241,0.302968,8.784618,0.109294385,-0.15948492,-0.12799475,19.636051,-5.729007,-38.7177,
30347800,0.087434605,0.4398097,9.158613,0.2339302,-0.229526,-0.23598582,20.403824,-4.6854696,-38.710686,
30347820,-0.311712,0.37093973,8.565433,0.30117497,-0.19650282,-0.24916847,19.863867,-3.9496465,-38.268345,
30347840,-0.26050863,0.29847646,8.198625,0.10996016,-0.101294905,-0.19963372,19.403605,-4.117957,-39.206432,
30347860,0.055395078,-0.003353808,9.555963,-0.22346732,0.06728304,-0.13758211,19.09527,-3.8243337,-38.98535,
30347880,-0.016768716,-0.1614554,11.620865,-0.32679787,0.16874939,-0.13531843,20.249834,-3.8897943,-39.574936,
30347900,-0.14941834,-0.30757958,13.003955,-0.035315145,0.20523468,-0.11547789,20.324945,-3.5027318,-38.416817,
30347920,0.15061533,-0.60132504,12.370352,0.45417342,0.07327515,-0.12160316,20.019089,-4.399963,-38.955708,
30347940,0.088033475,-0.20996386,10.751607,0.5953209,-0.19370651,-0.1927095,20.787344,-4.086523,-38.475933,
30347960,-0.12131424,0.26245874,9.973205,0.33539656,-0.206756,-0.1777958,19.481693,-4.3494844,-39.97563,13.0
30347980,0.13893738,0.47005266,10.284187,0.020211712,0.09870832,-0.03291997,21.173922,-5.4096837,-38.605762,
30348000,1.1788745,-0.149478,10.314432,-0.19869994,0.36569,-0.0121473335,19.942476,-4.6222434,-38.95504,
30348020,1.5843092,-0.5962347,10.624346,-0.38685212,0.42294788,-0.21148476,21.940134,-3.911181,-37.75285,
30348040,1.4259082,-1.3678781,11.45438,-0.4856553,0.24651363,-0.42959747,20.480692,-3.9599967,-39.56838,
30348060,0.43447956,-1.527477,11.771481,-0.45809162,-0.014209617,-0.571677,20.709686,-2.9199986,-39.2652,14.0
30348080,-0.55006206,-1.3999177,11.777769,-0.33851576,-0.0357812,-0.46834645,21.785463,-1.8038788,-39.63828,
30348100,-1.2944571,-1.0250255,11.640628,-0.11241359,0.07447357,-0.21308266,21.401344,-2.467266,-39.253235,16.0
30348120,-1.1648017,-0.70882225,10.7216625,0.1548344,0.112823054,0.100903764,20.860428,-0.77791595,-39.131493,
30348140,-0.06976868,-0.41986763,9.301144,0.22341074,-0.03977594,0.2768054,21.018873,-2.2118697,-41.509792,
30348160,0.9336374,-0.273444,8.298336,0.014619075,-0.17240123,0.22540644,20.170183,-1.8283935,-39.67817,17.0
30348180,1.2486427,-0.18301472,8.277077,-0.28485313,-0.23924653,0.052966904,21.325968,-1.9100671,-41.350883,
30348200,0.8857278,-0.21355703,8.934338,-0.40269792,-0.105023324,-0.073666304,21.093143,-1.5241995,-39.968266,
30348220,0.276378,-0.11564186,9.495177,-0.25768888,0.12174464,-0.11388001,20.093357,-1.3965979,-40.30414,
30348240,-0.26320356,-0.04886791,9.232872,-0.03478252,0.2114931,-0.05875261,21.016342,-1.671618,-39.891087,
30348260,-0.30003402,0.06851054,8.388766,0.06322172,0.14291675,0.02566952,20.861336,-1.441257,-39.123787,15.0
30348280,-0.42759326,0.37093973,7.6623373,2.3801811E-4,0.096311465,0.07706849,20.708235,-1.6704955,-39.511852,
30348300,-0.35842386,0.64641976,7.881224,-0.11734043,0.054499876,0.14790851,21.324171,-2.030839,-39.569736,
30348320,0.04760977,0.6338434,8.355229,-0.19377309,-0.066673845,0.18732326,20.015625,-0.30146217,-40.937813,
30348340,0.66504437,0.39908656,9.095731,-0.22546467,-0.19450545,0.17240956,21.168383,-1.3559341,-38.652843,
30348360,0.59078455,0.49760067,9.837132,-0.14956465,-0.19983177,0.11222218,20.786787,-2.0529075,-40.511436,14.0
30348380,0.72792566,0.39130127,10.062906,0.053767513,0.024938814,0.13232903,20.246489,-0.8783312,-40.30633,
30348400,0.6839087,0.49879837,9.606868,0.247246,0.18566047,0.12647009,22.014515,-1.0540667,-39.022205,
30348420,0.65636075,0.49700174,8.884331,0.20982862,0.106964126,0.123806916,21.782606,-0.46329975,-38.725285,
30348440,0.8465018,0.4242391,9.290065,0.06921382,-0.0801228,0.07959848,21.321108,-0.9769707,-38.111755,
30348460,0.503649,0.35147646,9.802997,0.028201187,-0.12672806,-0.0040246993,21.246204,-1.077321,-39.814865,
30348480,-0.2051132,0.2906912,10.361443,0.028733818,-0.05468963,0.01674794,20.323612,-1.9653602,-39.131092,
30348500,-0.48508477,0.045839053,11.1302185,0.12207754,-0.025261726,0.13712272,21.70931,-2.1770434,-39.867996,
30348520,-0.30632216,-0.23781125,11.322927,0.23552811,-0.1447044,0.25283697,21.323812,-1.5195389,-39.8852,
30348540,-0.1955313,-0.11204864,11.361255,0.26189336,-0.21061757,0.3328649,21.324728,-1.31464,-40.9709,
30348560,-0.2443392,0.5886288,11.690933,0.35843286,0.043181457,0.39425072,21.095318,-1.9872727,-41.355724,
30348580,0.052700162,0.16852178,11.033974,0.4130276,0.23985574,0.38173383,20.400936,-2.2590103,-39.12577,
30348600,0.19433282,0.25835222,9.80659,0.21289125,0.3013747,0.40983018,21.093643,-2.3268423,-39.417282,13.0
30348620,1.587603,-0.55521214,9.518533,-0.3194742,0.0816641,0.30530122,22.17024,-1.8729057,-39.705288,
30348640,2.2409697,-1.231336,10.546193,-0.75663173,-0.028590677,-0.045569975,20.709486,-2.7725897,-39.266907,
30348660,0.83751875,-1.019935,12.132299,-0.7591617,0.1554336,-0.30695897,21.09243,-2.310628,-38.33415,
30348680,-0.5964745,-0.9597485,12.501802,-0.3903142,0.39138946,-0.27273738,21.707314,-1.7162862,-38.635265,
30348700,-1.3690164,-0.63845503,11.647514,0.0035669673,0.37288052,-0.10562421,21.70601,-0.32400703,-39.193096,14.0
30348720,-1.2480446,-0.5582065,10.018888,0.10703069,0.0036335476,0.059358478,21.553381,-1.2107964,-39.18662,
30348740,-0.24374029,-0.84416676,8.866663,-0.1000299,-0.37080657,0.067880586,21.860813,-1.7818661,-38.24378,
30348760,0.26889214,-1.1157541,8.7340145,-0.3988363,-0.39370972,-0.06647577,19.861025,-1.3067064,-38.99546,
30348780,-0.13205111,-1.288528,9.908397,-0.5467748,-0.25336128,-0.15582475,20.014736,-0.651454,-39.695667,
30348800,-0.8042823,-1.2627766,11.398385,-0.3317247,-0.05269226,-0.07925893,20.70687,-0.42215204,-39.83587,18.0
30348820,-0.9881352,-1.3034997,11.603798,0.1734765,0.009891972,0.0681469,20.168407,-1.15347,-38.91221,
30348840,-0.9674742,-0.8633306,9.94912,0.50885695,-0.09272841,0.20556588,19.092955,-1.6950097,-39.551746,
30348860,-0.23116404,-0.5561105,7.9593754,0.53926134,-0.23591757,0.316087,19.856878,0.41281796,-37.39045,23.0
30348880,0.34315193,0.05533541,7.3694897,0.323945,-0.24177653,0.34231913,19.322512,-1.3137188,-38.931393,
30348900,0.89560914,0.25895107,7.7123423,0.12966754,-0.087979116,0.25949487,20.091635,-1.0118608,-39.22529,
30348920,0.90788597,0.24817142,8.387568,0.12034648,0.0481083,0.13938642,20.705849,-0.046679497,-39.37595,
30348940,0.6548636,0.27332395,8.262704,0.19318388,-0.07706016,0.026601627,20.477898,-2.0413623,-39.435905,
30348960,0.36441183,0.530239,8.30702,0.22647338,-0.19383967,-0.0401105,19.246801,-2.1993413,-38.92302,28.0
30348980,0.13714078,0.6545044,8.521715,0.26895073,-0.20728862,-0.058885768,19.24496,-0.7275667,-39.09487,
30349000,0.18175657,0.4281318,8.257315,0.35257393,-0.061081212,-0.050496817,19.629332,-0.93589544,-38.61861,
30349020,0.40782985,0.20415448,8.009981,0.26615444,-0.0550891,-0.09550421,19.63158,-2.2683673,-38.990032,33.0
30349040,0.8018861,-0.32973775,8.445659,0.02553803,-0.1750644,-0.18911424,18.627937,-0.5698085,-37.796547,
30349060,0.40842873,-0.33675307,9.529696,-0.18032414,-0.24151023,-0.31721213,19.704752,0.09829378,-38.551327,41.0
30349080,-0.24044652,-0.39621228,10.226098,-0.16980466,-0.05535542,-0.3072253,20.012505,-0.76643515,-37.52769,
30349100,-0.8554856,-0.44861335,10.589312,-0.018670406,0.2691505,-0.17460002,18.933912,0.6152921,-37.725277,
30349120,-0.57132196,-0.75403684,10.652195,0.061623834,0.22414309,-0.0350505,20.165771,0.40127373,-38.465984,59.0
30349140,0.11857583,-0.9301045,11.087871,0.030331714,-0.11501017,-0.030523127,20.47202,1.5103526,-38.548595,
30349160,0.10090916,-0.38303718,11.323228,-0.055288844,-0.33165812,-0.0660763,19.5499,-0.035235405,-37.470284,77.0
30349180,0.33656436,0.010120755,11.123205,-0.075795166,-0.04696647,0.06548375,19.08831,0.39303875,-37.951015,
30349200,1.7100718,-0.5031105,10.484211,-0.10948412,0.42587736,0.14777535,19.627146,0.5405121,-38.480995,
30349220,2.1352696,-0.95136446,9.979063,-0.23385362,0.6779453,-0.09084368,19.933321,0.6374154,-37.23639,98.0
30349240,1.5175353,-1.6873752,10.27281,-0.4366532,0.39618316,-0.4592917,19.700249,1.8949981,-36.71507,
30349260,0.34255308,-2.3661938,10.999238,-0.7044338,-0.25416023,-0.8150897,20.855856,1.3815198,-37.686348,123.0
30349280,-1.216604,-2.460516,12.157452,-0.79684544,-0.580264,-0.7887245,20.544182,4.1799393,-37.571743,
30349300,-1.8037957,-1.975132,12.822198,-0.5727406,-0.311285,-0.36581483,19.697,4.832756,-37.44561,
30349320,-0.8719547,-1.7418723,11.702311,-0.11281306,0.3296042,0.20050591,18.311378,5.1158276,-36.8643,151.0
30349340,0.44226485,-1.0528729,9.539494,0.07081172,0.65730584,0.42580914,20.079659,5.443284,-36.437195,
30349360,1.7154617,-0.96933043,8.197725,-0.2038931,0.3679537,0.33885702,21.08138,4.710991,-37.10024,171.0
30349380,2.279896,-0.9998729,8.693891,-0.5979075,-0.14616913,0.01554952,19.925648,5.443266,-36.28626,
30349400,1.5735296,-0.7157092,9.749398,-0.71814907,-0.300366,-0.28392267,19.770937,6.3933,-36.688023,
30349420,0.4341801,-0.71301436,10.162018,-0.4840574,0.077136725,-0.37367114,19.233103,6.0154476,-36.774406,191.0
30349440,-0.8438077,-0.43364167,9.870969,-0.15276045,0.41229528,-0.23105896,19.92278,7.290512,-35.998196,
30349460,-1.0075986,-0.16444974,9.283776,0.049240142,0.31575575,0.015150044,19.461277,7.7176285,-36.556297,208.0
30349480,-0.067672625,-0.13929722,8.724133,0.13539335,0.037455656,0.14617746,20.999922,7.158287,-36.047253,
