Timestamp,acc_x,acc_y,acc_z,gyro_x,gyro_y,gyro_z,mag_x,mag_y,mag_z,light
0,-0.033645954,-0.12862647,9.056016,-0.07659411,0.05170356,0.071165144,5.673017,-7.9128647,-46.02992,
50,-0.09498109,-0.20481355,10.225139,-0.18562382,0.039080188,0.07730816,6.6166277,-7.5426583,-46.52662,
100,-0.011139336,-0.36123833,10.18813,0.10471375,-0.10297269,0.10180924,6.2157936,-7.2188706,-46.168903,
150,0.18912265,-0.13115256,8.954817,-0.12644844,0.218151,0.03986416,6.802142,-8.130884,-46.60805,
200,-0.33345097,-0.16708477,10.428997,-0.31803608,0.11551285,0.0024201453,7.1691117,-6.7640214,-46.27426,
250,0.044795077,-0.3168022,10.239153,0.016829502,-0.09146786,7.656589e-05,6.7692275,-6.5107775,-46.689526,
300,-0.22888835,-0.18361355,9.950021,0.12292975,0.08664421,-0.09132304,6.4309287,-6.89408,-46.353027,
350,-0.58607316,0.17299753,9.721157,0.06071835,-0.20832726,-0.031774815,6.6459746,-7.0022535,-45.91308,
400,-0.27033013,0.5012537,9.269941,-0.07973664,-0.13136196,0.06473806,5.847448,-7.554332,-46.545616,
450,-0.29057193,0.7082231,9.841743,-0.018430715,0.20691247,0.04353932,6.5844393,-6.626873,-46.38326,
500,-0.29715943,0.8569824,9.665318,0.1449807,-0.19383967,-0.086476095,6.1847296,-6.7522597,-46.4846,
550,-0.71936256,1.3478159,9.409959,-0.027911568,-0.20917948,-0.07475819,5.724465,-7.6441817,-46.51668,
600,-0.6288134,0.9020173,10.261431,0.03696298,0.11125181,-0.092441574,5.5400114,-7.156911,-47.269775,223.0
650,-0.6440248,0.9391473,10.334254,0.0050050747,-0.1522944,-0.02570281,6.215249,-6.545883,-46.51719,207.0
700,-0.78535795,1.0013099,10.40576,0.13661838,-0.08694048,0.005402884,5.202105,-7.776995,-46.992424,184.0
750,0.029344246,0.72582984,10.61704,0.08002921,-0.17055184,0.013345014,5.879113,-7.7105393,-47.16208,161.0
800,0.29703897,0.3806414,10.276163,0.072755836,-0.13658178,-0.16551864,5.3256593,-7.955261,-47.203957,138.0
850,0.092584886,0.1910393,10.94594,-0.19031098,0.11972064,-0.09627654,5.910236,-7.9463897,-47.18952,117.0
900,1.2296996,-0.20725313,11.542477,0.21885672,-0.09381144,-0.12823442,7.1109033,-8.198613,-47.497215,98.0
950,1.1800122,0.05653315,9.383368,0.42221552,-0.10212048,-0.3554551,6.833824,-8.75046,-46.661995,84.0
1000,0.6242613,0.4044764,8.480515,0.0014364406,0.07998631,-0.27167216,7.203639,-9.216103,-46.616447,
1050,0.91052115,0.5813826,9.479787,-0.14013709,0.3432129,-0.32301784,8.034883,-9.239466,-47.02883,
1100,-0.5855752,1.2715197,8.845106,0.17816368,0.22134678,-0.2377435,9.509822,-8.786702,-45.82119,92.0
1150,-0.56269825,1.7253431,7.499804,0.11802955,-0.16481122,-0.015476282,10.280787,-9.406656,-46.63056,
1200,-0.17115736,1.7835535,8.971106,-0.27228302,0.10741685,0.2334758,9.050797,-9.260951,-47.498573,
1250,1.2074406,1.6714451,9.757662,0.12095902,-0.1343447,0.21829581,9.481022,-9.276484,-46.99244,101.0
1300,0.2521237,1.8421227,9.973135,0.13257039,0.08126462,0.08614986,10.159551,-10.09865,-47.430336,
1350,0.44436088,1.624374,11.600504,0.09555248,0.08893452,0.41750008,10.253642,-10.931542,-48.006447,110.0
1400,0.89638776,1.4741775,12.30717,0.544135,-0.09652786,0.27768427,10.224604,-12.547023,-47.555134,124.0
1450,0.5146681,0.4690346,9.707598,0.4310572,-0.0064065605,-0.13989905,10.041552,-13.236244,-48.10885,134.0
1500,-1.3895671,-0.6920224,10.913221,-0.8725591,0.2594832,-0.23444119,10.194509,-12.44068,-48.29998,143.0
1550,-1.3817124,-0.562219,12.023066,-0.21694258,0.18880299,0.37616786,11.209772,-12.135087,-48.587788,170.0
1600,-0.25847247,-0.1723548,9.127413,0.020078557,-0.24795508,0.24727097,10.870814,-11.785978,-48.569313,194.0
1650,-0.35141706,-0.30805865,9.015543,-0.084370546,0.001849231,0.11911978,11.117723,-12.371414,-48.52544,211.0
1700,-0.2730849,-0.21068248,9.135915,-0.06295875,0.007974495,0.10894649,11.210115,-12.1107,-48.92855,226.0
1750,-0.39776963,0.43154526,8.536566,0.251294,0.17090656,0.26756424,11.764333,-12.426134,-48.880157,
1800,0.38734847,1.1086273,7.530347,0.2777658,0.037056185,0.15139726,11.979704,-12.422865,-48.874836,248.0
1850,-0.046712197,1.4128532,8.099391,-0.0036531528,0.01965689,-0.13703471,11.918955,-13.273674,-48.52602,
1900,-0.28015164,1.2098364,9.74748,0.14226428,-0.240658,-0.021867862,12.535051,-13.390139,-49.03554,
1950,0.8887221,0.49873835,9.073994,-0.1291116,-0.7217843,-0.2330031,11.826602,-12.463946,-49.497223,
2000,-0.38243848,0.07581676,12.340227,-0.3502603,-0.025155198,-0.05867272,12.0397215,-11.0123625,-49.261116,265.0
2050,2.2187798,-1.3429619,11.877591,-0.5689589,0.2467533,-0.041894816,11.82334,-10.075918,-49.52497,
2100,0.35800397,-1.873025,13.0444975,-0.43116707,0.25708634,-0.45372567,13.788564,-7.7077074,-48.88445,
2150,0.62725574,-0.9027363,9.402652,-0.06892421,0.019106496,-0.30048752,14.003084,-7.0563035,-48.917614,
2200,0.29416442,-0.48412633,8.425537,-0.49865156,0.3619083,-0.43870544,15.292353,-5.550094,-48.06726,
2250,-0.08575849,-0.57743025,8.776354,-0.68517923,-0.30015296,-0.5142859,15.751123,-3.3646789,-48.29782,238.0
2300,-1.3657824,-0.85207194,10.923781,-0.1758767,0.14880233,-0.15603782,16.179035,-1.6126921,-47.90507,212.0
2350,0.085997306,-0.109952606,7.351285,0.59633285,-0.5852174,-0.009137964,16.578241,-1.2201163,-47.683033,196.0
2400,-0.5346712,0.48029336,7.8186417,-0.26802197,-0.09508975,0.27384928,15.901495,-1.3768713,-47.63613,
2450,1.2700822,-0.030662268,10.793825,0.13933481,0.093888,0.33153334,17.77726,-1.0162134,-47.067463,171.0
2500,0.3750118,-0.09881364,9.550814,0.43649012,0.061503984,0.18063875,18.177914,-1.8586308,-46.6144,157.0
2550,0.24888985,-0.29164964,11.432342,0.076004885,-0.14350598,0.25765732,18.299932,-1.9874945,-45.495564,146.0
2600,0.5464839,0.3435808,11.691878,0.5306593,-0.036340468,0.43821946,19.438496,-2.7251642,-44.684875,130.0
2650,1.3711716,-1.2863723,10.466963,-0.42371026,-0.1579403,-0.13824789,19.899887,-3.0060303,-44.205853,118.0
2700,-1.9065619,-1.2588242,12.666131,0.018267607,0.105712436,0.16103789,20.4831,-1.3001848,-45.07779,92.0
2750,0.60952914,-1.2000153,9.351868,0.10114511,-0.34196457,0.4334258,20.17854,-3.632991,-44.996437,46.0
2800,0.5979111,-1.1409667,8.802465,-0.43942285,0.046004407,0.043059953,19.377731,-3.6625671,-44.211235,20.0
2850,0.514788,-1.2601416,10.330302,-0.18604994,-0.07538238,-0.04359924,19.777231,-2.8107896,-44.83022,17.0
2900,0.1655272,-0.7658345,7.7046165,0.33092242,0.14336947,-0.061548937,20.177202,-3.1520162,-44.382984,
2950,-0.32722273,-0.022158332,7.796365,-0.14338021,-0.007684881,0.09750083,20.700289,-3.376227,-44.11975,
3000,0.37357453,-0.113905154,9.115675,-0.016353454,0.020438079,0.22069266,19.623785,-3.773517,-43.987164,
3050,0.8187742,-0.2679344,8.964519,0.24911025,-0.24561147,-0.09238831,18.086563,-4.304076,-44.421642,16.0
3100,-0.21870756,-0.7445148,11.439169,-0.229779,0.15071982,-0.16562517,17.65516,-3.5781999,-44.750305,
3150,0.66991407,-1.07719,11.674101,0.4805387,-0.00038781762,0.093500175,18.363056,-4.149685,-44.230843,
3200,0.72786576,-0.6461805,10.46912,0.05033204,0.21761838,0.03341931,17.53352,-5.075301,-44.178856,
3250,1.0808396,-1.5860467,11.339638,-0.3435492,0.06975977,-0.23566625,16.76419,-4.477122,-44.823967,
3300,-0.066235326,-1.4638771,10.899111,0.08676405,0.023740392,-0.1804856,16.487877,-4.2865324,-45.606873,
3350,1.2749931,-1.0417938,8.769648,0.046869952,0.0035003826,-0.06884598,15.410868,-4.416632,-45.353584,
3400,0.33991802,-0.841891,10.1941185,-0.43723908,-0.0795369,-0.5702123,15.380037,-3.518914,-46.417133,
3450,-0.93136245,-0.20888586,8.93781,0.2025582,0.20302424,0.052807115,14.241018,-3.3251846,-46.138176,19.0
3500,0.83781826,0.19151837,7.75588,-0.11632843,0.043128196,0.036082473,14.424215,-2.4931865,-45.89564,22.0
3550,-0.5975524,0.80739594,9.729036,0.18657924,-0.07990974,0.10058417,14.240222,-2.417271,-46.551105,26.0
3600,1.694561,0.86752236,8.191618,0.2969405,-0.0571131,0.33808467,13.133577,-2.9970138,-46.757637,30.0
3650,1.1980982,0.30877706,11.659074,0.11334238,-0.049176883,-0.13286832,12.704651,-3.230307,-48.127533,35.0
3700,-0.18892796,0.004557567,9.660639,0.7170272,-0.36113936,0.019091526,11.567327,-4.101166,-48.052868,44.0
3750,0.0136538595,0.46292606,10.3673115,0.03744235,0.14651203,0.34309146,11.783833,-4.778758,-48.22536,
3800,2.2340226,-0.8039228,9.92319,-0.191323,-0.24481253,-0.04770051,11.505865,-4.132045,-48.085,58.0
3850,-0.9911296,-2.0696936,12.640381,-0.60560405,0.18022761,-0.4061617,11.567376,-3.8123696,-48.458607,77.0
3900,-1.1772583,-1.6666543,10.975882,0.025617922,-0.28353482,0.24375561,10.6134615,-3.1303988,-49.2331,104.0
3950,0.021798497,-0.99544114,8.750842,-0.23957944,-0.103452064,0.34644705,10.706641,-3.9222279,-49.0359,123.0
4000,0.3382412,-1.2269641,9.381333,-0.47372428,-0.07325184,0.20785621,9.412488,-2.1794152,-49.521606,145.0
4050,0.30889654,-0.9978366,9.050996,-0.18255824,0.051378068,0.17283863,9.810091,-1.5628618,-48.125977,164.0
4100,0.50197214,-0.61839294,8.195811,0.21411629,-0.08816554,0.13334103,10.025045,-1.9303493,-47.280647,176.0
4150,0.07713405,0.36758605,8.3045635,-0.07137432,0.08808233,0.22761686,10.055836,-1.872309,-47.373413,
4200,3.172451,-0.03221933,9.545063,0.18572703,0.24057479,-0.06607629,10.978446,-1.3608164,-47.604015,191.0
4250,-0.096765116,-0.33005294,9.221131,0.048308037,0.27610132,-0.680467,11.346713,-1.3427051,-46.75933,
4300,-0.29536286,-1.597904,11.732255,0.05368762,0.17026737,-0.13324116,12.021989,-0.38484573,-46.475048,207.0
4350,0.32075423,-0.6386347,11.285377,0.24666008,-0.05791205,-0.09489168,11.929636,-1.0223386,-45.634247,
4400,0.29967403,-1.9224917,11.717043,-0.21087058,0.045738082,-0.3371858,12.573349,-0.08330917,-44.607647,
4450,0.10803572,-2.4887826,12.019352,-0.08026926,0.17564699,0.02825278,12.632284,0.994257,-43.59722,226.0
4500,0.8948307,-1.2033688,9.936006,0.40522462,-0.10387816,0.09919932,12.538457,0.8105728,-41.987877,
4550,1.1258745,-0.2702101,7.692041,-0.09017621,0.020757655,0.02095573,12.445689,1.2495464,-42.119087,
4600,0.9135154,-0.4033987,10.109678,-0.3691687,0.53538656,-0.08503799,12.996157,2.6050158,-40.759155,
4650,-0.14887935,0.21164039,8.089452,0.2555018,-0.08821879,-0.27790394,13.210335,2.85572,-39.98291,
4700,-0.8142236,0.5157465,8.194971,0.037016243,0.32249355,-0.08780769,12.994214,3.1519022,-39.68219,208.0
4750,0.34662536,0.66558355,9.426247,0.12069269,-0.025261726,0.076775536,14.347325,3.4705079,-39.435547,194.0
4800,0.6009496,0.61401767,9.731117,0.18045399,0.081424415,0.0064148866,14.3759365,4.2233076,-38.42211,180.0
4850,0.05198152,0.56114084,10.475107,0.38226813,-0.2438538,0.04748079,14.34431,4.7263474,-38.273964,168.0
4900,0.03233859,0.25883132,10.332337,0.119254574,-0.005234763,0.13030502,13.605716,4.3991804,-37.73139,157.0
4950,0.14780071,0.12791833,12.136132,0.08489984,0.0148987,0.21669789,14.866617,4.773032,-37.64245,145.0
5000,0.24888977,-1.0608379,11.256991,-0.31473374,-0.0066196383,-0.19513297,14.527153,5.9683123,-38.221886,133.0
5050,-0.75709134,-0.89638805,11.791305,0.0732352,0.15988104,0.122049235,15.263309,7.6305,-38.222828,120.0
5100,-0.30326793,-0.48903704,8.675145,0.20676598,-0.37168542,0.03421826,14.617605,7.673172,-38.67272,107.0
5150,-0.4037583,-0.7852379,8.181078,-0.42875248,-0.0519525,0.06388585,14.525668,7.5800834,-38.890602,92.0
5200,0.22134188,-0.69852173,9.789762,-0.2767039,0.13308969,-0.0068476535,14.493014,8.936243,-38.876163,50.0
5250,-0.65887666,-0.20601127,7.727015,-0.007724826,0.21500845,0.009131308,15.598871,9.8159,-38.33265,21.0
5300,-0.19271661,0.22780986,9.757781,0.16351628,0.05564504,0.13158336,17.013357,9.877052,-37.617207,16.0
5350,-1.1215256,0.7354308,9.475555,0.86637723,-0.63629687,0.14101093,15.754397,9.332628,-39.251762,15.0
5400,1.4645952,0.66881764,7.6151457,0.37481132,-0.5172004,0.32130677,14.894285,8.867136,-39.94874,
5450,0.94070417,-0.23847005,12.0428295,-0.2679687,0.44835442,-0.27231127,15.633516,8.954279,-40.767082,
5500,0.068150975,-0.030063385,12.008453,0.50029933,-0.409662,-0.18778266,14.618399,8.791461,-40.790455,13.0
5550,1.1930679,0.30877703,9.2661085,0.15925524,0.16866949,-0.11262832,16.342304,8.428786,-41.1148,
5600,1.5737092,-1.851825,10.728189,-0.8651022,0.15189159,-0.5244059,15.387373,9.529524,-41.491783,
5650,-0.58940786,-1.6617439,13.43101,-0.30104512,0.5238284,-0.44349918,15.784434,10.992712,-40.663124,15.0
5700,0.10971252,-0.35081795,8.239287,0.2410142,0.05314166,0.047267742,17.074055,11.944326,-39.434906,16.0
5750,0.24158362,-0.086956024,8.063699,-0.50147444,-0.059829522,-0.22810288,17.29031,12.196252,-40.546745,
5800,-0.837819,-0.11761816,8.964399,-0.38466832,0.25026867,-0.11087062,18.518515,13.434802,-39.78767,14.0
5850,-1.1989373,0.19666862,8.426135,0.013420656,-0.5863361,0.3149152,17.196457,13.2575865,-40.468513,12.0
5900,1.1058912,0.669492,9.060887,-0.13944465,0.06571178,0.6429098,18.521368,11.746927,-40.263298,
5950,1.9955533,0.5479655,10.2547245,0.15254407,-0.051680267,0.14686987,18.491726,10.74732,-40.03579,11.0
6000,0.3947745,0.65061194,9.96415,0.428181,-0.09844533,0.07118291,18.83135,9.9840765,-40.142315,
6050,-0.26230526,0.16804266,10.168127,0.39515784,0.19828385,0.37595484,20.464884,8.957503,-41.38982,
6100,-0.03880714,0.2807499,11.181173,0.28053546,-0.4191962,0.48162895,19.94406,7.299047,-41.35262,
6150,1.1620462,-0.6343228,9.48949,-0.33529335,0.13878885,0.30229184,20.4701,5.7909045,-42.157795,10.0
6200,0.74140024,-1.5771832,12.510304,-0.9011614,0.31210718,-0.11284137,20.067545,6.398097,-40.596237,
6250,-0.7059479,-1.1457574,12.464552,0.085355535,-0.18570225,-0.023051482,21.421398,6.8225846,-41.155586,
6300,0.108035706,-0.9535204,8.542077,0.22940283,-0.07431711,0.15730946,21.423233,5.929792,-41.702354,
6350,0.5706028,-0.7730211,9.179633,-0.19947226,0.09926758,0.08513786,21.88751,4.5105505,-42.417236,
6400,0.18912265,-0.30793887,8.63622,0.23787169,0.12946782,0.045989428,22.872608,3.8525062,-42.044636,
6450,-0.024522498,0.31962606,7.570018,0.3418414,-0.24193633,0.016108781,23.982265,2.8000946,-42.531044,
6500,0.034135208,0.7884716,8.544232,0.18333021,-0.25780877,0.10473871,23.215815,1.2180103,-43.05799,
6550,1.2018112,0.4243589,10.893359,0.40650287,-0.32918137,-0.014357755,21.587345,1.3377262,-45.26659,
6600,0.2502073,0.76307946,9.328512,0.5476502,0.096071795,-0.20908792,21.592882,-1.8910792,-46.250496,
6650,0.21427517,0.7115768,11.186926,0.120959,0.023261026,-0.22069928,21.62321,-2.1452932,-45.53489,
6700,0.17307296,0.6613914,11.830831,0.43883365,0.2597495,-0.13494557,21.840391,-2.8897252,-46.232777,11.0
6750,2.2929513,-1.0501778,9.868213,-0.309514,-0.16939187,-0.41447073,21.93432,-3.6046898,-46.810272,
6800,-0.720201,-1.1963019,12.014681,-0.46994266,0.61288434,-0.64387524,22.210354,-2.6626287,-47.18575,12.0
6850,-0.5556315,-0.51035684,9.661124,0.05667036,-0.3032955,-0.032999866,21.501339,-2.0473008,-46.746216,14.0
6900,0.38662982,-0.12528367,8.036271,-0.5253364,-0.0062467693,0.017387098,20.948399,-2.067287,-47.533558,16.0
6950,0.33440843,0.4689148,9.523984,-0.39771783,0.31248006,0.09504481,20.764072,-1.8711278,-48.035664,26.0
7000,-0.10105173,0.83730155,8.773556,0.3195774,-0.05439669,0.10143638,21.625036,-1.3301607,-48.206226,38.0
7050,0.23499608,1.1686339,8.24827,0.15254407,0.013993236,0.23853584,21.13612,-3.3217149,-48.78343,46.0
7100,1.2749932,1.178575,9.798387,-0.019442722,0.00792123,0.19091853,21.136463,-3.2973285,-49.124187,57.0
7150,0.97843295,0.30338722,12.24884,0.51574564,0.039133452,-0.08407925,20.029713,-4.0493307,-49.019188,75.0
7200,-0.24793234,0.68594515,10.449715,0.8929555,-0.3480898,0.19976023,20.494446,-6.6035385,-48.73043,83.0
7250,0.027188325,1.3886589,10.298681,0.561552,0.26651397,0.29813734,19.820614,-7.4937987,-50.408344,
7300,0.3277011,0.5482051,9.402054,-0.10461054,-0.19708872,0.21520655,19.329859,-8.910837,-50.032707,95.0
7350,0.20241754,-0.24385984,11.616315,-0.51847136,0.24253371,-0.12821667,18.374914,-7.5784135,-50.69094,119.0
7400,-0.9078868,0.23092398,10.507925,-0.038777255,-0.20790115,0.08577701,18.159145,-7.4895296,-50.449715,147.0
7450,0.4148965,0.34794313,8.049327,-0.16751435,0.074180625,-0.010469546,16.836899,-7.4037247,-51.288372,171.0
7500,-0.55946434,0.32734203,9.769879,-0.4422458,0.1969523,-0.08200199,17.050207,-6.041514,-51.113136,192.0
7550,0.35724112,0.3715701,7.9038706,-0.20011143,-0.26947337,-0.014304492,16.988745,-5.319764,-52.08255,208.0
7600,-0.07174494,0.48616225,9.164782,-0.207515,0.27956346,-0.07869967,17.081154,-5.522419,-51.923145,
7650,-0.10228728,0.59755206,9.724964,0.5161718,-0.40193892,-0.06857967,16.557734,-5.5542803,-51.56436,
7700,0.30182993,0.7443949,7.8967347,0.42626363,-0.25642392,-0.15870097,14.743955,-7.019951,-51.15916,223.0
7750,-0.25691548,0.26422113,10.166211,0.018533926,0.041317243,-0.1722298,15.266339,-6.829563,-50.776936,
7800,-0.27140808,0.2763183,11.625056,-0.07430379,-0.13024345,-0.038379442,14.404825,-7.0448394,-50.517303,
7850,1.561133,0.26865277,11.446235,0.076217934,0.08291578,0.15192989,14.651739,-7.109334,-51.129475,
7900,1.4814835,-0.7742187,10.903059,-0.45646706,0.31514326,-0.41947746,14.834175,-5.919847,-50.643456,
7950,-0.14983755,-0.429749,11.290649,-0.19968532,0.15924191,-0.3245092,14.708216,-4.580673,-49.702557,
8000,0.41681296,0.03952525,9.02776,-0.2740407,0.16451499,-0.14490578,16.030073,-4.256049,-49.02343,
8050,0.27847403,0.45166737,9.596088,-0.3397142,-0.062386148,-0.18964687,15.720369,-3.2495346,-48.45469,201.0
8100,-0.35913306,0.6870167,9.453998,0.11456742,0.042595558,0.08007786,14.397229,-2.659759,-49.113483,183.0
8150,-0.01545119,1.1322229,8.112448,0.32256013,-0.113785125,0.10623008,15.227099,-2.9543126,-47.944176,
8200,0.386031,1.7600777,8.018664,0.115206584,0.054899357,0.19464694,14.735147,-3.1976368,-47.953594,161.0
8250,1.3184711,1.4431559,9.418223,-0.04431663,0.035085447,-0.02405165,14.55086,-3.4072738,-47.986702,149.0
8300,0.023355545,1.0669459,10.703995,0.24373063,-0.1383927,-0.039071873,14.673571,-3.3427372,-47.736767,136.0
8350,-0.13534488,0.6702546,10.467921,0.38754117,-0.047152895,0.17131767,13.873711,-3.8191743,-47.25591,126.0
8400,0.21834747,0.98011005,10.938154,0.08660425,-0.032292467,0.27986807,13.50441,-4.055073,-46.89093,117.0
8450,0.7261889,-0.052101802,10.955523,-0.31530192,0.08753783,-0.043291494,14.026215,-3.5675507,-46.3574,98.0
8500,-0.20529287,-0.40830946,11.575232,-0.46184665,0.118708655,-0.074651666,14.424685,-2.5862641,-46.20407,35.0
8550,-0.74427545,-0.46376485,11.321909,-0.3130826,-0.14702134,0.027080994,13.407054,-0.83415353,-46.342537,15.0
8600,-0.17187598,-0.41944838,9.8543215,-0.05156042,-0.27575845,0.15906714,13.098203,-0.4757761,-45.73531,
8650,0.102816105,-0.07298031,8.570442,-0.00090714,0.09298252,0.1760581,13.099744,-1.104159,-46.347057,14.0
8700,0.33644462,0.38100073,8.806177,0.1629304,0.023207769,0.21856213,13.099698,-1.7692693,-45.472675,
8750,0.5562297,0.6290525,7.949912,0.300882,-0.08257292,0.0046571977,13.439346,-1.9249771,-46.360058,
8800,0.12216904,0.50604475,8.8881035,0.33182794,-0.037458997,0.053020157,12.825521,-2.9965873,-46.424824,
8850,0.7530184,0.15774211,7.922126,0.23899022,-0.21125674,-0.10383989,11.685949,-2.2454834,-46.338055,
8900,-0.42459893,-0.055934567,10.129799,-0.261151,0.20835057,-0.009191228,12.02508,-2.5969083,-46.51126,13.0
8950,0.6756444,-0.16864184,11.524567,-0.12074927,-0.29152435,0.1854324,11.99383,-2.2435932,-46.516132,
9000,1.3976414,0.30458492,10.880185,-0.0020256639,0.013620382,0.061169423,11.901858,-2.3362195,-46.703064,14.0
9050,1.0409548,-0.4717897,10.332697,-0.7205459,0.22805794,-0.3858684,11.654783,-1.6038358,-46.77959,16.0
9100,0.002395104,-0.78068656,12.279023,-0.40922266,0.20084047,-0.3148686,11.930064,-0.36232376,-46.849037,
9150,0.5597031,-0.52999973,9.974692,-0.14413181,0.23242553,-0.1391001,12.606789,-0.26314336,-46.802406,15.0
9200,0.38409573,0.07806093,9.958307,-0.1681535,0.13708444,-0.17808875,12.359149,0.33202305,-46.19639,14.0
9250,0.17451021,0.3762098,9.111841,0.08303563,0.20765813,-0.2519115,12.081691,0.6825291,-46.145447,
9300,-0.34099674,0.8853688,7.9119463,0.25257236,0.027309027,-0.22709088,12.9439945,0.56887376,-46.710793,
9350,-0.32087475,1.1982181,8.247912,-0.00016145362,0.09415431,0.085457444,13.805441,0.032448195,-45.97123,
9400,0.7932623,1.0167606,9.825095,0.12889521,-0.07170722,0.06676206,12.545301,-0.69889146,-46.30363,
9450,0.4577756,0.89507043,9.957804,0.38647592,0.023740392,-0.049245134,13.283644,-0.86040705,-46.00482,
9500,-0.101808205,0.54281527,10.782328,0.29262623,-0.23485231,0.020529624,12.329766,-1.481492,-45.18563,
9550,-0.53658754,1.0282589,11.371017,0.43630067,0.073571056,0.25930253,11.716346,-2.674272,-45.46565,
9600,1.0882655,0.04707099,9.778861,0.028600663,-0.13317294,0.1085204,11.809523,-3.263434,-45.51842,
9650,-0.91998386,-0.74798834,11.531754,-0.7338084,0.124407806,-0.27438858,12.48452,-1.9255543,-45.45521,
9700,-1.0486209,-0.51454896,11.786633,-0.1496179,-0.068564676,0.2712927,12.914472,-1.9663988,-44.670227,15.0
9750,0.27478623,-0.26537505,9.017768,0.14737755,-0.34856915,0.23193116,12.361208,-2.4741416,-44.55429,16.0
9800,0.013414314,-0.004072462,8.515606,-0.31249672,-0.04502236,0.11581744,11.468645,-2.4835124,-44.29781,21.0
9850,0.3338096,0.024074417,9.226824,-0.06684695,0.058840822,0.02574942,12.05202,-1.9955204,-43.79371,30.0
9900,-0.023476053,0.29979402,8.351876,0.1642087,0.11375517,-0.049511448,12.176333,-2.87857,-43.81134,39.0
9950,-0.116660155,0.6104876,9.046683,0.37848645,0.0074418625,0.014297834,11.930918,-4.1365895,-42.905243,48.0
10000,0.022876471,0.9367517,8.260727,0.5286886,-0.15463798,0.117042504,11.501547,-5.145508,-42.904236,54.0
10050,0.701875,0.27739623,9.823657,-0.07510273,-0.082572915,-0.12093737,10.641615,-6.5686126,-42.568665,63.0
10100,-0.65588254,-0.29979432,12.112897,0.19094682,0.27418384,-0.06559694,10.5802355,-6.832103,-42.38142,83.0
10150,0.6504918,0.4084289,11.799567,0.51233685,-0.2248921,0.27283725,9.135256,-8.518298,-41.31449,94.0
10200,2.8193576,-0.21116157,8.8248625,-0.13864572,0.32078916,-0.3152414,8.705123,-9.546043,-40.60137,102.0
10250,-0.7188834,-0.73121995,12.245247,-0.6985482,-0.19996496,-0.56936,8.6092415,-7.5025434,-39.915504,128.0
10300,0.38270885,-0.2910949,9.6284895,-0.07441031,-0.034050144,0.13712272,6.487077,-7.9502854,-40.148823,152.0
10350,1.0299356,-0.06707354,9.15939,-0.56800014,0.07423389,-0.050470185,6.485138,-7.0561028,-39.50921,169.0
10400,0.15426844,0.7000784,9.491764,-0.11750023,0.07455347,0.07128943,6.114773,-6.4384184,-39.247,182.0
10450,0.69888055,1.0882658,8.055674,0.14157186,0.18060045,0.033152994,6.26663,-5.8887353,-38.13529,
10500,0.7301415,1.3987199,8.759464,0.046656877,-0.04464952,-0.10985862,4.7258444,-5.011412,-37.100426,193.0
10550,0.61024785,1.2245684,9.696337,0.23153336,0.10725705,-0.07507779,4.726247,-5.30623,-37.096996,
10600,0.5346705,1.2267244,10.207891,0.2116662,-0.018444046,-0.00040280298,4.8478293,-4.4162016,-36.856655,
10650,-0.13139236,0.68858016,11.901615,0.5504022,-0.31708473,0.0010944828,4.2615056,-3.9965775,-35.823704,
10700,-0.4079503,1.2648125,10.217714,0.6866139,-0.2948799,0.27592653,3.336394,-3.5774567,-34.48964,
10750,2.3444543,-0.3018305,9.576803,-0.29151106,-0.093864694,0.012060803,3.4892502,-2.983169,-34.33795,
10800,-1.4813644,-0.39561337,12.262136,-0.6573225,0.06981304,-0.44898534,4.255104,-1.161524,-33.56618,208.0
10850,-0.5423242,-0.47277296,10.556547,-0.28112468,-0.06696679,0.24796338,5.2043114,1.0268959,-32.113125,
10900,0.07605608,-0.28446323,10.1124325,-0.27206996,-0.061001312,0.18564546,4.9876127,2.170175,-32.348423,191.0
10950,0.65875614,-0.25392085,9.922951,0.022581931,0.07125115,0.12966585,5.8175774,3.0321956,-32.709198,174.0
11000,0.23451698,0.19355455,8.435358,0.28751296,0.086005054,0.07650922,6.494189,2.9881368,-32.382328,162.0
11050,0.32710224,0.6090503,7.913143,0.1566986,-0.044596262,0.06953174,6.6478033,2.8776398,-32.03675,
11100,0.23367858,0.9819063,8.679936,0.25960308,-0.023876885,-0.067407876,7.817547,2.713859,-32.315285,144.0
11150,0.044675305,1.4098588,8.378466,0.48985976,-0.137647,0.037999947,8.864723,2.2810214,-32.71756,
11200,0.93926686,0.9008196,9.80701,0.005431184,-0.2049717,-0.22639844,8.401858,2.842048,-32.209373,125.0
11250,-0.41274136,0.44364247,11.645419,0.1937165,0.112050734,-0.26112604,9.478314,3.1241891,-32.154915,113.0
11300,0.46065012,0.72678816,12.189071,0.32698095,-0.12752701,-0.0529203,9.3890915,2.068689,-33.630653,106.0
11350,1.6053295,0.7640377,8.234019,0.2213068,0.3608963,-0.26751763,10.61949,1.9754604,-33.196575,
11400,-0.9534638,-0.55018485,10.801013,-1.2773591,0.07013262,-0.72680604,10.003429,3.3650355,-34.31134,84.0
11450,-0.8999816,-0.24098527,12.376638,-0.054063786,0.2561276,0.17776254,11.07867,4.0106874,-33.611107,58.0
11500,1.0772464,0.07917042,7.802353,-0.20788781,-0.19895293,-0.056222606,11.479546,3.6574166,-33.968483,38.0
11550,-0.8004494,0.41920862,9.739457,-0.49859825,0.23120046,0.026282048,11.878543,4.052772,-33.560745,24.0
11600,0.08456003,0.45741647,9.56758,0.21677944,0.08126465,0.26788384,11.264529,3.2441819,-33.78333,16.0
11650,-0.27440244,1.0956917,7.9533873,0.17118618,-0.15053673,0.25382233,13.050049,3.199792,-34.574127,13.0
11700,0.359561,1.4287832,9.411516,0.0954992,0.035405032,0.5065561,13.145584,2.058184,-36.075222,12.0
11750,1.603533,1.611079,9.404329,0.51737905,-0.285186,0.47578776,12.962802,0.8733307,-36.25177,
11800,1.3971626,1.6156304,10.032184,0.10716385,0.1803874,0.20215705,13.394778,0.95024586,-37.449078,
11850,-0.13893814,1.1442003,12.407539,0.67452323,-0.13642198,0.34309146,13.150175,-0.37646502,-37.192177,
11900,1.448306,1.946805,8.746173,0.6669598,-0.18318704,0.459791,12.844684,-2.0021703,-37.149994,
11950,0.64079005,0.27587706,9.492829,-0.6676556,0.47482625,-0.16061842,12.723485,-2.897294,-37.73075,11.0
12000,-0.7473897,-0.43729478,12.870227,-0.62254167,-0.10835229,-0.03901861,13.21434,-1.7999233,-37.79315,
12050,0.08587755,0.0742597,10.363479,-0.057419367,0.15625918,0.1823964,13.338966,-2.513494,-38.30799,
12100,0.4695135,0.39633173,8.99614,-0.16043034,-0.007684879,-0.12573105,13.799103,-1.6777576,-38.08955,12.0
12150,-0.50652426,0.22948667,9.083095,-0.34679818,-0.14020365,-0.26560012,13.245715,-1.8943872,-38.224617,
12200,-0.21200022,0.17415112,8.76294,0.15723124,-0.10984367,-0.11811443,12.906421,-1.0487201,-38.521423,10.0
12250,-0.20110075,0.59827054,8.638735,0.120266594,0.09788273,-0.033212915,13.185776,-2.437575,-38.993645,
12300,0.15762211,1.1099448,8.308996,0.43920645,-0.25583798,0.06255426,13.585306,-2.107205,-38.987526,
12350,0.62773484,0.92705,8.748568,0.0047920123,-0.17743462,-0.07044388,12.542372,-4.1043844,-39.39273,
12400,0.14780068,0.46496224,10.976721,0.033128034,-0.072080046,-0.17031235,11.649086,-3.4094348,-39.36109,
12450,0.011857247,0.24769232,11.233156,0.06652404,0.045365248,-0.14426662,12.69682,-4.3996477,-39.571186,
12500,0.7601858,0.5794724,11.459896,0.007029074,0.14342275,0.060636796,13.0669,-4.6082926,-40.085762,
12550,2.4009876,-0.35381234,10.906295,-0.37774414,0.2653954,-0.3432046,12.91069,-3.6238296,-39.172462,
12600,0.6255789,-0.6468991,11.254477,-0.23984568,0.08531262,-0.56248915,14.20255,-2.7889194,-39.830963,
12650,0.7962568,-0.139417,8.6885605,-0.20458551,0.21538131,-0.50342023,13.95551,-2.6069622,-39.25111,
12700,-0.5449717,0.38028207,9.225386,-0.6212634,0.16478129,-0.49282083,15.124542,-1.574497,-40.379242,13.0
12750,-1.158813,0.7834412,9.460502,-0.15409201,0.058148403,-0.13963273,15.36897,-0.41911754,-40.262726,19.0
12800,-0.5471276,1.0164012,8.268393,-0.08618148,-0.43368372,0.094245866,14.569601,-0.9310585,-40.18383,25.0
12850,0.35357225,0.9941236,10.074705,-0.07188919,0.012495947,0.15786576,15.0303135,-0.56610376,-39.898018,36.0
12900,0.80811435,1.1077888,9.68472,0.3742787,-0.09146785,0.105271325,14.015884,-1.0564638,-40.134247,45.0
12950,0.33416885,1.0376016,9.299047,0.18929565,-0.08326532,-0.05339967,14.632146,-2.0434847,-39.705097,53.0
13000,-0.1414534,0.5361079,11.319513,0.19653945,0.21069415,0.18932064,14.572133,-2.933042,-39.97486,66.0
13050,0.13811786,0.81069916,11.2881775,0.51723707,-0.0791108,0.31299773,14.358975,-4.1814957,-40.43,75.0
13100,0.9808283,0.42591605,9.186579,0.073128656,0.082489684,0.083433434,14.884354,-4.783578,-41.77189,83.0
13150,-0.7221174,-0.43909135,12.651039,-0.52246016,0.1360192,-0.09361336,16.050777,-3.7163672,-40.57902,100.0
13200,-0.58329946,-0.155826,10.152796,0.17251776,-0.14888555,0.16455325,15.589758,-3.5562088,-41.24236,113.0
13250,-0.23559567,-0.03593232,8.732756,-0.32437438,0.17074677,0.21185097,16.297596,-4.0111566,-40.817097,127.0
13300,-0.040124632,-0.3533332,10.017333,-0.19004467,-0.09258638,-0.008019438,16.452265,-3.8172736,-41.80598,141.0
13350,-0.9442981,-0.11821701,9.311744,0.17566028,-0.01796467,0.074325435,16.544043,-3.8089242,-41.339508,153.0
13400,-0.3471052,0.40112275,8.446377,0.32176116,-0.056580473,0.33313122,16.298635,-4.3723507,-41.308136,162.0
13450,0.36423212,1.013407,8.468055,0.29736665,0.008666918,0.30681926,16.084715,-5.610612,-41.08244,
13500,0.45418233,1.1927087,8.269953,0.47483954,-0.27187023,0.14809492,17.100677,-5.5169497,-41.73922,
13550,0.6431856,0.80200607,9.081178,0.025138557,-0.094344065,-0.029271444,16.45593,-6.876433,-41.306175,
13600,-0.32118362,0.28495464,11.257035,0.17118618,0.3834266,-0.0008821733,17.285732,-6.6200967,-40.762306,
13650,0.30709997,0.7503835,11.016485,0.20676598,-0.28156412,0.033579104,17.59402,-6.9420424,-40.905678,
13700,1.8980572,0.3500991,8.850734,-0.26935354,0.15572655,-0.15007232,18.457546,-7.650894,-41.83552,
13750,0.54161733,-0.68295103,11.812024,-1.2816736,0.37650242,-0.60264957,19.007847,-5.5985155,-41.195595,178.0
13800,-0.68390954,-0.15882039,12.219734,-0.2924165,0.4868105,-0.23635864,20.726776,-3.8687425,-39.62522,
13850,0.32326952,0.14540541,8.706526,-0.15339962,-0.23256199,-0.1868239,20.602451,-2.724989,-39.920135,
13900,-0.18457198,0.32841995,9.406606,-0.4209938,-0.04464951,-0.27912897,20.94025,-1.7271988,-40.573296,154.0
13950,-0.59815127,0.06084501,10.159742,0.023806978,0.012377586,-0.10383397,21.216595,-1.8892332,-39.85263,141.0
14000,-0.18229626,0.8585393,8.324328,0.23584767,-0.27288222,-0.03076281,21.124613,-1.9238217,-40.102142,
14050,0.13486508,0.99268615,9.225628,0.13443458,0.15849623,0.062607534,22.263956,-2.3824244,-40.34707,124.0
14100,0.5520376,1.1383312,9.3537855,0.2865542,-0.3361056,0.025483105,22.909687,-2.3675227,-39.990692,115.0
14150,-0.41864178,0.804143,10.07947,0.18689884,0.19396952,0.057441007,22.480246,-2.8255517,-40.61513,107.0
14200,-0.16468951,0.2826663,11.818013,0.35244077,-0.25445315,0.33408996,22.41827,-2.7048526,-40.370445,100.0
14250,0.29811692,0.60150456,9.84869,0.5379032,0.24094763,0.37755272,22.451223,-3.9781258,-40.75727,
14300,-0.2940454,-0.23200223,10.602548,-0.4411273,0.04999914,0.09760145,23.189253,-4.5117865,-39.711292,80.0
14350,-0.7687094,-0.5817421,11.0634365,-0.3209123,-0.0128513975,0.2748613,24.14203,-3.7602668,-39.696293,27.0
14400,-0.27571997,-0.42998853,10.599315,-0.3383826,0.06224965,0.36093462,24.171503,-3.337326,-39.050446,13.0
14450,0.1201329,-0.19870508,9.418703,0.0025017033,-0.32928795,0.3412805,23.61828,-2.7746248,-40.30884,
14500,0.51227266,0.21247883,8.124307,-0.16314676,0.26709986,0.1721699,24.386585,-3.0986662,-39.078815,
14550,0.38794738,0.30781886,8.994463,-0.17300044,-0.09040259,0.04007721,24.44867,-2.6998115,-40.07238,
14600,0.35872257,0.5344312,8.313668,0.09645794,0.009732179,-0.03177481,23.80151,-1.9430901,-40.097237,
14650,-0.00012014508,0.44507974,9.469128,0.10785627,-0.02132025,-0.07310704,24.970404,-2.934974,-38.570942,
14700,-0.081635736,0.7436257,8.899886,0.61870337,-0.36571994,0.09776123,24.29535,-2.6800764,-40.571667,12.0
14750,1.0919787,0.24385957,9.142263,-0.0834118,-0.13077608,-0.0923883,23.619116,-3.5383728,-40.114254,
14800,-0.012696403,-0.52808344,12.69488,0.1429567,-0.20204219,-0.1746799,23.371698,-2.45406,-40.318687,
14850,0.45178685,0.13809922,10.508164,0.33928478,-0.10947081,-0.095051475,23.527235,-3.3716838,-40.706573,
14900,1.1481525,-0.68079525,10.915038,-0.7774843,0.27823186,-0.31422943,23.402111,-2.0436275,-40.5084,
14950,0.074499026,-0.9724447,13.517845,0.051503826,-0.101001956,-0.2891957,22.845959,-0.3130682,-40.573223,15.0
15000,0.6182726,-0.036052108,8.779947,0.19552746,-0.156662,-0.13611737,23.584742,-0.596217,-40.52062,16.0
15050,0.6936104,-0.03916622,9.330309,-0.33329302,0.19436009,-0.2040871,23.644104,-0.13220921,-39.13163,
15100,0.41836995,0.3468651,9.486376,0.002448444,0.21980214,-0.19934075,24.16644,-0.23061752,-38.34368,
15150,-0.32123402,1.1725867,7.298224,0.19131964,0.23370385,-0.10511819,23.705124,0.19395065,-39.071987,
15200,0.25619605,1.2700826,8.245516,-0.19483835,0.1646215,-0.0013615408,24.71984,0.65158635,-39.052044,15.0
15250,0.653398,1.2852559,10.07266,0.053154986,-0.044489734,-0.043386184,24.072292,1.2687746,-38.549103,
15300,0.7285844,1.170191,9.698972,0.3690056,0.0593202,-0.044930816,23.671593,1.7933773,-38.565144,
15350,-0.023236502,0.96765345,10.634647,0.10545943,-0.0036901385,-0.060590196,23.548227,1.3323084,-37.72715,
15400,-0.44520003,0.45514074,12.023067,0.6320725,-0.1541586,0.20705727,24.132296,0.9137766,-36.717278,
15450,0.020241417,1.0694613,9.084652,0.43100396,0.14427498,0.2782169,24.164837,-0.20930786,-36.92013,
15500,-0.12672117,0.3414753,10.781369,-0.52682775,-0.13104239,-0.05196156,23.179617,0.39255255,-37.106373,
15550,-0.5655728,-0.00766568,10.752503,-0.35180497,0.13426147,-0.031295445,23.454723,1.0864178,-36.333748,
15600,-0.95340097,-0.03305775,10.625424,-0.39750478,-0.15655544,0.11736208,22.930918,1.6386343,-36.35317,16.0
15650,-0.14061494,0.01101906,9.792157,-0.14040338,-0.085715406,0.22926803,22.591595,2.0794318,-36.119087,18.0
15700,0.15941873,0.2288878,8.765814,0.027748447,0.08978673,0.2005059,23.175503,1.9524753,-35.329273,20.0
15750,0.35860276,0.44951138,8.346726,0.0768571,-0.07639438,0.11070418,21.882473,2.5225012,-35.368034,23.0
15800,-0.0057369047,0.74400395,8.180488,0.12820281,-0.10776639,0.06756101,22.19006,2.6151524,-35.39241,27.0
15850,0.47729874,0.78212357,9.199995,0.21278472,-0.17828682,0.029051736,22.128387,2.616072,-35.27015,34.0
15900,0.4584942,0.60665476,9.010393,0.008360651,0.06997283,-0.12333421,21.758886,2.7012305,-35.125557,43.0
15950,0.03449451,-0.025152672,11.813582,0.15707144,-0.025368253,-0.206265,21.14149,3.9927979,-34.908245,55.0
16000,-0.06803194,0.013294762,10.289219,0.4244526,-0.07069521,-0.11870034,20.741064,3.8191025,-34.29714,76.0
16050,0.4004039,0.48244914,10.718011,-0.020561252,0.17490128,0.0005559325,20.371525,4.2810388,-34.59026,87.0
16100,1.2531942,-0.4602914,10.572963,-0.20570405,0.17751119,-0.5064562,21.323706,4.6931376,-33.61181,107.0
16150,-1.4564513,-0.46807665,10.742923,-0.59676814,-0.16634995,-0.4350717,19.93545,6.979583,-33.146614,136.0
16200,0.26122662,-0.058689367,11.620984,-0.3889294,0.20158616,0.31901646,20.642149,7.5818114,-33.0122,170.0
16250,0.97172546,0.24002679,9.076507,-0.23467922,-0.31986037,-0.047593974,20.302866,7.993127,-32.77778,196.0
16300,-0.25428042,0.55036116,9.441701,-0.40261802,0.29373145,0.05786711,19.315094,9.786768,-32.142155,220.0
16350,0.043811675,0.8123381,9.393227,0.20852368,0.048507776,0.18388778,20.146118,9.447909,-31.9628,245.0
16400,0.23547515,1.1686342,7.8078623,0.24554154,-0.13525018,0.16540548,19.775707,9.74778,-31.263561,261.0
16450,1.0931764,1.1348577,8.547466,0.06870784,0.13921496,0.25930843,19.89856,9.984112,-31.356104,279.0
16500,0.87997866,0.9317212,9.392113,0.007188863,0.121425055,0.08103659,20.452915,9.493177,-31.212818,
16550,-0.11210877,0.77577543,10.149682,0.28703356,-0.10654135,0.11698924,20.173532,10.477163,-30.209713,299.0
16600,0.34698468,0.68103445,10.7368145,0.21187928,-0.17610303,0.3529984,19.744406,10.188612,-31.331354,
16650,1.3279331,0.533952,11.772619,0.18636619,0.07993305,0.17749617,20.142822,10.360159,-30.116266,
16700,-0.09066926,-0.29823726,10.929532,-0.12517013,0.11514,-0.23785003,20.32719,10.510833,-30.082478,
16750,-0.54592997,-0.562698,10.663752,-0.54019684,0.007175547,-0.022240702,18.723797,12.819786,-29.870518,
16800,-0.684748,-0.3304564,11.33137,-0.10759325,0.3088049,0.16924043,18.813833,13.43028,-28.575327,328.0
16850,-0.06527716,0.2906911,7.990397,0.14226428,-0.25551844,0.19885473,20.813257,13.61128,-28.31102,
16900,-0.21401747,0.13593066,7.776783,-0.44171318,0.032901667,0.030383313,20.350967,14.80145,-29.110123,
16950,-0.19319573,0.25739402,9.571652,-0.13017687,-0.0211072,0.12386018,21.02441,16.275787,-27.810425,
17000,0.3114118,0.42076564,7.571668,0.11398156,-0.36358944,-0.12029819,21.454807,16.634253,-27.92768,281.0
17050,-0.36543062,0.1734325,9.556921,-0.032172613,0.07460673,-0.016275229,21.637451,18.197275,-28.096003,260.0
17100,0.069228984,0.41992727,9.223231,0.46951324,-0.080282584,0.15416694,22.622726,17.85519,-28.284204,237.0
17150,0.78799236,0.33632505,9.564826,0.014166343,0.11295621,-0.018618813,23.082348,19.218822,-28.25761,221.0
17200,0.07270241,-0.04263966,11.8043585,0.036590137,0.07620461,-0.08791421,24.6489,20.753155,-27.77212,204.0
17250,0.5660512,0.021559164,11.837417,0.44304734,-0.07420466,-0.07572284,26.433329,21.504772,-28.572163,185.0
17300,1.4399216,-0.8709961,8.949665,-0.4004342,0.40190896,-0.3069324,27.293034,21.74414,-27.22258,
17350,-0.2475731,-1.8042746,13.712,-1.0293659,0.09921433,-0.5917839,28.303982,24.683346,-26.890987,144.0
17400,-0.46711883,-0.61875224,11.060802,0.2266864,0.27743286,-0.0630403,29.837488,26.508026,-24.707273,51.0
17450,0.8315459,0.107563145,8.655545,-0.008470507,-0.12923145,-0.061602194,33.376564,26.868885,-25.768677,21.0
17500,0.02239736,0.45202667,9.245748,0.0013299197,0.17905581,-0.2061052,34.513702,28.32104,-26.40722,
17550,-0.24290188,0.69073606,8.485424,0.332041,-0.32284307,-0.20541275,38.17203,29.979279,-25.62351,18.0
17600,-0.6096496,1.2291197,7.583885,0.104181096,-0.2007639,-0.124506,40.69672,30.341236,-27.576838,
17650,0.41286033,1.1361754,9.534285,0.101784274,-0.08891123,-0.033106394,43.95742,31.122675,-27.845264,
17700,0.18217579,1.0792829,8.995542,0.23094745,-0.004116246,-0.11923295,48.143524,30.496975,-28.476765,16.0
17750,-0.21643186,0.50676334,10.92881,0.16644576,-0.08768617,-0.068473145,53.34527,29.448166,-28.830479,
17800,-1.1316243,0.60593617,11.375568,0.4326551,0.065179154,0.23715098,58.332153,27.897211,-29.028961,
17850,0.3768084,1.1224014,9.974933,0.4540669,0.24872407,0.5680751,62.739185,22.858994,-29.170527,15.0
17900,0.7077435,-0.4432834,10.297364,-0.7393478,0.0700261,-0.24360244,67.881294,20.018269,-29.009726,
17950,-1.8863198,-1.0319725,13.746135,-0.6440067,0.013300816,-0.050843023,71.3623,16.945496,-28.918507,
18000,0.04393778,-0.47289908,10.016558,0.11440764,-0.21013817,0.3541169,73.77055,11.775513,-29.974945,14.0
18050,0.16768311,-0.14660344,8.236533,-0.3375304,0.3194043,0.09334039,75.62596,6.2658763,-31.505497,
18100,-0.6854665,-0.24865083,9.251738,0.015817506,-0.25349444,-0.007699857,75.41997,1.0432342,-33.49303,
18150,-0.68606544,0.06946873,7.624728,0.22918978,-0.04257226,0.16545874,74.53686,-4.5047154,-34.874584,
18200,-0.14025562,0.14648339,8.40769,0.07430045,-0.23996559,0.18372801,72.20755,-9.899108,-36.38674,
18250,-0.15977879,0.43968993,9.060698,0.32809952,-0.10824575,0.19198379,69.04425,-12.889063,-37.978447,
18300,0.46771678,0.5478458,8.483987,0.28964347,-0.025528044,0.19949393,65.11278,-17.90131,-37.987244,
18350,0.3050638,0.15319076,10.814666,-0.2602633,-0.1403102,-0.022282131,61.45409,-18.888876,-39.273975,
18400,0.4838864,-0.4093875,12.310644,0.26136076,-0.019562569,0.012486884,56.65811,-20.776783,-40.48571,
18450,1.9671667,-0.134626,10.562662,-0.031373672,0.24638048,-0.0918024,52.382607,-21.725214,-40.519173,
18500,0.40232024,-1.4641165,12.283934,-0.45007548,-0.105209745,-0.7931718,49.82685,-19.912638,-41.006115,
18550,-0.06675858,-0.4329325,10.284725,-0.02290483,0.0924499,-0.40301913,46.77901,-17.907642,-41.940876,
18600,0.6383947,0.051263094,8.180958,-0.3344944,0.28936386,-0.2136153,44.46998,-16.851833,-42.010536,
18650,0.05305949,0.22661214,9.569497,-0.43329757,0.0890943,-0.25851613,42.499046,-15.265314,-42.418415,15.0
18700,-0.4977808,0.3393194,8.881395,0.039253294,-0.1867024,-0.08796747,41.48217,-13.291708,-43.51896,20.0
18750,-0.0037133521,0.6137215,8.6034,-0.006073667,0.013460599,0.09168924,38.989876,-13.095991,-43.737976,26.0
18800,0.42387956,0.72990215,9.434393,0.17065355,0.044566296,0.15975957,37.235485,-12.390192,-44.099323,33.0
18850,0.6316873,0.7905079,9.177597,0.3236254,0.019905444,0.072194904,35.110645,-11.181395,-43.980457,41.0
18900,0.100010894,0.5746752,10.701838,0.055072464,0.22523502,0.022127522,34.648872,-11.242729,-43.6817,48.0
18950,-0.6599547,0.15702346,11.598469,0.48826185,-0.30745006,0.17398083,33.01894,-11.2772045,-44.371857,61.0
19000,-0.20361611,0.6815135,11.013613,0.5464253,0.13905516,0.4448774,31.265497,-12.089172,-43.694153,73.0
19050,0.50796086,0.09330376,9.734546,-0.14375897,0.09798925,0.07405912,30.896978,-12.422319,-43.91613,80.0
19100,-1.0563434,-0.16867338,11.033502,-0.4891706,0.11780317,-0.039444715,30.125355,-11.272619,-43.174824,98.0
19150,-0.8495568,-0.23236156,10.557272,-0.31867522,-0.29599842,0.13259535,29.694092,-10.143263,-44.127205,124.0
19200,-0.2479324,-0.39944622,9.737418,-0.428717,-0.17786072,0.11869365,28.368748,-8.366339,-44.273613,144.0
19250,-0.0142534645,-0.14420797,10.187771,0.045431826,0.12909496,0.23864236,26.67558,-8.408069,-43.417614,164.0
19300,0.6445031,0.5011339,7.472974,0.30636808,-0.26345465,0.11997197,26.367416,-8.203585,-43.241924,179.0
19350,0.06863013,0.65947515,7.8403206,0.0188535,0.13548653,-0.12093737,25.783167,-8.101015,-43.69099,192.0
19400,-0.12720028,0.31009454,8.834924,0.17901587,-0.24497232,-0.1289801,25.31892,-7.0295324,-42.56969,207.0
19450,0.11007188,-0.084081426,9.391872,0.009366739,-0.13291252,-0.20456056,24.397356,-7.5549226,-43.267494,
19500,-0.5105966,-0.2687728,11.849634,0.20170598,0.07396756,-0.1473559,23.903387,-6.8741198,-42.60669,223.0
19550,0.54616886,-0.032458864,11.180338,0.4841606,-0.27293545,-0.026341971,23.77908,-6.917348,-41.433075,
19600,1.4819624,0.41190252,10.206575,0.4165164,0.17783076,-0.18879464,23.505,-8.290685,-42.29067,
19650,0.6183483,-0.65180355,8.673073,-0.542061,0.12739053,-0.65271693,23.716684,-6.414775,-41.285683,
19700,-1.1977398,-0.79398143,12.123198,-0.8713872,0.35200134,-0.3911415,23.775284,-4.290687,-41.27787,238.0
19750,-0.12468505,-0.38495356,10.001402,0.008573709,-0.069416896,0.17685702,23.6813,-3.4591846,-40.79459,
19800,1.0770067,0.17606753,9.070879,-0.3569715,-0.17541063,0.069478475,22.974545,-3.4239311,-41.67926,
19850,0.15546615,0.26541886,9.949302,0.06881436,0.187791,-0.006474805,23.18709,-2.977806,-39.6672,
19900,-0.256077,0.47047186,8.493808,0.1928643,-0.33120543,0.02612226,21.312191,-3.6973412,-40.572186,221.0
19950,0.18960175,0.6261779,8.903553,-0.019495988,0.20036109,0.19960043,22.265072,-3.6708214,-39.74402,
20000,0.88021815,0.7768535,9.962115,0.19962873,-0.18068367,0.09078376,21.710522,-3.6404793,-39.139107,192.0
20050,0.3417146,0.7343339,9.267307,0.11334237,-0.15506409,0.1203448,21.220224,-4.7452626,-39.571846,178.0
20100,0.00011940524,0.3527341,12.581332,0.16687188,-0.14041671,0.26617938,20.327337,-4.8660755,-38.880737,166.0
20150,0.786555,0.9542389,11.106675,1.1037712,0.12217075,0.54352057,20.57572,-6.2816367,-39.13674,153.0
20200,1.3768326,0.339042,7.2114515,0.15163858,0.19748488,0.042687126,20.054338,-7.3536987,-39.323017,
20250,-0.50293106,-0.37776712,11.307896,-0.86286515,0.268751,-0.14730264,21.559322,-6.1961503,-38.339447,139.0
20300,-0.9202234,-0.61300313,10.910847,-0.25081795,-0.07160069,0.096056804,20.574991,-5.7219453,-39.174194,97.0
20350,-0.22098322,-0.38231856,9.48805,-0.42717233,-0.16028388,0.23763034,19.651,-5.173019,-39.017822,27.0
20400,0.43262306,-0.45011058,10.38384,-0.3799812,0.053248197,0.20774968,20.35767,-4.9466424,-38.3838,15.0
20450,0.2870977,-0.010899583,8.918287,0.09438069,-0.27453336,0.05525722,20.142342,-4.805744,-38.607464,
20500,0.5162253,0.21691044,8.191138,-0.054383367,0.16126592,0.06628268,20.264803,-4.5352974,-38.390877,
20550,0.5597032,0.24865052,8.648794,0.07997003,-0.009578679,-0.07566366,20.020285,-5.0237136,-39.257984,14.0
20600,-0.15343076,0.39525384,8.707964,0.25241253,-0.19836704,-0.23673148,20.049545,-4.395326,-38.67643,
20650,-0.025033107,-0.017487131,10.131836,-0.21449248,0.08185052,-0.14634392,19.557016,-3.7915542,-39.22187,
20700,0.019163463,-0.4163343,12.376398,0.29166746,0.083182104,-0.13169652,20.356592,-4.0350227,-38.549152,
20750,0.03120389,0.26175633,10.187645,0.25624746,-0.09247984,-0.124506,20.358204,-4.664332,-39.22279,13.0
20800,1.4157274,-0.53862345,10.626384,-0.33002028,0.37895253,-0.16525233,20.910664,-4.2905645,-38.439552,
20850,0.21367638,-1.4777708,11.75058,-0.41710567,0.015111761,-0.51204884,21.032719,-2.596355,-39.632347,14.0
20900,-1.0611973,-0.7849985,10.885096,0.06620447,0.0771101,0.0076932013,21.123816,-1.5658703,-39.827736,16.0
20950,0.9224984,-0.25907117,8.410445,-0.06796547,-0.18276092,0.16950674,20.786901,-2.1123347,-40.5417,17.0
21000,0.42579588,-0.14324974,9.255449,-0.28011268,0.04989262,-0.09190895,20.662247,-1.2536703,-40.183308,
21050,-0.35728598,0.16780314,8.229944,0.027428871,0.13708442,0.034484576,20.846716,-1.8279969,-39.33634,15.0
21100,-0.0112591265,0.59898925,8.270069,-0.17017749,-0.03921668,0.17190358,20.600138,-1.1311178,-39.81484,
21150,0.6804353,0.4283114,9.822818,-0.08277264,-0.11341228,0.12897345,20.816446,-1.5166718,-40.176426,14.0
21200,0.70714486,0.47909555,9.216406,0.2014397,0.10725705,0.12109051,21.737062,-0.9207367,-38.705647,
21250,0.28697795,0.34578723,9.961877,0.031849712,-0.09482343,0.015948992,20.938154,-1.2940706,-39.21644,
21300,-0.32206616,-0.15291363,11.247327,0.19360998,-0.116341755,0.21941432,21.462683,-1.6243305,-40.128155,
21350,-0.14121383,0.32422787,11.374252,0.36277384,0.07732316,0.38010934,20.878956,-2.0786717,-40.354084,
21400,1.1893547,-0.37070042,9.755029,-0.1818954,0.14262381,0.29574046,21.61668,-2.2898862,-39.435654,13.0
21450,0.51622534,-1.0324513,12.04714,-0.62318087,0.21788469,-0.25979447,21.092564,-2.1098144,-38.707905,
21500,-1.1415654,-0.6334845,10.48984,0.039413087,0.08872148,0.00066245644,21.645472,-1.1921066,-39.014305,14.0
21550,0.05198152,-1.1445596,9.180352,-0.4134304,-0.34526688,-0.08093672,20.352915,-0.91782534,-39.11154,
21600,-0.9367522,-1.2082794,11.29436,0.03334109,-0.030960888,0.032247525,20.107147,-0.86861956,-39.52061,18.0
21650,-0.12240938,-0.3638732,8.017705,0.4458881,-0.2278393,0.32037765,19.5519,-0.7999935,-38.328056,23.0
21700,0.8603357,0.24996802,8.109094,0.13560638,-0.023876883,0.16913389,20.322256,-0.74603367,-39.423824,
21750,0.3236288,0.5361079,8.367445,0.23984241,-0.18334682,-0.038539235,19.584602,-1.6646906,-38.99819,28.0
21800,0.38722876,0.20744832,8.149339,0.26615447,-0.07474322,-0.089618616,19.584055,-1.5126492,-38.690437,33.0
21850,0.22750704,-0.38187096,9.64387,-0.14849938,-0.16049694,-0.29420245,19.45839,-0.26423588,-37.903248,41.0
21900,-0.5671298,-0.67181206,10.710344,0.02860066,0.19748488,-0.08604999,19.641922,0.621167,-38.03274,59.0
21950,0.2188266,-0.33045638,11.19998,-0.051720213,-0.19762136,-0.010256486,19.642042,0.5327217,-38.031715,77.0
22000,1.8741024,-0.87650555,10.231966,-0.2112967,0.5529633,-0.051002823,19.640926,0.92386055,-37.51008,98.0
22050,-0.07857208,-2.3109183,11.325144,-0.70121133,-0.28673068,-0.7514669,20.623373,2.5298934,-37.56614,123.0
22100,-1.0288585,-1.7376802,11.8182535,-0.25593123,0.14033349,0.018026266,19.050383,4.931001,-37.13783,151.0
22150,1.7336075,-0.9579519,8.563996,-0.3106858,0.21863036,0.22793646,20.587643,5.2874484,-36.515614,171.0
22200,0.6845078,-0.6810347,9.973735,-0.5258157,-0.012904659,-0.32008836,19.539963,6.537439,-36.679962,191.0
22250,-0.6490553,-0.18541017,9.142384,0.057682358,0.22981563,0.02915826,20.215244,7.2926316,-36.14571,208.0
22300,0.29248756,0.23260084,8.16431,0.017948022,-0.08582197,-0.0042910175,20.029434,7.971617,-35.910572,223.0
22350,-0.035932563,0.31069347,9.769041,-0.037072826,-0.046247415,0.017227309,19.998526,8.175671,-36.037514,238.0
22400,0.53677595,0.074530765,9.896027,0.23435631,-0.05450321,0.02937131,19.507198,7.9240065,-36.60397,
22450,0.17582777,-0.25955024,11.3565235,0.3176599,0.0050982824,0.049824372,20.275076,8.763487,-36.43983,257.0
22500,0.26985028,-0.80188656,11.424316,0.5438153,-0.06057521,0.21419454,19.907537,7.838388,-36.8097,
22550,0.31692147,-0.13450627,11.490072,0.7912761,0.43589085,0.34788513,20.277817,7.482334,-37.322563,
22600,0.10504136,-0.5296404,9.492602,0.3444513,0.041157436,0.07475153,21.172058,5.790562,-36.971195,277.0
22650,-0.4321447,-1.4789685,11.2979555,-0.3629369,-0.32784984,-0.04317313,21.1403,6.961029,-37.542694,
22700,-1.0663478,-0.96525824,10.961629,0.04378067,0.033061445,0.19416758,21.078354,7.1393023,-37.391533,295.0
22750,0.44208527,-0.89171696,8.993505,0.011911536,-0.33312285,0.20580262,20.95629,6.7767043,-37.854668,
22800,-0.23703296,-0.6588765,8.86259,-0.10434421,-0.14361249,0.024897207,19.696188,6.5658455,-38.87406,
22850,0.19235656,-0.36016038,8.463505,0.15462133,0.13378212,0.26783055,20.89571,6.5025587,-38.379192,315.0
22900,0.44136658,0.4592131,7.760193,0.19621989,-0.05040195,0.14154355,21.665964,6.1525745,-38.88218,
22950,0.5473665,0.7128628,8.176704,0.16122599,0.1555135,0.104259335,22.374746,5.482452,-39.042507,
23000,0.71481043,0.9971177,9.148851,0.17603315,-0.04321142,0.028252784,22.40694,4.537648,-39.15458,288.0
23050,1.3430248,0.19391379,9.874561,-0.14423835,-0.013170985,-0.23758373,22.314993,4.5025964,-39.435036,269.0
23100,-0.51874125,-0.57790935,12.387777,0.10684426,-0.08736658,-0.45100927,23.05451,4.730664,-40.68835,243.0
23150,-0.55766785,0.084680006,11.417251,0.16293038,-0.0050217183,-0.048605986,22.499142,5.2640505,-39.965473,224.0
23200,2.315589,0.056054063,9.6743,-0.031853043,0.34097588,-0.1946536,22.961376,4.364066,-39.47926,208.0
23250,-0.14887932,-0.6854664,11.057449,-0.65758884,-0.07980321,-0.9289397,23.23829,5.236509,-40.565826,190.0
23300,-1.5650861,-0.5230528,10.672136,-0.26796865,0.0018492192,-0.37670714,23.880695,7.032364,-39.42539,171.0
23350,-0.10695839,-0.025751535,9.555364,-0.28884786,0.2506948,0.08401932,24.188034,6.7809615,-38.79577,151.0
23400,0.28925365,-0.15594576,9.920914,-0.2639207,-0.28023252,-0.2029094,24.219028,7.2415557,-39.574158,85.0
23450,-0.5032904,-0.0378487,9.3182125,0.14322302,0.2755154,0.036188997,24.372677,7.506911,-39.728172,27.0
23500,-0.23002933,0.32996443,8.720224,0.4188067,0.025924185,0.17424715,24.866848,5.9260693,-39.449955,18.0
23550,0.22457573,0.6234231,8.01112,0.13331607,-0.037938364,0.2643152,24.714378,4.9503717,-39.4734,
23600,0.6410297,0.6816333,9.73227,0.31180093,0.23439625,0.35725945,25.271473,3.554601,-40.68149,
23650,0.47873598,0.60533726,9.760897,0.17885609,-0.23708937,0.093500175,25.950775,1.5642793,-40.36297,
23700,-0.34566793,0.14588457,10.783525,0.31291947,-0.058178365,0.19075873,25.12236,0.5948202,-41.26999,
23750,-0.53263503,0.40052384,10.663273,0.17012092,0.295063,0.2321975,25.739676,-1.3904135,-40.55068,16.0
23800,-0.5722803,-0.16409042,9.067047,-0.40357676,-0.25967294,0.16284885,26.26327,-1.9108318,-40.37686,
23850,-0.23224202,-1.2474453,12.182244,-0.9891995,0.027468821,-0.011866222,24.5707,-1.2368243,-40.952965,
23900,-1.0131679,-0.98681736,11.769865,0.0122488495,-0.04054825,0.31022805,25.770752,-1.1914488,-41.078407,15.0
23950,0.4092671,-0.68378955,8.082503,-0.1350238,-0.05391731,0.1158707,24.97205,-2.0885065,-41.118835,
24000,-0.95903033,-0.83111155,9.669987,-0.34157842,-0.012105721,-0.06943188,25.002695,-2.173242,-40.90043,
24050,-0.5937639,-0.8614709,9.478709,0.044206783,-0.08928407,0.09238164,24.265156,-2.9486592,-40.755028,
24100,-0.53658766,-0.31931734,8.929186,0.29214686,-0.047472473,0.23864233,23.191977,-4.6059585,-42.06255,
24150,0.36842424,0.22062342,8.430688,0.4651989,-0.0034238235,0.31603375,24.330097,-5.3666234,-40.818275,
24200,0.98681706,0.31524482,8.976497,0.29736665,-0.08204027,0.10053092,23.502075,-7.151845,-41.065815,
24250,0.3087768,-0.21319774,10.131356,0.03451287,-0.24774201,-0.23619887,22.981144,-8.577227,-41.21703,
24300,0.02371486,-0.7986526,11.771782,0.28117466,0.17692532,-0.12583756,23.198315,-9.495306,-41.69624,
24350,0.79493916,0.27919292,10.093746,0.20868342,0.14842948,0.10324733,22.79841,-10.399562,-40.643322,
24400,2.063824,-0.6515702,9.87121,-1.0204176,0.50246984,-0.5570563,23.01438,-10.259539,-41.351482,
24450,-1.4371678,-1.5804172,14.896802,-0.6664305,0.13266361,-0.7195622,23.194742,-8.203035,-40.0708,
24500,-1.2712809,-1.0637121,9.853003,0.5274635,-0.2445462,-0.09537104,22.642044,-8.776227,-40.387432,16.0
24550,0.37309542,-0.3160835,7.7516885,0.08569878,-0.1452104,0.18916085,21.718594,-9.421231,-39.226723,
24600,0.78666216,-0.2320905,9.398903,-0.091720834,-0.05743269,-0.29697222,21.134335,-9.839605,-39.01974,
24650,-1.412614,0.20074096,8.2322235,0.5681566,-0.06456996,-0.18645105,20.735699,-10.500298,-39.424393,19.0
24700,0.21463446,0.8944715,7.6382627,0.13278344,-0.081347845,0.21099874,19.657024,-10.781809,-37.46698,
24750,0.1650481,0.94801056,9.159749,0.15707144,0.1967392,0.026548361,19.504871,-11.414379,-38.20631,21.0
24800,0.40040383,0.9292059,8.886427,0.17070681,-0.05743269,0.1559246,18.48859,-11.474853,-37.302296,24.0
24850,0.086596176,0.26733524,10.9669,-0.20570405,0.067416206,-0.06453167,18.486712,-10.899875,-36.318512,31.0
24900,-1.2963135,-0.109353706,12.800878,0.50285596,0.042542297,0.3488971,17.44138,-11.5915165,-36.181744,46.0
24950,0.43849197,0.12049246,9.013986,0.30107144,0.25407404,0.5178065,17.165228,-13.024114,-35.088665,50.0
25000,0.37213725,-0.87039727,11.127756,-0.8270189,0.063634515,0.0024734132,16.209381,-12.026941,-34.504936,65.0
25050,-1.1065916,-0.8537486,11.667937,-0.1767821,0.2788177,0.13408671,15.652794,-10.203767,-34.292267,107.0
25100,0.13294871,-0.43034792,8.594776,-0.03930989,-0.24694304,0.21019976,15.37541,-10.433169,-33.584595,132.0
25150,0.15072565,-0.4104906,9.65837,-0.48730654,0.19343688,0.116243556,14.478178,-7.775279,-32.43053,155.0
25200,0.45358354,-0.123487055,9.823419,-0.020081868,0.046217453,0.10154293,14.199965,-6.546342,-32.792164,180.0
25250,0.29512253,0.51083565,8.312948,0.21060094,-0.274054,0.005722462,13.950937,-5.7589965,-31.166967,200.0
25300,0.3556084,0.7929032,7.5566964,0.22412977,0.00504502,0.03986416,14.010763,-4.9827337,-30.586365,218.0
25350,0.30937573,0.92357653,8.987036,0.16815019,-0.10712723,-0.103786625,13.639689,-3.7477844,-30.455133,234.0
25400,-0.1830149,0.32614425,9.465054,-0.10343875,-0.08715354,-0.23294982,13.7601795,-2.0327287,-30.25533,
25450,-1.2178617,-0.28925416,12.238899,0.025617916,-0.2097121,-0.10575738,13.265038,-0.46793538,-29.635754,270.0
25500,-0.40483618,-0.059407987,11.503486,0.37007087,-0.3737094,0.08455195,13.233066,0.21338539,-29.396814,
25550,2.1223936,-1.0413145,10.36348,-0.335826,0.0027014525,-0.16626434,13.602158,1.551989,-30.95078,290.0
25600,-0.79386187,-1.9278815,13.331236,-0.3298605,0.275835,-0.5331943,13.999005,2.8733258,-29.74905,
25650,-0.71373314,-1.0607179,9.43595,0.09986679,-0.02840426,0.008279098,14.335614,3.915884,-29.381317,308.0
25700,0.2878983,-0.76653445,10.207439,-0.36895567,0.221187,0.13632376,14.274736,4.48513,-30.689442,
25750,0.5115541,-0.10540122,9.798385,0.2478319,0.16456822,0.1420762,15.041591,5.598748,-29.940393,
25800,0.17882212,0.5331136,7.3026557,0.3104161,0.055218928,0.07086332,15.472545,5.3998384,-29.865467,329.0
25850,-0.24565665,1.1688737,8.191858,0.23989567,0.10187749,0.14947978,15.475168,4.5544276,-31.186584,
25900,0.90369385,1.4538159,7.936859,0.13384871,-0.32832918,0.16833493,15.258135,5.6443033,-31.04984,
25950,1.3873408,1.2625368,9.646751,0.013047816,0.06624441,-0.0889262,15.135834,5.053262,-31.015085,304.0
26000,-0.2042149,0.45082888,10.843533,0.181466,-0.113998175,-0.27444184,14.919083,5.3868017,-30.18861,283.0
26050,-0.9298054,0.39345723,11.356165,0.33634347,-0.08343696,0.0049412646,15.565681,5.3901215,-30.605902,263.0
26100,0.22948647,0.21176016,9.206704,0.22141337,-0.09801923,0.06899911,15.444092,5.45539,-32.03352,246.0
26150,-0.9032156,-1.1100647,11.57607,-0.9011614,0.12568612,-0.27055362,15.626915,5.887151,-30.950619,227.0
26200,-1.4041103,-0.81386393,11.719916,-0.3447209,0.11050612,0.114965245,15.503143,7.0234923,-31.74068,192.0
26250,-0.14114447,-0.63339615,9.426258,-0.32938114,0.0030742835,0.06958502,16.362875,7.6677284,-30.921978,111.0
26300,-1.042872,-0.83614194,10.320959,-0.25641057,-0.105795644,-0.05728787,15.256113,7.5237274,-31.5669,32.0
26350,-0.5368272,-0.46196824,8.898281,0.10386153,-0.049762785,0.30713883,15.594355,7.473605,-31.310284,23.0
26400,0.2969192,-0.06731312,8.586034,0.100719,-0.06877775,0.11528482,16.73339,7.366469,-31.71405,
26450,-0.50245196,0.39944592,8.474764,0.2615738,0.07215662,0.15672357,16.45758,6.8845353,-32.117718,
26500,0.49490553,0.57563335,8.902476,0.34530348,-0.15027042,0.11091721,16.490295,6.1354485,-32.94396,22.0
26550,-0.06168394,0.29620078,8.8715725,0.180454,-0.075275846,-0.12908664,17.042423,6.600442,-31.976068,
26600,-0.50903964,-0.70978045,11.504206,0.13597924,-0.10244006,-0.03901861,16.61408,5.2883663,-32.52868,
26650,-0.3930984,-0.38794786,11.691053,0.13091923,0.3318679,0.12737556,16.643393,6.0028825,-32.102882,20.0
26700,1.4727397,-0.7766142,10.146687,-0.12639518,0.31189418,0.07182205,18.428303,5.879775,-32.24278,
26750,0.5140694,-2.1485047,12.25878,-0.70680404,0.2798297,-0.5297323,18.611353,7.11896,-32.376392,
26800,-1.4837472,-1.1572496,12.132772,0.083301924,0.20946911,0.013978263,18.609509,8.069789,-31.892197,18.0
26850,0.8410522,0.13462576,7.7867823,-0.039256625,0.074393675,0.3387771,19.532904,7.5287385,-31.522482,
26900,1.0038251,0.19187768,9.898397,-0.24959293,-0.084809944,-0.18964685,20.518595,7.3837633,-32.332012,
26950,-0.2965606,0.5363475,8.309714,0.39531764,0.04046503,-0.10613023,19.962921,8.239595,-31.73669,
27000,0.08336228,0.73900497,7.9544663,-0.0091629345,0.07966672,-0.012280491,20.979124,7.2591085,-31.266712,
27050,-0.44124752,0.94465685,9.887377,0.43505198,-0.14041671,0.21371517,21.194988,7.4005213,-31.882044,
27100,1.3770405,1.3023016,8.575973,0.45763555,-0.3393547,0.27704507,22.18197,6.485776,-32.8993,
27150,0.46268624,0.85362864,9.925224,0.017888848,-0.28796753,-0.13011047,21.598171,6.5823226,-33.750664,
27200,-0.6558825,0.32350916,11.581221,0.34098917,-0.2046521,0.033152997,21.813772,7.0167007,-34.493202,
27250,0.61084664,0.72044003,8.9914665,0.22199926,-0.04592783,0.085510686,22.614992,6.548793,-35.025013,
27300,-0.5516791,-0.8444063,12.133497,-1.0285668,0.15162528,-0.49548402,23.014914,6.642381,-35.07805,15.0
27350,-1.7967983,-1.091689,13.566151,-0.34227082,0.11689768,-0.13254872,23.781,9.068785,-35.272808,14.0
27400,-0.4366962,-0.5861738,10.549728,0.07882784,-0.43421635,-0.040403448,22.89111,8.329149,-36.524494,
27450,-0.8863274,-0.39956594,8.6641245,-0.24751563,0.31402475,-0.073639676,23.751423,9.197195,-36.513145,
27500,-0.49179205,-0.38148007,9.356181,0.15414198,0.13873558,0.22990718,25.381702,9.400686,-36.351143,
27550,-0.00047946573,0.10839526,7.652755,0.23116049,-0.21210897,0.024098257,24.49207,8.223457,-37.288227,
27600,-0.45298535,0.44352263,7.3759575,0.09182406,0.34294662,0.15054505,25.815268,8.993384,-38.378525,
27650,0.47023207,0.6074933,8.225155,-0.042186104,0.08856168,0.12210252,26.307217,9.23671,-38.36911,
27700,-0.11654041,0.33476797,8.545071,-0.0076182983,0.091224834,-0.15278876,27.93981,8.048996,-38.562366,
27750,-0.78871167,0.062761396,11.4137745,-0.17422551,0.11135832,-0.045143865,28.400837,8.409781,-38.555084,
27800,-0.7651162,-0.7780515,11.590922,0.23909673,-0.4279313,-0.095637366,28.064178,8.149334,-39.86046,
27850,0.39477453,-0.22625308,12.399517,0.16415544,0.035884395,0.10985198,27.94195,7.9336824,-40.356255,
27900,1.262606,-1.2112108,10.105568,-0.24554491,0.4345593,-0.38975662,29.296625,7.3051634,-40.34623,
27950,-0.9899319,-1.0867088,12.251474,-0.38418892,0.35258725,-0.47172862,29.69433,8.499308,-39.762062,15.0
28000,-0.5986304,-0.16912094,8.93721,0.13853586,0.1576973,-0.040350184,30.801153,9.221364,-39.897655,
28050,0.15929893,0.10444273,8.438711,-0.6856052,-0.26377422,-0.2193677,30.400778,8.96015,-39.223625,17.0
28100,-0.6498937,-0.2418237,10.154473,-0.17459834,0.0658183,-0.17872792,30.154898,9.618745,-40.28977,24.0
28150,-1.593832,0.32506627,8.090174,0.35521045,-0.11256008,0.17930716,31.44805,9.3075695,-40.687336,31.0
28200,-0.2141561,0.5386232,7.966922,0.01720234,-0.09546258,0.4642651,30.83457,8.260346,-41.092857,40.0
28250,0.4867609,0.76763093,8.859718,-0.0063754926,0.3704245,0.5001112,31.451965,7.3160744,-41.747528,56.0
28300,0.047310323,0.58964694,10.500621,0.2284441,-0.46377745,0.25941497,32.129913,5.8937826,-40.909416,79.0
28350,-0.2767979,0.13486531,9.771316,0.07014594,-0.46138057,0.32354385,31.703339,4.239804,-42.63424,107.0
28400,0.4029191,-0.41920877,12.775965,0.32474393,-0.1802043,0.4402967,32.29091,3.1089091,-43.906555,136.0
28450,1.0772715,-0.9106413,8.87883,0.04372741,-0.44391027,-0.13590431,31.155115,1.6677043,-44.506218,153.0
28500,-1.1045555,-1.4275857,11.690454,-1.0521624,0.65416336,-0.24030013,32.1684,2.520648,-43.686108,185.0
28550,-1.3275744,-1.3645846,11.985098,-0.4010201,0.2665139,-0.09377315,33.642372,3.709992,-42.517967,214.0
28600,-0.93986636,-0.69744384,9.196881,-0.1871152,-0.3136818,0.088599965,34.16568,4.1195564,-43.252563,238.0
28650,-0.06144438,-0.70043796,9.7139435,-0.30040595,-0.11208071,0.30410275,33.551456,3.1400979,-43.07078,261.0
28700,0.46508178,-0.402201,9.108129,0.3266614,-0.21264157,0.202956,32.84545,1.8049934,-42.91812,281.0
28750,0.14612386,-0.23284069,7.690963,0.17400913,-0.33935466,0.012167307,33.368336,1.5545437,-42.43792,
28800,0.22241981,-0.1775051,9.2431135,0.07680384,-0.1227866,0.06361954,32.754555,0.8007479,-42.93971,307.0
28850,0.82128936,-0.21571298,9.805931,0.5833366,-0.0805489,0.008864991,33.403454,-0.7317665,-43.52487,
28900,0.9033346,0.015330926,8.503869,0.33007026,-0.11911143,-0.13116391,33.374004,-2.3707066,-42.67089,
28950,0.9453753,-0.70990026,10.669621,-0.040481675,0.13516697,-0.3303682,33.74314,-2.537825,-42.381207,
29000,-0.4657948,-0.6025071,12.512518,0.23861738,0.01250186,-0.47870612,34.079777,-1.264045,-42.325676,
29050,0.39237905,-0.29679996,10.323475,0.48922062,-0.112932906,0.02857236,34.387535,-2.2736354,-41.13012,280.0
29100,1.7025862,-1.326137,9.404928,-1.0060898,0.08973347,-0.44136858,34.849464,-1.8958762,-41.958736,254.0
29150,-0.91159976,-0.9971182,13.829496,-0.57561684,0.42087063,-0.32541466,35.582954,1.5674814,-41.79488,215.0
29200,-0.040963016,-0.37525183,9.912887,0.58951515,-0.0845969,0.038266264,37.18203,0.9658613,-40.23144,196.0
29250,0.96933,0.13857828,8.143827,0.12335585,0.023633858,-0.13952622,36.476624,0.11480713,-41.229626,
29300,-0.052581113,0.5250887,8.454521,0.073767826,0.13404842,-0.07518431,37.27484,0.8447021,-40.537262,160.0
29350,0.57970554,0.50556564,8.419548,0.14293894,-0.16552144,-0.14768733,37.397655,0.9078499,-40.380177,107.0
29400,0.11486282,0.6278548,8.968712,0.18844345,0.21916299,-0.04253397,38.169056,-0.35468084,-40.779705,53.0
29450,0.65360594,0.64079034,9.298688,0.402881,-0.074689955,0.002792988,39.183666,0.27799264,-40.88561,19.0
29500,-0.31105328,0.60354066,9.43511,0.10002657,0.029599348,0.00076898263,40.570698,-1.210591,-41.236256,15.0
29550,-0.516352,-0.1331194,12.475074,0.22215906,0.04504567,0.2956872,40.47866,-1.7076232,-40.86135,
29600,-0.21511438,0.49885827,9.937084,0.74280655,0.09841536,0.45382556,42.207146,-4.9968734,-41.677906,
29650,-0.3195572,-0.24841127,9.544225,-0.49588186,-0.08901775,0.16806862,43.347626,-6.6862993,-41.4133,
29700,-0.24901035,-0.49873877,11.979109,-0.5063747,-0.07255942,0.1967242,43.255493,-6.8346467,-41.382923,13.0
29750,-0.030422945,-0.30506432,10.23065,-0.240911,-0.28060538,0.051102687,43.01133,-7.762046,-42.028267,
29800,-0.082404815,-0.15390964,9.01183,-0.3365184,-0.01034804,0.0032723546,42.36777,-8.760965,-43.11606,
29850,0.051023327,-0.3257852,8.684967,-0.2977428,0.25463626,0.0418349,42.984524,-9.609842,-43.307556,12.0
29900,-0.082883924,-0.058210276,9.63657,-0.048737463,0.08525937,-0.0026931192,42.923634,-9.879819,-43.55357,
29950,-0.28578094,0.063959114,8.731078,0.3715622,-0.12678134,0.05302016,42.21805,-12.0021305,-42.80367,
30000,0.20648989,0.7018751,8.705569,0.2555551,0.14976107,0.14511219,41.787884,-12.305801,-42.96562,
30050,0.44461307,0.33740306,9.631892,0.2589106,-0.13258702,-0.07838009,41.205086,-13.814539,-42.715027,
30100,-0.86512744,-0.09414245,11.218904,0.3996852,-0.0077914074,-0.06106956,39.32923,-14.810824,-42.40966,
30150,0.4181304,-0.15786216,10.662555,0.7305561,-0.1902178,0.24886885,39.578148,-17.3913,-41.692623,
30200,1.7259419,0.5719203,10.108958,0.30503654,0.2866474,0.03166163,37.887424,-19.31801,-40.690918,
30250,1.4351308,-0.50939864,10.890483,-0.6134337,0.04680334,-0.71349025,38.870186,-19.018738,-39.400875,
30300,-1.061437,-1.1491113,11.895029,-0.58184856,0.11215727,-0.7898163,38.498222,-16.758871,-39.745827,
30350,-1.2432536,-0.13378763,10.245143,-0.08714022,0.30821902,0.13360736,39.142113,-16.372124,-38.186646,
30400,1.3136803,0.1776246,8.263843,-0.30871505,-0.32848898,-0.0584064,37.9727,-15.575958,-38.998775,
30450,-0.12803867,0.5029305,9.891809,-0.15432876,0.20163938,-0.17059049,37.571743,-14.961057,-38.89205,14.0
30500,-0.18672793,0.73145926,8.038665,0.6309539,-0.3031357,0.005296354,37.203075,-15.986941,-38.115524,
30550,0.3523745,1.2170227,6.8899145,-0.1328933,0.08765621,0.13861409,36.95747,-17.531902,-36.679913,
30600,0.29188874,1.1212033,10.135189,-0.24016532,-0.070961535,0.06990459,36.864452,-17.784279,-35.719765,15.0
30650,0.23708896,0.64931947,9.674381,0.1055127,-0.19447884,0.10303428,35.233955,-18.274248,-35.3213,16.0
30700,0.20756789,0.11462351,12.411135,-0.027645255,-0.04619415,0.23858908,34.095634,-18.842417,-34.723988,20.0
30750,0.43825245,0.19678845,11.117219,0.5090877,0.32505018,0.40535608,32.525524,-19.924164,-32.55285,23.0
30800,0.48676085,-0.06839106,9.427565,-0.4518332,-0.29344183,-0.053825766,31.448618,-20.200283,-32.205006,28.0
30850,0.021798486,-0.5903658,12.613433,-0.60645616,-0.04230594,0.034644365,30.279873,-20.194565,-32.636536,47.0
30900,0.27655762,-0.57719076,10.833233,0.007295391,0.1860333,0.16370106,27.939398,-19.043365,-32.212837,66.0
30950,-0.1353449,-0.31476602,8.187067,-0.2995005,-0.08310554,-0.049671236,26.677532,-19.08597,-31.841343,81.0
31000,-0.05952801,-0.5430551,9.385405,-0.3595813,0.35732764,0.018612154,24.830084,-18.053104,-31.930206,103.0
31050,-0.3578848,-0.16816273,8.3763075,-0.039522935,-0.16667546,-0.10948579,23.904224,-16.61092,-31.196115,120.0
31100,-0.08132686,-0.030782044,8.083581,-0.025248408,0.12579264,0.0036451996,21.77894,-14.875155,-31.330982,135.0
31150,0.054496784,0.1303139,9.137832,0.08916088,-0.229526,-0.09616999,20.086758,-14.437929,-31.966242,150.0
31200,-0.17505941,-0.036795955,8.41108,0.29438388,-0.18776767,-0.133614,18.793509,-13.430773,-32.350555,164.0
31250,-0.23379907,-0.518741,9.943669,-0.25358766,0.10533959,-0.119818844,17.43803,-11.691673,-33.023468,177.0
31300,-0.64989364,-1.1016808,12.237581,-0.047778722,-0.06227963,-0.00919123,15.528692,-10.249774,-33.304333,191.0
31350,0.46053037,-0.860456,12.087145,0.26221293,-0.06659395,0.14692315,14.912226,-9.086325,-33.766476,
31400,0.9940034,-1.3861438,10.814428,-0.39042073,0.15205137,-0.20663781,13.680463,-7.846086,-34.39958,204.0
31450,-0.17343299,-1.7355244,13.321653,-0.21720889,0.35269377,-0.08668915,13.246468,-5.3199663,-34.625343,
31500,0.3074593,-0.59898955,8.875767,0.30706054,0.028107977,0.06234122,13.70889,-4.8330817,-36.043316,221.0
31550,0.5294004,-0.20517287,8.855524,-0.32548106,0.34349698,0.001153667,14.04571,-3.966951,-35.642582,
31600,0.2146345,-0.24697399,9.084893,0.07248952,0.06443347,-0.10762157,14.198801,-2.5942583,-36.676117,240.0
31650,-0.25392112,0.4628063,7.6040077,0.22258513,0.049093664,0.02702773,13.3685,-2.4097579,-37.317963,
31700,0.27163425,0.55917376,7.903492,-0.025727773,-0.012638355,0.099092804,13.706818,-1.9398617,-37.779285,
31750,0.5702433,0.3498595,9.37714,0.06274237,-0.09141458,-0.010203227,13.766104,0.03033123,-38.20301,
31800,-0.124086164,0.15019634,9.607347,0.108495414,0.031463556,-0.10554431,12.871689,1.2034752,-37.74359,
31850,-0.8506349,-0.23379883,10.957678,0.059120446,-0.3118176,0.084871545,14.316327,2.488969,-38.001125,220.0
31900,0.20193847,-0.25631636,12.10164,0.40671596,0.024113223,0.3077247,14.378131,2.717882,-38.528435,206.0
31950,0.92022264,-0.0948611,9.773831,-0.021200413,0.18193202,-0.11166956,15.361339,3.5901122,-38.359314,
32000,-0.47646102,-1.0958116,12.2627325,-0.7180425,0.2032373,-0.3690905,16.897263,5.1221266,-37.998375,174.0
32050,-1.329371,-1.1607294,11.66614,-0.034516208,0.13830951,-0.15795526,17.693796,6.30861,-36.351795,157.0
32100,-1.2587045,-1.0643113,8.84774,-0.07148083,-0.52934444,0.026388574,19.07608,8.269861,-36.711563,
32150,-0.27452224,-1.1365349,10.035899,-0.2721765,0.036896396,0.2346476,18.889843,8.462481,-35.48031,
32200,-0.2990758,-0.558506,8.616938,0.4285006,-0.18979166,0.1481482,20.673206,9.51772,-35.69579,130.0
32250,-0.22481596,0.010060864,7.408895,0.2292963,-0.1084588,0.18889454,21.565912,8.598961,-34.920074,84.0
32300,0.12777948,0.102646105,8.962041,0.32266665,-0.15474449,0.19874822,22.856503,8.987641,-33.871033,43.0
32350,0.7708646,0.21774884,8.437753,0.5155326,-0.258874,0.1183208,24.519785,7.309395,-33.37689,24.0
32400,0.2687723,0.025391918,9.09244,0.19052073,0.028853666,-0.1476222,25.624716,7.940857,-31.68526,23.0
32450,0.44879252,-0.2685333,10.062127,-0.07664738,-0.13636872,-0.21223044,27.28555,8.002963,-31.14942,
32500,-0.38016278,-0.21391635,10.907492,-0.44730577,0.18896279,-0.38895768,28.729214,8.577818,-29.63443,
32550,0.213317,-1.211753,11.68195,-0.6684012,0.011809442,-0.24088602,29.772076,9.852312,-28.261322,21.0
32600,-0.17630759,-1.9156643,13.906151,-0.48096815,0.2693902,-0.16850138,31.12587,9.148783,-27.35282,
32650,0.0556945,-1.0286185,10.670579,0.45080006,0.085348144,0.108626924,32.202847,8.671346,-26.825256,18.0
32700,0.5198184,-0.4716699,8.638255,-0.13065623,0.037482295,-0.03465103,33.372112,8.832329,-27.07661,
32750,-0.45334467,-0.37034106,9.606268,-0.068285055,0.15897559,-0.08200199,34.602547,8.188675,-25.986156,
32800,-0.3742939,0.10827549,8.05316,0.28383785,-0.1978344,0.074538484,34.91021,7.846048,-25.541195,17.0
32850,0.4001076,0.62259114,7.8320065,0.09672427,0.045951147,0.17653747,35.4977,5.876858,-25.689495,
32900,0.94980687,0.5877305,8.973504,0.3119075,-0.010614348,0.058612794,35.03858,4.2460384,-25.836796,
32950,0.37022084,0.6418683,8.141193,0.15558007,-0.1979942,-0.073160306,35.22628,2.181407,-26.055843,
33000,-0.34243405,0.0089829,11.561816,-0.1286855,-0.22494538,0.04460458,34.39582,1.933872,-26.011723,18.0
33050,0.048028976,0.009821327,12.105709,0.50056565,-0.06648742,0.44381204,32.890644,0.69204694,-26.715748,
33100,1.5096303,0.63743675,10.278439,0.42839408,-0.05231942,0.35901713,31.571066,-1.6022997,-27.000574,
33150,0.5175426,-1.0217913,10.764002,-0.6670164,-0.25003237,-0.42863876,30.034954,-3.2476082,-27.050684,
33200,-1.3527273,-1.1451588,13.19122,-0.26040536,0.30534285,-0.13643694,28.465816,-2.2871065,-28.308002,16.0
33250,-0.2224205,-0.20086102,8.987996,0.2460742,-0.030481517,0.17770927,26.096676,-2.177503,-28.49201,15.0
33300,0.12911595,-0.34938067,8.367087,-0.29752976,0.0982023,-0.06660893,25.29572,-1.0472645,-29.020267,
33350,-0.26457468,-0.4957193,9.442146,-0.14381225,-0.010667616,-0.115504526,22.99014,-1.7452443,-30.029074,
33400,-0.5108362,-0.06695378,8.083342,0.21960242,0.21644656,0.016162042,22.096468,-0.46621743,-30.37564,
33450,-0.18564995,0.17498955,7.7574377,0.16665882,-0.1259824,0.04689489,20.158096,0.05479183,-31.0799,
33500,-0.35477075,0.73433375,8.399426,0.2233841,-0.06670048,0.09083702,19.174131,0.263661,-31.911566,
33550,0.44927168,0.5034097,8.723176,0.22018829,-0.24124388,-0.010948918,17.881046,1.847483,-33.16924,16.0
33600,0.0015566901,-0.18205652,10.550086,-0.12224064,-0.21386662,-0.16961992,15.60285,2.5555353,-32.86267,
33650,-0.31153232,-0.45633882,12.039476,0.10918786,-0.025368253,0.05855953,15.879457,3.9530911,-34.32676,18.0
33700,1.2142677,-0.31740102,10.603026,0.007828031,-0.19156118,0.07400585,16.002514,4.5629587,-35.073627,22.0
33750,1.1050339,-1.724026,12.647688,-0.8379911,0.33016342,-0.38000944,15.909653,5.3215995,-35.518066,26.0
33800,-0.37513226,-1.3569188,12.970599,0.03627055,0.17889604,-0.12983228,16.830944,7.124269,-36.166035,42.0
33850,0.6271359,-0.3584835,8.327442,0.09507312,0.30848533,0.12503198,17.632238,6.4237504,-36.47847,60.0
33900,0.45444703,-0.18304622,9.192638,-0.31228366,-0.06787226,-0.04610261,17.94064,6.9686537,-37.808086,67.0
33950,0.18097804,-0.26362258,8.1386795,0.0103313895,0.15769728,-0.027087653,18.157015,6.263895,-37.825493,85.0
34000,-0.28769737,0.06300094,7.9438066,0.16969481,0.10001328,0.18063872,18.77438,5.1174207,-38.199257,101.0
34050,0.88069725,0.30566293,8.132332,0.083461724,-0.14084281,0.20210381,19.331398,2.680688,-38.033367,114.0
34100,0.71085787,0.5285622,8.967275,-0.0003745067,0.2040895,0.13584441,18.592388,2.156413,-36.869465,124.0
34150,0.4475947,0.25008783,10.750349,0.027428871,-0.26617104,0.02958436,17.210201,0.39643803,-36.852516,138.0
34200,-0.16732457,0.16468896,10.797779,0.268498,-0.15783378,0.32599396,17.366156,-0.8740412,-37.1744,154.0
34250,1.4879513,-0.017367374,11.587447,0.34695467,0.045791358,0.355555,16.260767,-2.223091,-37.55771,170.0
34300,-0.18229626,-0.039765097,9.490805,-0.03691305,-0.10105523,-0.1541736,15.862152,-4.476097,-35.99389,182.0
34350,0.3283,-0.9938841,11.887003,-0.6281343,0.23391688,-0.1819237,14.076004,-4.3943505,-34.67734,
34400,-1.3063743,-0.7608042,11.569003,-0.31068572,0.3026797,-0.10783462,14.691767,-4.7668853,-34.564846,206.0
34450,-0.48911923,-0.8516369,9.999413,-0.12458422,-0.3109121,0.0035386719,13.428159,-3.8600488,-33.80201,
34500,-0.111270346,-1.1063517,9.297251,-0.3541485,0.012288814,-0.046155866,11.089449,-3.4270682,-34.081867,220.0
34550,-0.0710263,-0.9330389,9.074712,0.14540681,0.13133201,-0.06996453,10.718752,-3.44177,-32.728985,
34600,-0.55838645,-0.121690474,7.435485,0.22279823,0.12850907,0.10047766,9.518496,-2.7897732,-33.29259,239.0
34650,-0.4210058,0.16912064,8.956254,0.17651251,-0.07325185,0.22074589,9.148682,-3.07676,-32.400837,
34700,0.2578729,0.5484446,8.686644,0.44032502,-0.47592145,0.30548763,8.226747,-3.4814434,-32.914326,
34750,1.0298158,-0.1545085,10.306948,0.07914742,-0.31746352,-0.038219653,5.5182114,-3.4510605,-32.14632,
34800,-0.28362504,-0.74463457,11.549959,0.12755182,-0.04177331,-0.104484975,5.210078,-3.218022,-32.032875,
34850,0.6669009,-0.5952766,11.850112,0.36996436,0.082756,0.10441913,4.8101716,-3.9486299,-31.19863,218.0
34900,1.2213343,-0.93471587,9.137713,-0.35004726,0.5519513,-0.26426858,4.3465266,-2.5667455,-31.009495,
34950,-0.2593109,-1.7027063,13.370642,-0.5232059,0.39450532,-0.34586775,5.02181,-2.014219,-30.225271,192.0
35000,0.12412322,-0.67084116,8.895975,0.28016263,0.16254425,0.13270187,4.9280496,-1.2725519,-29.833807,174.0
35050,0.8974657,-0.3093762,8.67239,-0.37342975,-0.07522259,-0.022080911,5.5443225,-1.2176844,-30.716747,
35100,0.39645132,-0.19463277,9.024646,-0.195371,-0.103398815,-0.1698862,4.587434,0.14068203,-29.641973,155.0
35150,-0.3305764,0.11462351,8.634663,-0.2151849,0.107416846,-0.13633043,4.7401996,1.0256176,-29.772232,143.0
35200,-0.14313021,0.34339172,9.103815,0.043727405,-0.17594326,0.01791973,4.70971,1.0214447,-30.020569,130.0
35250,0.3956129,0.7736197,8.841391,0.19345021,0.1880573,0.14111745,4.8632174,1.664967,-30.519445,116.0
35300,0.88141596,0.49778026,9.152925,0.23254535,-0.19160262,-0.020110179,4.585785,1.1467695,-29.406042,104.0
35350,-0.5785083,0.1955907,10.471875,-0.083465055,-0.21242853,-0.023039652,4.462328,1.1790164,-29.099957,86.0
35400,-0.2625448,-0.47921568,12.882685,0.4002711,-0.23123041,0.36173356,3.261233,2.0447974,-29.170813,59.0
35450,1.3478155,-0.12983505,9.304198,0.35920513,-0.09871163,0.41185418,4.0612307,1.2458079,-28.182123,31.0
35500,0.11378495,-1.8163719,11.911916,-0.57135576,0.098415375,-0.29319048,5.044058,2.2967818,-27.891272,16.0
35550,-2.1919262,-0.69883054,10.422527,0.17182532,0.22672638,0.30697897,4.890029,2.2101707,-27.615524,15.0
35600,0.76571435,-0.43657607,9.222992,-0.30823565,-0.093065746,0.31369013,5.0433474,2.5667503,-27.58488,
35650,0.14887865,-0.58952737,9.713945,-0.4608879,0.06592484,-0.088340305,5.813086,2.7446592,-28.279715,
35700,-0.03437549,-0.6480968,9.546741,-0.10104189,0.079187356,0.006148568,5.288495,3.2204754,-27.4935,
35750,0.1888831,-0.16301243,7.772409,-0.10152127,0.034339763,0.0027929873,6.5190687,3.472227,-27.651524,14.0
35800,-0.07629636,0.05270038,9.48877,0.045591623,0.018201027,-0.06453167,5.7801256,3.699655,-27.48682,
35850,-0.11043195,0.2730844,9.206224,0.4446926,-0.25083128,0.02899847,6.459249,2.666946,-28.200836,
35900,0.4066321,-0.15378986,9.526618,0.19300634,-0.32093155,-0.1357327,6.8899107,2.9060943,-28.409565,15.0
35950,-0.6631886,-0.9482503,11.535225,0.17038724,-0.12816617,-0.22469404,5.9371877,2.2407036,-28.580322,16.0
36000,-0.41873008,-0.8881238,11.043554,0.22892348,-0.17120281,0.06511091,6.9527473,2.079221,-28.553192,
36050,1.0888644,-0.5355094,10.430071,-0.03723263,0.024432812,0.16668378,6.922807,1.9230063,-29.109278,
36100,1.353382,-1.737964,12.149162,-0.5667218,-0.0079511935,-0.32445595,7.107564,2.0395658,-29.384613,
36150,-0.18984206,-1.3034998,11.179258,0.26114768,0.21921626,-0.08306724,7.3529906,2.31327,-29.072147,15.0
36200,0.72211665,-0.5270054,8.37475,-0.104557276,0.30092198,-0.00833902,7.9383073,1.5307653,-28.738995,
36250,0.46508178,-0.18205652,9.548538,-0.19398615,0.14789686,-0.04216113,8.67892,1.2811009,-30.38914,14.0
36300,0.20421419,0.31524482,8.2742605,0.011982551,0.07354146,-0.039924078,9.231357,1.2209799,-29.043726,
36350,0.036171354,0.6720513,8.2887535,0.12511355,0.02746882,0.06441848,9.385502,1.0454973,-29.099766,
36400,0.9325594,0.71516997,8.405416,0.008041072,-0.0469931,-0.011481544,9.663885,0.39322415,-29.611486,
36450,0.77697307,0.4595724,9.345401,0.07355478,0.1432097,-0.10458557,9.848932,0.07172642,-29.603165,15.0
36500,0.23212151,0.18205626,10.576558,0.21171947,-0.094344065,-0.13510537,10.371717,0.34361058,-29.686163,
36550,-0.010061373,-0.4102258,10.49475,0.35584956,-0.028936882,0.03656184,10.863096,0.13144016,-28.588135,17.0
36600,0.5964738,-0.15989831,10.628778,0.3597911,0.19913603,0.13121049,11.2645035,-0.2868166,-29.347132,
36650,0.26949096,-0.364094,9.423864,-0.2361706,-0.043530993,-0.5002245,12.371997,-0.32619172,-29.133408,20.0
36700,-1.9305168,-0.8795001,11.844603,-0.6913044,0.1595615,-0.19827548,12.616356,1.003762,-29.173687,26.0
36750,-0.55682933,-1.2467268,11.439168,-0.3038681,0.12440781,0.17424713,13.662491,1.3084332,-29.55358,46.0
36800,-0.4344204,-0.9030954,10.058775,0.007881286,-0.42153978,-0.04546345,13.815531,1.1187559,-28.588037,69.0
36850,0.13342777,-0.94393843,8.785578,-0.1418415,0.048347987,0.10473871,14.214056,2.3598194,-28.809168,88.0
36900,-0.09581952,-0.50927883,9.423614,0.056510575,-0.12912491,-0.056648713,15.013822,2.2296462,-28.447285,110.0
36950,-0.21307817,-0.100730024,8.6332245,0.2541702,-0.06371774,0.12939955,15.414205,1.9118792,-28.40269,130.0
37000,0.37656885,-0.05210179,8.647597,0.25301617,-0.1263434,0.0061248965,16.304703,2.5565827,-27.583227,146.0
37050,0.014492264,0.15438846,8.950986,0.2748896,-0.13546324,0.034271523,17.321575,2.2328668,-28.544683,161.0
37100,0.40950665,-0.5231726,9.635493,0.10055922,-0.31085888,-0.09984515,17.84527,1.7400773,-28.494995,179.0
37150,-0.3326125,-1.1171315,11.306938,0.04857435,0.111837685,-0.004610601,19.56563,3.4218383,-28.162151,202.0
37200,1.4263811,-0.7921281,11.412994,0.21859042,-0.1440386,0.17691031,19.966827,2.8327127,-28.516785,223.0
37250,1.8824866,-1.6034136,9.2649145,-0.5224069,0.32196093,-0.49777436,21.41121,3.8321908,-28.182901,241.0
37300,-0.9399862,-1.7939742,13.548268,-0.63468564,0.32739377,-0.5225417,22.885687,5.796233,-28.447546,259.0
37350,0.7912262,-0.66654193,8.729163,0.23691294,0.3234523,-0.25249738,23.653603,6.635249,-28.314352,276.0
37400,0.43489876,-0.21738982,9.786887,-0.6844335,0.21719225,-0.34325784,25.129078,7.3703218,-27.945679,
37450,-0.13151214,0.114982806,10.081411,0.044899195,0.2982588,-0.22522667,26.234623,8.630463,-27.59229,295.0
37500,-0.6398327,0.32614428,7.7103677,0.28170726,-0.47256583,-0.09371989,27.067059,7.983351,-28.306965,
37550,-0.3478238,0.41298038,8.724731,0.059653092,-0.26372093,0.12561788,27.867682,7.899634,-28.781326,
37600,0.6743268,0.2116404,9.567462,0.2366999,-0.25408036,0.1447926,29.192944,6.9343033,-29.572906,323.0
37650,0.07126511,0.21415564,10.434384,0.14897545,-0.11319922,0.11081071,30.209711,6.2646804,-30.004156,
37700,0.22828874,0.020002114,11.325384,0.4207242,-0.11586239,0.3369662,30.612183,5.1664896,-30.879065,
37750,0.17304145,0.4683979,10.687416,0.5039212,0.048987143,0.30511475,31.352835,3.7874177,-31.1542,
37800,1.4406402,-0.16516837,9.589858,-0.19920595,0.11822927,0.18564548,32.3398,2.9597278,-32.265324,
37850,-0.023476034,-1.2251676,12.071454,-0.42573428,0.20488843,-0.34506884,32.247185,3.5124588,-32.676414,
37900,-1.5046004,-0.71588886,10.039728,0.055445295,-0.17157567,0.14718947,32.46415,3.2051587,-33.719856,279.0
37950,0.33764237,-0.8550661,9.029797,-0.18775436,-0.22292134,0.08987828,31.634968,2.969502,-34.85206,257.0
38000,-0.7260699,-0.8527905,9.863783,-0.10455726,-0.14856598,0.054884374,31.480686,3.6677818,-35.328274,238.0
38050,-0.0911483,-0.7672718,8.621129,0.052675623,-0.20241506,0.28929564,31.083471,2.8144484,-36.78306,221.0
38100,0.42615527,-0.16948025,8.649514,-0.049932934,0.21892035,0.26030862,30.284784,2.5829644,-37.666924,205.0
38150,0.67432684,0.27188665,8.175448,0.14492746,-0.19735503,0.14804168,29.363026,1.9732987,-38.085175,191.0
38200,0.9587898,0.17319296,8.950146,0.0823432,-0.074583426,0.049824364,29.148655,1.4356512,-38.33191,175.0
38250,0.65707934,-0.5690461,10.335093,-0.034249887,-0.21684937,-0.15896729,28.810556,1.8312156,-39.14967,146.0
38300,0.2983628,-0.90585035,11.387276,0.03541835,0.16323665,-0.059524935,27.70232,1.9673752,-38.80738,107.0
38350,0.5361077,-0.5906053,11.034093,0.25587457,0.1483762,0.0018342506,27.702204,1.650487,-38.308468,81.0
38400,2.2812135,-1.5719131,10.042006,-0.5462688,-0.10973712,-0.37915725,26.840967,2.0104852,-39.015022,65.0
38450,-0.06755284,-2.089576,13.809256,-0.5876543,0.56974113,-0.41974378,26.253582,3.8046372,-38.740883,49.0
38500,0.31883782,-0.79817355,9.8279705,0.46274877,0.20669937,-0.00439754,25.7008,3.319428,-39.089497,35.0
38550,0.5438931,0.13079299,7.5806513,-0.22839415,0.19375646,-0.10916622,26.284143,3.9815316,-38.77312,30.0
38600,0.3279406,-0.48652187,9.976848,-0.35441485,-0.10393143,-0.30831715,25.08363,4.6948075,-39.18268,
38650,-0.8362619,-0.27967224,9.41475,0.27984306,-0.13551648,-0.002426803,24.929638,5.3313446,-39.84389,
38700,0.6245009,0.37273633,8.076396,0.22476897,0.056497246,0.28743142,23.453835,4.861146,-40.246593,31.0
38750,1.1275516,0.68019605,8.652987,0.220934,-0.21120346,-0.016807863,24.038303,4.3504634,-39.483265,
38800,0.668937,0.36219615,9.2180805,0.08596511,-0.048218153,-0.0022670159,23.545872,4.634568,-39.715477,29.0
38850,0.5300938,-0.009563143,11.337348,0.03270193,-0.13040322,0.008705201,22.716022,4.4367313,-40.290977,27.0
38900,-0.019882847,-0.13558424,12.174339,0.5998483,-0.0043825596,0.19928083,22.56145,4.849459,-40.14484,24.0
38950,0.9308826,0.6673802,9.448645,0.43728906,0.09553916,0.35997587,22.933252,3.0548182,-40.238625,
39000,0.5459291,-0.59359974,10.631293,-0.5588389,-0.1979942,-0.25042012,22.193327,3.497884,-39.45738,
39050,-0.67372876,-1.1074297,12.268602,-0.1888196,0.032422293,-0.012653336,21.914124,5.3768115,-39.73371,20.0
39100,-0.30710074,-0.7485872,9.409479,0.088308685,-0.26814184,0.04247405,21.42161,5.71988,-39.966602,17.0
39150,-0.00742635,-0.75589335,8.658016,-0.3519647,-0.03639373,0.022447098,21.053915,4.6810236,-40.056576,
39200,0.014971371,-0.6611522,9.752993,-0.20705928,0.08842556,0.01358174,21.482395,6.5412087,-40.315083,15.0
39250,-0.054617286,-0.23379883,8.470331,0.33837932,0.047495767,0.13951954,21.14447,5.8345313,-39.912918,
39300,0.522693,0.22313869,7.7101274,0.25012222,-0.05370427,0.13856083,21.729548,5.6052322,-40.05047,
39350,0.39872703,0.5046073,8.713234,0.14343607,-0.123372495,0.056801848,21.513948,5.518151,-39.745293,
39400,1.1497662,0.06873117,9.396633,0.034885723,-0.45546833,-0.10202894,21.483896,4.8714004,-39.583794,
39450,0.19954303,-0.39034337,10.818499,0.059919406,0.09905453,-0.29681236,20.867798,6.261438,-40.66761,
39500,-0.28362507,-0.4618484,11.153269,0.1233026,-0.22510514,-0.07156241,21.050785,6.198957,-39.114693,
39550,1.454654,-0.47178966,10.523256,0.005058342,0.04941324,0.09094355,20.96069,5.531352,-40.285408,16.0
39600,1.0856304,-1.4455518,11.055292,-0.7127162,0.28542238,-0.3313269,21.694809,7.336484,-38.6166,17.0
39650,0.113784865,-1.1547406,12.218779,-0.15494423,0.31514323,-0.019151442,21.201681,8.70076,-39.57325,24.0
39700,0.91100013,-0.5953963,8.737907,0.022422135,0.19349013,0.055523515,22.031107,8.383211,-37.970345,31.0
39750,0.66019356,-0.6015048,9.744846,-0.5559627,-0.061906803,-0.13105735,21.723959,7.995279,-37.973488,38.0
39800,0.06371936,-0.4066326,9.9590025,-0.12628865,0.31088215,0.046841633,21.814692,8.943804,-37.734596,57.0
39850,-0.17031893,0.3897442,8.529501,0.3498309,-0.036819838,0.19262296,22.829092,9.231959,-37.217457,72.0
39900,0.6245009,0.94789076,7.379911,0.15659206,0.15775056,0.37249273,22.399471,8.255303,-37.031116,81.0
39950,1.4309196,0.78472716,9.580958,-0.039043568,-0.1049967,0.14953303,23.168392,8.357275,-36.889355,92.0
40000,0.68187255,0.16385059,9.826054,0.36053675,-0.1229464,-0.10655631,22.922998,7.706792,-36.76412,110.0
40050,-0.31141257,-0.4423252,11.203333,0.061091203,-0.15623586,0.06303364,21.908306,7.335749,-36.908867,123.0
40100,-0.20229855,-0.38603145,12.055883,0.635215,0.19950888,0.49505123,22.863531,6.317897,-36.904274,139.0
40150,1.2455287,-0.18696725,9.078064,0.26199988,-0.026113946,0.3395761,23.695057,5.161886,-36.15829,
40200,0.11306616,-0.87590694,10.434384,-0.71559244,-0.4981323,-0.14474602,22.741377,5.5223365,-36.743336,160.0
40250,-0.23116402,-0.612045,10.501218,-0.46264562,0.37538385,0.29201204,22.924088,6.3608203,-36.067543,189.0
40300,1.0438296,-0.8703972,9.7238865,-0.6516884,-0.17238645,0.025003722,23.169472,7.0403214,-36.224068,209.0
40350,0.04120185,-1.2735564,10.697168,-0.6368162,0.38960513,-0.010522806,23.505934,7.766455,-35.326473,232.0
40400,0.5904851,-1.0743723,9.99757,0.05422026,0.04003893,0.004763721,23.536264,7.5122404,-34.610863,
40450,-0.4964633,-0.1930757,8.426254,0.2861281,0.11178442,-0.048020083,23.19838,6.9787483,-34.458324,254.0
40500,-0.32357907,0.08625599,8.446636,0.3632532,-0.14329292,0.1576823,23.137854,6.0381026,-34.201313,
40550,0.2409848,0.3317736,8.745211,0.44751555,-0.04422342,0.045723107,22.924765,4.615075,-34.499657,
40600,0.072103545,-0.2899728,9.359532,0.18061377,-0.32619864,-0.107994415,22.58787,3.9815552,-35.119762,271.0
40650,0.031140845,-0.8798593,12.216143,0.122397125,0.031357028,-0.10751506,21.941425,3.513012,-34.263737,
40700,0.24996781,-0.9084854,10.499901,0.38370627,0.032582104,0.04668184,21.51125,2.5437667,-33.58225,
40750,1.8788931,-1.2737958,9.853839,-0.35654536,-0.034103412,-0.22123194,21.542288,2.3958986,-33.64167,
40800,-0.427234,-2.1895876,12.965088,-0.607628,0.22789817,-0.39028928,20.801956,2.4391901,-31.98913,
40850,0.2638616,-1.0728152,10.570089,0.3321475,-0.0064598275,0.2463655,21.386902,2.7036693,-32.627655,
40900,0.9100419,-0.20145991,8.168501,-0.12975076,0.0943141,0.0070540397,20.433712,1.92869,-32.24,254.0
40950,0.15917921,-0.35692644,10.046797,-0.15430509,0.0044591287,-0.1501256,19.355661,2.1888022,-31.526958,235.0
41000,-0.42364067,0.10863481,8.1382,0.30727357,0.033700608,0.04348605,19.908598,2.2378068,-30.770908,217.0
41050,0.29395002,0.45932028,8.340226,0.049106978,0.06624441,0.14852104,19.724295,1.5652621,-30.21055,
41100,0.86464757,0.7040309,8.588788,0.15818997,-0.041666787,0.100850485,19.139847,0.8599455,-29.474049,193.0
41150,0.6259382,0.48137122,9.371152,0.039998975,0.005630915,-0.03124218,18.801117,0.5692566,-28.86005,178.0
41200,0.2633825,0.26206517,11.320471,0.15073313,-0.080389105,0.096216604,18.18747,-0.7073368,-28.829578,165.0
41250,0.65935504,-0.31704172,11.462045,0.543549,-0.20545104,0.24993412,17.296085,-1.2534031,-28.969238,153.0
41300,0.739364,0.4114233,10.259993,0.38045722,0.21735206,0.23427474,17.295513,-2.0852127,-27.411976,133.0
41350,0.36950222,-0.3680654,10.352098,-0.24373396,-0.0714409,-0.07305378,16.89537,-2.1179845,-27.235834,57.0
41400,-0.121091805,-0.9549575,11.38994,-0.3747791,0.08747867,-0.101111636,16.772072,-2.550961,-26.491016,17.0
41450,-0.78284276,-0.66953623,10.41091,-0.06658064,-0.07394426,0.021275308,16.123917,-1.2888792,-26.243176,15.0
41500,0.43705472,-0.44160658,8.329359,-0.24463943,-0.14398535,0.046628576,15.724152,-1.6740434,-25.970087,
41550,-0.5068836,-0.46100998,10.264786,-0.3999549,0.20701897,-0.09201546,14.860849,-0.50506556,-25.819378,15.0
41600,-0.062345855,-0.2381422,9.417434,0.38844672,-0.22116366,0.17776254,14.830332,-1.0877564,-25.318142,
41650,0.34135535,0.4422052,7.4829164,0.35659525,0.061663777,0.17307535,14.092906,-1.9226004,-25.203007,
41700,0.7270273,0.5225734,8.763779,0.2544898,-0.21988538,0.092488185,13.139421,-2.7804658,-24.442966,14.0
41750,0.9659764,0.2414641,8.555609,0.11382176,-0.1800445,-0.13036495,12.372212,-3.484118,-25.382486,
41800,0.72810525,-0.4513083,11.404793,-0.15206805,0.0811581,-0.26842314,11.787295,-3.1700797,-25.49353,15.0
41850,0.51083547,-0.45909357,10.782449,0.26136073,-0.06915058,-0.19550583,11.786858,-3.0484464,-25.247328,18.0
41900,1.9480026,0.17510933,10.865092,0.09890806,0.27125436,-0.20956728,11.757545,-3.0393515,-26.579142,23.0
41950,0.78463864,-1.1313846,9.569498,-0.63314104,0.4232675,-0.8568214,11.171862,-3.6123803,-24.88466,
42000,-1.225168,-1.9236892,13.136366,-0.6360172,0.037801877,-0.59620464,10.063871,-2.9585195,-25.415037,18.0
42050,-0.58521587,-0.6873827,10.2744875,0.32458416,0.22385013,0.23139854,10.678919,-2.85842,-25.246134,15.0
42100,0.8957888,-0.2118802,7.7683363,-0.3695416,-0.4469463,0.07405912,9.510422,-2.8559453,-25.894287,
42150,-0.02326173,-0.24684161,9.989322,-0.5054159,0.37138915,0.17318189,9.479503,-2.9701703,-25.615158,13.0
42200,0.17319271,0.27512056,8.737429,0.24655357,-0.29077867,0.17414062,8.402849,-3.30757,-25.42136,12.0
42250,0.4430434,0.9920872,7.938656,0.01081076,-0.049336683,0.24844277,8.7105465,-3.0716786,-25.725967,
42300,1.2541525,0.79493946,9.63717,0.21784472,-0.01088067,0.24556656,7.634879,-4.0300493,-25.648767,
42350,1.2995466,0.6290525,9.06465,0.35031024,-0.28752962,-0.08860662,8.19113,-4.633054,-27.08273,11.0
42400,-0.13570423,-0.16492884,10.649138,0.053634353,-0.12401166,-0.009031442,7.052327,-5.021086,-26.270838,
42450,-0.21451548,0.06120435,11.525286,0.14982764,-0.09365163,0.47635588,7.636522,-5.007119,-25.915985,
42500,2.2364182,-0.25475925,9.702927,0.046059165,0.33408716,0.48034465,8.284365,-5.888716,-26.353954,
42550,0.31464577,-1.4751358,11.6074505,-0.7751939,-0.10419774,-0.3838977,8.005717,-4.9434776,-25.969446,
42600,-1.1206052,-1.4419583,12.261654,-0.2537474,0.047921874,0.043486066,9.26739,-4.782484,-26.311361,13.0
42650,0.5563496,-0.89303434,9.290664,0.04729604,-0.06499605,0.32295793,9.974704,-4.304206,-26.57788,16.0
42700,0.2699953,-0.58586484,8.814151,-0.20581055,0.13926823,0.09882648,10.006113,-4.5727816,-26.821615,20.0
42750,0.309735,-0.67959744,9.146814,-0.13188128,-0.061427426,0.0060953037,11.051997,-4.235849,-27.01617,27.0
42800,0.03509339,-0.26853326,8.785816,0.25326473,0.11972065,-0.0013082757,12.774585,-4.2336245,-26.601917,35.0
42850,0.4781371,-0.057132326,8.161914,0.15723121,-0.06164047,0.057760585,12.498935,-5.007133,-26.785532,40.0
42900,0.5351496,0.105640456,9.334501,0.23185296,-0.15165523,-0.10149632,13.144251,-4.0894136,-27.182495,49.0
42950,0.8125461,-0.35596827,9.729994,0.20554094,-0.38473484,-0.23092583,12.990051,-4.00006,-26.970694,58.0
43000,0.14552495,-0.96046734,10.958875,0.08809563,0.08477999,-0.23811634,14.220357,-2.876362,-27.974548,68.0
43050,0.30111128,-0.6127635,11.253878,0.34157506,-0.291045,-0.090417564,13.3595295,-3.4191818,-27.92777,80.0
43100,1.6806675,-0.77793175,9.304319,-0.27207,0.13308969,-0.20221695,14.310681,-1.7776486,-27.551685,89.0
43150,0.70163536,-2.4191937,13.467661,-0.8093888,0.06310187,-0.53548473,14.89459,-0.63103086,-28.355215,110.0
43200,-0.5986305,-1.4649551,11.557983,0.37182853,0.15087959,0.0005559355,14.431895,0.680308,-28.939062,132.0
43250,1.1911198,-0.52824724,8.080507,0.22748542,0.11854887,0.25046676,15.078255,0.48420373,-28.88976,141.0
43300,1.1014407,-0.15498759,8.732515,-0.18834023,0.013939967,-0.10740852,14.955032,0.9185408,-29.300243,151.0
43350,0.3115316,-0.082045294,8.896606,0.04255561,0.0211305,-0.080989994,15.075907,1.7022235,-28.28487,161.0
43400,0.069109194,0.32794088,8.275818,0.024499392,-0.010348034,0.022606893,15.107524,1.9808311,-29.401611,
43450,1.0398767,0.63755643,9.331744,0.09651122,0.075245894,0.18820211,15.0146885,2.420731,-29.470917,176.0
43500,1.5338246,0.8803382,9.170051,0.33113545,-0.11005668,-0.013239229,14.7363405,3.0725408,-28.990149,
43550,0.48664117,0.64198816,9.409601,-0.04554167,0.16440843,-0.10565084,13.876277,2.895844,-30.092846,
43600,0.022996226,-0.46328568,12.419878,0.16181777,-0.20274647,0.03465028,14.0285845,3.6421726,-29.633404,193.0
43650,0.31656212,0.36363348,10.190166,0.51340204,0.049786102,0.31454235,14.029645,3.1649048,-29.999287,
43700,1.7345651,-0.5809036,10.333056,-0.4022452,0.23727246,-0.04333292,14.860628,3.7818055,-30.976252,
43750,-0.9310031,-1.067665,12.881247,-0.28362808,-0.1668885,-0.3331911,14.552195,4.510939,-31.20904,208.0
43800,-0.68239665,-0.8791219,10.165454,0.24197295,0.063368194,0.29078698,14.060758,4.6369796,-32.151306,
43850,0.5337122,-0.5835388,9.317254,0.053421296,0.040678088,0.21856208,14.67668,4.349183,-32.287422,
43900,0.057850428,-0.29428467,8.887265,-0.03025515,0.05559177,0.033525843,14.246984,4.3287487,-33.22646,
43950,0.26362202,-0.20756838,8.771683,0.025777712,-0.048590988,0.07954522,14.461784,4.223819,-32.56989,192.0
44000,0.06863011,0.34399056,8.768809,0.1354466,0.23412998,0.102874495,14.585856,4.24127,-33.495594,179.0
44050,0.767511,0.8822546,8.245995,0.35664853,-0.17482471,0.10111681,14.5558605,3.825278,-33.67724,
44100,0.6876217,0.95723313,8.427214,0.17161228,-0.017325513,-0.13356075,14.003003,3.196366,-33.77656,158.0
44150,0.33644456,0.06599529,10.476545,0.049266774,-0.30942076,-0.284189,13.695154,4.1202908,-34.78541,146.0
44200,-0.119534746,-0.21211977,10.971809,0.38114962,-0.17679547,-0.12338747,13.296288,3.5784519,-35.12954,135.0
44250,0.6824715,0.24445844,10.859463,0.06561857,-0.11463733,0.021435099,12.958636,3.44705,-35.693573,126.0
44300,1.8648798,-0.6040201,10.6518955,-0.33241713,-0.019722354,-0.2510593,12.836453,3.3465455,-36.37641,117.0
44350,-0.08188791,-1.6512226,12.887474,-0.5753504,0.22038805,-0.32248524,13.295728,4.512141,-35.790382,107.0
44400,0.088512495,-0.78404033,11.227407,0.29518288,0.092875995,0.30575395,13.850473,4.363409,-36.42487,92.0
44450,1.8461952,0.063480034,8.261085,0.13890871,0.26986954,0.17115788,14.067281,3.7396839,-36.938454,84.0
44500,0.78619576,0.41968766,8.465901,0.0056442344,0.13095917,-0.10453232,13.666623,3.85849,-36.4855,71.0
44550,0.14540517,0.7533778,7.5487914,0.03872066,0.010637654,-0.12141673,14.930433,3.354206,-37.933964,56.0
44600,0.17079726,0.9595087,8.279173,-0.21507835,-0.06265248,-0.009351021,14.4985,4.145068,-37.861,46.0
44650,1.3003852,0.9501664,9.946187,0.14061311,-0.031120678,0.060690057,13.760895,3.717874,-38.091076,36.0
44700,1.1340191,1.3624283,9.155318,0.20803839,0.31461653,-0.046605647,14.19357,2.8592467,-38.751335,30.0
44750,0.21619157,1.093536,10.598595,0.16202492,-0.17802052,-0.16274896,14.377968,2.8358092,-38.529804,26.0
44800,-0.30230972,0.7590072,11.227526,0.17049377,-0.14590283,-0.029005134,13.395642,2.4439232,-40.09735,22.0
44850,0.5405394,0.6539656,11.876462,0.2370195,0.13862908,0.31576747,13.704199,2.349955,-40.76955,16.0
44900,0.7619509,0.042002678,10.499939,-0.07568863,-0.17647587,-0.1921502,14.013843,1.6626453,-41.682472,15.0
44950,-1.6274881,-0.10839553,10.618956,-0.24021856,0.124993704,-0.07912576,12.875687,1.7001635,-41.989796,18.0
45000,0.28314513,-0.16780342,10.250892,-0.12602235,-0.12507692,0.4199502,13.400052,1.1405346,-42.465515,
45050,0.3449486,-0.1384588,8.897446,-0.21033795,0.11354212,0.068679534,13.923372,1.5210812,-43.168816,
45100,0.020121656,-0.114264466,9.481225,-0.24149695,-0.04507563,0.13168988,12.723061,2.463263,-44.04531,
45150,0.35141632,0.1761873,8.65706,0.21683273,0.030238504,0.16535221,13.431871,1.2717335,-43.580547,
45200,0.36483094,1.1225212,7.7459397,0.25598118,0.1720251,0.12860061,12.972064,0.5184191,-44.202312,16.0
45250,0.3980084,1.2437322,8.142751,0.1033289,-0.22467904,-0.035503235,13.219984,0.09319496,-45.274574,
45300,0.25499833,1.086469,9.699692,0.0483613,-0.1116546,-0.09329378,13.159413,0.137327,-46.20518,
45350,0.36231574,0.36507076,10.056498,0.08500636,-0.08667417,-0.20408118,12.881836,0.19996376,-45.686615,
45400,-0.23140362,0.10923368,12.170745,0.029506136,-0.021959415,-0.108154215,13.622986,-0.49100113,-47.269733,
45450,1.206123,0.05019773,11.095783,0.18615314,-0.0045956136,0.06825342,12.794739,-1.2601101,-48.581444,15.0
45500,1.5568211,-1.234989,11.835381,-0.60624313,0.12605897,-0.51945245,13.163057,-0.22959232,-49.048504,
45550,-0.6291728,-1.2366657,13.120076,-0.20570397,0.4855854,-0.13601086,13.929663,1.2926018,-48.582783,
45600,0.62881273,-0.109832846,9.4732,0.30375823,0.08302232,0.1944339,14.915594,0.42077255,-48.70291,
45650,1.1077886,0.288655,7.672637,-0.14945814,-0.009602344,-0.040616497,14.208258,0.60853064,-49.24889,
45700,0.41262087,0.18349352,8.749046,-0.21337397,0.40105677,-0.02964429,14.916115,0.24017563,-48.948444,
45750,0.1457645,0.6598345,8.370921,0.22769842,-0.18318704,0.037840154,15.254529,0.18773746,-48.846558,16.0
45800,1.040955,1.2571471,7.5810103,0.061978918,0.04551912,0.08477685,15.656079,-0.6086866,-49.26069,
45850,1.1182091,1.4151288,9.112799,-0.039150104,-0.0805489,-0.09457209,15.009474,-0.033025168,-49.56201,19.0
45900,0.53790444,1.5481977,9.340729,0.04889392,-0.16353294,-0.094199255,15.13338,-0.41859037,-49.83304,22.0
45950,0.34243327,0.97555846,11.332211,0.03509877,-0.14451799,-0.033319447,13.964584,0.4272747,-51.264793,28.0
46000,-0.020488007,0.9935119,12.059142,0.28809887,-0.34196457,0.10564419,13.93429,0.13106307,-51.324013,36.0
46050,0.6767224,0.7564919,10.250412,0.41156292,0.28062868,0.1783484,14.090198,-1.2835827,-51.42757,42.0
46100,-0.40280008,-0.2703299,10.502775,-0.64256865,-0.120229974,-0.24791677,14.551027,-0.80440676,-51.39071,57.0
46150,-1.4775316,-0.6059365,12.300701,-0.23840766,-0.092000484,0.10154293,13.534314,0.6749557,-52.021233,96.0
46200,0.11701876,-0.35968122,9.929659,-0.041813258,-0.24358745,0.27528742,13.102678,1.5487039,-52.320667,123.0
46250,0.1590594,-0.36698744,9.528417,-0.13294654,0.04829472,0.1431947,13.256932,0.9955168,-52.000885,147.0
46300,0.25020733,-0.021319909,8.862353,0.06577836,-0.024729095,0.10979871,12.701694,1.9323835,-51.901733,171.0
46350,0.15546621,0.51323116,7.8196006,0.1091346,0.21644656,-0.038752284,13.717695,1.2729527,-51.65215,192.0
46400,-0.05533588,0.71864337,8.539801,0.008840022,-0.028617304,0.07693533,13.533979,1.3451624,-52.5552,215.0
46450,0.31177115,1.0391585,8.565791,0.21736535,-0.067179844,0.05333974,13.348917,1.2037535,-51.970055,238.0
46500,1.0087355,1.0603584,9.222513,0.08404764,-0.26851463,-0.09041758,13.165274,1.6223328,-53.372353,261.0
46550,0.111641586,0.4267922,10.845897,0.16223797,-0.084064275,-0.23060624,13.472952,1.597983,-53.333466,277.0
46600,-0.13187143,0.21020308,10.879704,0.061091207,-0.16603628,-0.11848726,12.795909,1.3583424,-52.914192,
46650,0.3594412,0.3744131,12.467667,0.10513985,-0.060681738,0.12844083,13.105362,0.38408947,-53.2976,299.0
46700,2.1746151,-0.4017219,9.830724,-0.028976839,0.051490508,-0.19097844,12.981992,1.4282795,-54.334206,
46750,0.34698462,-1.3914139,11.715965,-0.65817475,0.011117032,-0.51524466,13.4103365,3.4639657,-54.687603,
46800,-0.10851554,-0.53886306,10.817062,0.08841521,0.4773829,0.12662989,13.840439,3.536878,-54.182495,326.0
46850,1.4816033,0.21954544,8.535608,-0.13193455,0.053194933,0.018771937,14.976939,4.534466,-53.670544,
46900,0.088392794,0.5746752,8.870135,-0.07082392,0.22554867,-0.013523305,14.454245,3.798285,-53.086914,
46950,0.16181418,0.8517122,8.225394,0.13768366,-0.029576045,0.11107703,16.147654,3.8367703,-54.15954,353.0
47000,0.012336339,1.1663585,7.977463,0.021410132,-0.14307986,0.06841322,15.40887,3.9462707,-53.99347,
47050,1.0795221,1.1901934,9.256529,-0.009322719,0.020864185,0.19565895,15.716517,3.8933663,-53.89234,
47100,0.9013931,1.481433,9.239413,0.23749885,-0.065688476,0.009610673,15.470723,3.9140167,-54.239178,322.0
47150,0.49155182,1.2686453,9.6079445,-0.063704416,0.0050450177,0.0048169876,16.1493,2.6570344,-54.176796,298.0
47200,0.2600288,0.45430246,12.580614,0.2657283,-0.22899334,0.123061255,15.073001,3.0095947,-55.167183,269.0
47250,0.8989031,0.7345734,10.789873,0.42493194,0.05750925,0.21664464,15.751993,1.573405,-55.257477,251.0
47300,0.6048579,-0.25032765,11.006065,-0.19766133,0.060971357,-0.18980664,16.367535,1.0880377,-54.803204,233.0
47350,-0.37465322,-0.7369691,11.351255,-0.39276427,0.027948186,-0.16658393,16.950424,2.3061273,-54.77185,215.0
47400,-0.8399749,-0.9391476,11.829871,-0.11329242,0.0057374425,0.06218143,16.67222,3.3033803,-54.852226,178.0
47450,-0.10719802,-0.5211365,9.251857,0.2070323,-0.09482343,0.24311642,16.98104,2.3955028,-54.74118,90.0
47500,0.053658348,-0.1747503,8.940446,-0.07659411,0.13937476,0.19826885,17.227015,1.9672028,-54.04914,30.0
47550,-0.2280499,0.2451771,8.721975,0.21209231,-0.08198701,0.1905457,17.472523,2.3555913,-53.954662,23.0
47600,0.62354267,0.66654176,7.91518,0.15478113,-0.4156808,0.15864104,17.50561,0.93583524,-54.277893,
47650,0.5024828,0.8093123,8.118709,0.19835041,-0.0241432,0.036188997,17.074024,1.3457495,-54.045753,
47700,0.32578474,1.298948,8.371518,0.27659398,-0.1823881,-0.008445543,18.522305,-0.1091753,-54.17859,
47750,0.91447353,1.5626901,8.879599,0.013367398,-0.35874242,-0.1567302,17.076477,-0.24997406,-54.27483,
47800,0.7472692,1.0489799,10.459417,-0.025994089,-0.1969822,-0.2810997,16.676453,0.38143748,-55.03496,
47850,0.25907063,0.39956564,11.112904,0.00915961,-0.015887404,-0.12802137,16.82998,0.5325712,-54.940033,31.0
47900,0.29703897,0.5637758,11.8596945,0.077549525,0.2622529,0.14500567,18.304634,1.5970386,-54.23472,39.0
47950,2.0308862,-0.88321304,11.366944,-0.4881587,-0.20822075,-0.19539927,18.982986,0.9798542,-54.76784,46.0
48000,0.72594947,-2.1766515,13.225237,-0.23990496,0.29544175,-0.17816569,19.534307,2.7580938,-54.712822,51.0
48050,1.1782156,-1.954471,11.585292,0.23622052,-0.17184198,0.19283602,20.67262,2.4290001,-54.185455,47.0
48100,1.9354265,-1.3276937,10.001763,0.03035835,-0.3198603,0.04700143,20.578949,3.2563329,-53.98069,
48150,2.227795,-0.9990344,11.228367,0.36490434,0.12078589,0.101383135,21.349026,2.735017,-54.110268,43.0
48200,1.2839131,-0.24331138,7.962497,0.9816386,-0.11868534,-0.14208286,22.21308,0.54297733,-53.661,
48250,1.5305908,0.5375453,7.781752,0.35174838,0.027522078,0.1659381,22.338253,-0.49628392,-54.26491,46.0
48300,1.88069,0.2124788,8.739702,0.11643163,-0.023344256,0.03762711,21.8773,-0.6843481,-54.552776,
48350,1.2809818,0.30446514,8.563756,-0.0072987205,0.16185181,0.025270045,23.845968,-0.56185037,-54.226646,44.0
48400,0.92285776,0.37489215,9.851445,-0.09017621,0.14826968,0.1833019,23.753378,-0.8778221,-53.575275,
48450,1.6958787,0.59491694,9.243711,0.050598346,-0.029256467,0.22138508,23.937849,-0.72853833,-53.634327,39.0
48500,1.9313545,0.2579929,9.855158,-0.14892551,0.07034568,-0.0051432266,24.951483,0.49608746,-53.59234,
48550,0.68354946,0.4647227,9.615969,0.11217059,0.4018557,0.089878276,24.82891,-0.12026558,-53.278725,
48600,1.0158021,0.9798703,8.467817,0.028068032,0.18076023,0.049504787,25.96698,-0.27246857,-52.753407,
48650,0.46747732,0.9925663,9.1970005,-0.18743478,-0.059776265,-0.12045801,26.213602,-0.41984805,-52.993187,36.0
48700,0.86500704,0.9954411,9.546861,-0.27079165,-0.21019149,-0.050736498,25.4138,-0.28921184,-53.324127,
48750,0.74229854,0.5470074,9.988047,-0.4654153,0.088455155,0.0621548,26.181818,0.70755434,-53.48681,
