Timestamp,acc_x,acc_y,acc_z,gyro_x,gyro_y,gyro_z,mag_x,mag_y,mag_z,light
6575,-0.21679117,0.16253307,10.642911,,,,,,,
6581,,,,0.08867276,-0.005348441,-0.05332136,,,,
6595,-0.17127708,0.5410187,9.119387,,,,,,,
6597,,,,,,,-4.254511,27.00152,-63.657074,
6601,,,,0.24260335,-0.23757587,-0.047462415,,,,
6615,0.11378488,0.842849,8.079749,,,,,,,
6617,,,,,,,-2.4090004,27.036484,-63.147278,
6621,,,,0.034344316,-0.22053166,-0.038407672,,,,
6635,0.073061705,0.6967248,10.144651,,,,,,,
6637,,,,,,,-4.8695087,26.987549,-63.981735,
6641,,,,-0.3076053,0.13153793,0.0020723366,,,,
6655,0.11378488,0.21044263,11.938865,,,,,,,
6657,,,,,,,-3.0220375,25.838608,-63.767715,
6661,,,,-0.20800312,0.27002215,0.06439025,,,,
6675,-0.14013585,0.19606978,11.016605,,,,,,,
6677,,,,,,,-3.3293533,26.697546,-65.17819,
6681,,,,0.20105807,0.0708179,0.019649185,,,,
6695,-0.27428266,0.5961147,8.944517,,,,,,,
6697,,,,,,,-3.4829693,25.53447,-63.93042,
6701,,,,0.33368334,-0.15182216,-0.019765563,,,,
6715,-0.19523187,0.8308716,8.213896,,,,,,,
6717,,,,,,,-2.7156658,26.29477,-63.146317,
6721,,,,0.076954864,-0.009609495,0.042552352,,,,
6735,0.0035928488,0.81410325,9.627228,,,,,,,
6737,,,,,,,-2.7143288,26.566425,-64.69707,
6741,,,,-0.23516734,0.30038217,0.15600291,,,,
6756,0.30781865,0.44280407,10.932764,,,,,,,
6757,,,,,,,-1.946394,26.739405,-63.75139,
6762,,,,-0.26712528,0.3158285,0.16665554,,,,
6776,0.16408992,0.31823918,10.98786,,,,,,,
6777,,,,,,,-2.25251,25.84565,-64.05818,
6782,,,,-0.059931505,0.11715686,0.043617614,,,,
6796,-0.032339334,0.31823918,9.864381,,,,,,,
6797,,,,,,,-1.3317375,27.62625,-64.21066,
6802,,,,0.12862015,-0.13957164,-0.055984523,,,,
6816,-0.180859,0.50269103,9.227184,,,,,,,
6817,,,,,,,-3.637722,26.702143,-64.56685,
6822,,,,0.10145592,-0.22212957,-0.079952955,,,,
6836,-0.19523187,0.49071363,9.457149,,,,,,,
6837,,,,,,,-3.6373177,26.407326,-64.56343,
6842,,,,-0.011462016,-0.06287266,-0.023493987,,,,
6856,-0.03713028,0.5314368,9.926662,,,,,,,
6857,,,,,,,-2.4069672,27.298874,-65.31697,
6862,,,,-0.059931505,0.23114006,0.06172709,,,,
6876,0.2886548,0.37812614,10.918391,,,,,,,
6877,,,,,,,-2.560173,26.709219,-65.159195,
6882,,,,-0.027440967,0.216759,0.12191448,,,,
6896,0.2215814,0.31105274,10.214121,,,,,,,
6897,,,,,,,-3.0214138,27.132862,-65.94939,
6902,,,,0.17602436,-0.07831899,-0.007515035,,,,
6916,-0.37249726,0.6224649,9.36133,,,,,,,
6917,,,,,,,-0.7132435,26.58056,-65.730804,
6922,,,,0.24739702,-0.24023902,-0.0991277,,,,
6936,-0.44196618,0.64641976,8.700178,,,,,,,
6937,,,,,,,-2.7131767,25.972157,-64.999695,
6942,,,,0.13714226,-0.19975902,-0.01816767,,,,
6956,-0.08024889,0.86440825,8.736111,,,,,,,
6957,,,,,,,-2.5636883,28.782211,-64.564224,
6962,,,,-0.047680978,0.029805256,0.09421763,,,,
6977,0.3988468,0.85961735,10.230888,,,,-3.4861355,27.602829,-63.644928,
6983,,,,-0.23783049,0.1997148,0.17144923,,,,
6997,0.6431856,0.44519955,11.093261,,,,-1.7917805,26.297195,-63.897186,
7003,,,,-0.1355652,0.12621161,0.097946055,,,,
7017,0.16648537,0.59132373,10.805804,,,,-3.0229797,27.15371,-64.55679,
7023,,,,0.10891276,-0.107613735,-0.077822424,,,,
7037,-0.039525762,0.67995644,9.617647,,,,-2.4029312,25.218933,-66.37613,
7043,,,,0.22129808,-0.25728327,-0.14386877,,,,
7057,-0.38447466,0.8859676,8.767252,,,,-2.098236,26.276314,-64.987915,
7063,,,,0.09080328,-0.06873162,-0.10232349,,,,
7077,-0.5545536,0.9746003,9.397263,,,,-1.9454308,27.160786,-65.149124,
7083,,,,-0.13822837,0.2689569,0.05959657,,,,
7097,-0.116181076,0.73265696,10.932764,,,,-3.0212765,26.407398,-65.16716,
7103,,,,-0.19362205,0.35684115,0.20713556,,,,
7117,0.31500506,0.5002955,10.942346,,,,-2.563095,27.471745,-63.465683,
7123,,,,0.0029190425,0.055371575,0.1693187,,,,
7137,-0.001198113,0.64162874,10.10872,,,,-2.0985832,26.280945,-64.67845,
7143,,,,0.21064544,-0.16620322,0.013790234,,,,
7147,,,,,,,,,,189.0
7157,-0.08264437,0.78296196,10.041646,,,,-2.4068756,24.982023,-62.50438,
7163,,,,0.25645176,-0.21573797,-0.02775504,,,,
7177,-0.101808205,0.77098465,9.852403,,,,-2.7151985,26.578007,-63.9234,
7183,,,,0.30492124,0.019152619,-0.005384508,,,,
7197,-0.23116404,0.7494253,9.75898,,,,-2.7136326,26.55716,-65.31601,
7203,,,,0.3310202,0.29612112,0.028171293,,,,
7217,,,,,,,-2.7135792,26.266975,-65.00311,
7218,-0.57850844,1.0752103,9.490685,,,,,,,
7224,,,,0.21117806,0.18906216,0.058531303,,,,
7237,,,,,,,-2.0975761,25.5439,-64.66989,
7238,-0.7150507,1.0440692,9.5697365,,,,,,,
7244,,,,0.07855275,0.038859993,0.15174185,,,,
7247,,,,,,,,,,175.0
7257,,,,,,,-1.9462376,27.750422,-65.155975,
7258,-0.13294941,0.9314817,9.579319,,,,,,,
7264,,,,0.027420104,-0.059676882,0.2396261,,,,
7277,,,,,,,-3.0219727,26.416664,-64.54823,
7278,-0.12576298,1.1590521,9.81168,,,,,,,
7284,,,,-0.0034725387,-0.047958985,0.16345975,,,,
7297,,,,,,,-1.1771584,26.460892,-63.419495,
7298,-0.64558184,1.1255155,9.926662,,,,,,,
7304,,,,-0.0077335928,-0.014935814,0.11871869,,,,
7317,,,,,,,-2.7150059,25.562357,-62.828293,
7318,-0.7437964,1.0943742,9.81168,,,,,,,
7324,,,,0.018365363,-0.06287266,0.21192923,,,,
7337,,,,,,,-4.097782,26.386423,-65.50322,
7338,-0.47310737,1.0680239,9.677534,,,,,,,
7344,,,,0.03967063,-0.10654847,0.28809562,,,,
7357,,,,,,,-2.5593033,26.697638,-65.93286,
7358,-0.24553691,1.063233,9.854799,,,,,,,
7364,,,,0.0508559,-0.08364531,0.2827693,,,,
7377,,,,,,,-1.0221329,26.592106,-64.65527,
7378,0.11378488,1.1015606,10.053624,,,,,,,
7384,,,,0.0726938,-0.16247481,0.22417977,,,,
7397,,,,,,,-3.3286018,26.398096,-65.48422,
7398,0.23834974,1.1614476,10.072787,,,,,,,
7404,,,,0.16164333,-0.29510012,0.13043658,,,,
7417,,,,,,,-3.6369705,26.402693,-64.872894,
7418,0.23116332,1.4297413,9.370912,,,,,,,
7424,,,,0.23461387,-0.32119906,0.053737618,,,,
7437,,,,,,,-2.0973663,26.264732,-65.76158,
7438,0.044315994,1.5758654,9.416426,,,,,,,
7444,,,,0.15365383,-0.19017164,0.018583922,,,,
7457,,,,,,,-2.4052467,25.53923,-64.67749,
7459,-0.07785343,1.4824418,9.447568,,,,,,,
7465,,,,0.1280875,0.015424198,0.055868145,,,,
7477,,,,,,,-1.9436188,25.834103,-65.13373,
7479,-0.013175502,1.559097,8.736111,,,,,,,
7485,,,,0.11423908,0.21196532,0.09847868,,,,
7497,,,,,,,-0.40525055,26.725689,-66.18912,
7499,-0.010780022,1.8345772,8.453444,,,,,,,
7505,,,,-0.056735717,0.32861167,0.08090183,,,,
7517,,,,,,,-1.790617,26.571167,-65.29321,
7519,-0.085039854,2.0310063,9.253534,,,,,,,
7525,,,,-0.25594002,0.32807904,0.016986027,,,,
7537,,,,,,,-0.25488472,27.642591,-64.18407,
7539,-0.14013585,1.8345772,10.118301,,,,,,,
7545,,,,-0.24581999,0.22900954,-0.05172347,,,,
7548,,,,,,,,,,189.0
7557,,,,,,,-1.4826431,27.72963,-67.00137,
7559,-0.4587345,2.0022607,8.999613,,,,,,,
7565,,,,-0.097748354,0.01009788,-0.14173825,,,,
7577,,,,,,,-1.4812965,26.119713,-66.20886,
7579,-0.7725422,2.3448138,7.8162465,,,,,,,
7585,,,,-0.24741787,-0.08897162,-0.16517405,,,,
7597,,,,,,,-2.2509365,26.693043,-66.54419,
7598,,,,,,,,,,207.0
7599,-1.0120901,1.9136279,8.707364,,,,,,,
7605,,,,-0.5888348,0.081470534,-0.0421361,,,,
7617,,,,,,,-1.7895374,27.280418,-67.15857,
7619,-0.80368346,1.5016056,9.850008,,,,,,,
7625,,,,-0.65168536,0.16136532,0.12404501,,,,
7637,,,,,,,-2.406721,25.993038,-63.90895,
7639,-0.19523187,1.4345322,9.974573,,,,,,,
7645,,,,-0.51426643,0.032468412,0.1576008,,,,
7648,,,,,,,,,,242.0
7657,,,,,,,-1.791378,26.002377,-63.893753,
7659,-0.12336751,1.5135831,9.18646,,,,,,,
7665,,,,-0.43170846,-0.028784238,0.07078183,,,,
7677,,,,,,,-1.4844646,28.18807,-65.923386,
7680,-0.34375155,1.4752553,9.3780985,,,,,,,
7686,,,,-0.5217233,-0.010674759,0.0047354954,,,,
7697,,,,,,,0.054811478,27.041409,-65.25275,
7698,,,,,,,,,,282.0
7700,-0.3030284,1.348295,10.539906,,,,,,,
7706,,,,-0.50308114,-0.029849501,-0.0016560858,,,,
7717,,,,,,,-1.9459724,28.181067,-65.934784,
7720,-0.21439569,1.283617,10.501577,,,,,,,
7726,,,,-0.2628642,-0.048491616,0.023377609,,,,
7737,,,,,,,-2.2530403,27.73417,-65.93724,
7740,-0.35572892,1.3842272,9.761374,,,,,,,
7746,,,,-0.09135678,-0.054350566,0.016986027,,,,
7748,,,,,,,,,,322.0
7757,,,,,,,-0.7158699,27.62864,-64.65965,
7760,-0.35093796,1.4009955,10.036855,,,,,,,
7766,,,,-0.06898624,-0.06234004,0.0031376001,,,,
7777,,,,,,,-0.25406837,27.921196,-65.27063,
7780,-0.15211326,1.4057864,9.806889,,,,,,,
7786,,,,-0.03116939,-0.0532853,-0.029885568,,,,
7797,,,,,,,-3.1783085,28.618515,-65.0419,
7798,,,,,,,,,,352.0
7800,-0.28626004,1.5303513,9.370912,,,,,,,
7806,,,,-0.07218204,-0.0048158094,-0.049592942,,,,
7817,,,,,,,-1.175684,28.756897,-67.624695,
7820,-0.60006773,1.5734699,9.914686,,,,,,,
7826,,,,-0.13929363,-0.0010873872,-0.01177609,,,,
7837,,,,,,,-1.488245,29.830418,-64.54961,
7840,-0.4275933,1.4201592,10.535115,,,,,,,
7846,,,,-0.060464136,-0.098026365,0.02124708,,,,
7849,,,,,,,,,,383.0
7857,,,,,,,-3.6394424,28.461786,-65.20633,
7860,-0.053898618,1.417764,10.353058,,,,,,,
7866,,,,0.09985802,-0.1944327,-0.016569776,,,,
7877,,,,,,,-2.4073696,27.593693,-65.32039,
7880,-0.15450874,1.6309614,9.445172,,,,,,,
7886,,,,0.176557,-0.14010426,-0.028820302,,,,
7897,,,,,,,-3.3310204,28.167004,-65.50476,
7899,,,,,,,,,,415.0
7901,-0.27428266,1.858532,9.188856,,,,,,,
7907,,,,0.03967063,0.008499985,0.054270253,,,,
7917,,,,,,,-0.2528515,27.904982,-66.35376,
7921,0.022756696,1.5782609,9.991341,,,,,,,
7927,,,,-0.11106415,0.08040527,0.124577634,,,,
7937,,,,,,,-2.5597534,28.150883,-67.342575,
7941,0.24074522,1.3986,11.069306,,,,,,,
7947,,,,-0.10041152,-0.07938425,0.052139726,,,,
7949,,,,,,,,,,451.0
7957,,,,,,,0.049966812,29.710987,-64.20044,
7961,0.31979603,1.2213346,11.021397,,,,,,,
7967,,,,0.079618014,-0.30948117,-0.05864768,,,,
7977,,,,,,,-2.2522907,27.43472,-66.24327,
7981,0.2670955,1.113538,9.888336,,,,,,,
7987,,,,0.11370645,-0.373397,-0.15558667,,,,
7997,,,,,,,-1.7908096,27.586817,-66.388336,
7999,,,,,,,,,,492.0
8001,-0.235955,0.6344423,10.288381,,,,,,,
8007,,,,-0.15473995,-0.13318005,-0.1678372,,,,
8017,,,,,,,-2.712553,27.26641,-67.181366,
8021,-0.5593446,0.22002456,11.869396,,,,,,,
8027,,,,-0.30920315,0.10330844,-0.064506635,,,,
8037,,,,,,,-0.10196304,28.814934,-64.8129,
8041,-0.032339334,-0.27583948,12.226323,,,,,,,
8047,,,,-0.105737835,0.13739689,0.04574814,,,,
8049,,,,,,,,,,544.0
8057,,,,,,,-1.9471912,28.19728,-64.85164,
8061,0.33656436,-0.46747777,11.339995,,,,,,,
8067,,,,0.17442648,0.010630512,0.049476564,,,,
8077,,,,,,,-1.4846573,29.20372,-67.01849,
8081,0.34135532,-0.18002033,11.155544,,,,,,,
8087,,,,0.2505928,-0.19070429,-0.007515035,,,,
8097,,,,,,,-1.3297138,27.020397,-65.28694,
8099,,,,,,,,,,590.0
8101,0.5305981,0.035572723,10.669262,,,,,,,
8107,,,,0.21490648,-0.30202433,-0.064506635,,,,
8117,,,,,,,-2.09873,28.887983,-67.803925,
8122,0.47071117,0.4499905,10.228494,,,,,,,
8128,,,,0.034876946,-0.18058427,-0.059180308,,,,
8137,,,,,,,-3.0206013,27.411465,-67.035934,
8142,0.7533776,0.093064204,10.959115,,,,,,,
8148,,,,-0.12544522,0.0047715623,0.07078183,,,,
8149,,,,,,,,,,631.0
8157,,,,,,,-1.7922192,28.618681,-66.400314,
8162,1.330688,-0.24948928,11.260944,,,,,,,
8168,,,,-0.02531044,0.07720948,0.12937132,,,,
8177,,,,,,,-1.790947,28.31228,-67.17056,
8182,1.71636,-0.19918418,10.81299,,,,,,,
8188,,,,0.20904754,0.0047715623,0.050009195,,,,
8197,,,,,,,-2.71377,27.282623,-66.098236,
8200,,,,,,,,,,680.0
8202,1.7451057,-0.0985741,9.586505,,,,,,,
8208,,,,0.34699914,-0.1507569,-0.16517405,,,,
8217,,,,,,,-3.4848194,28.887817,-66.445526,
8222,1.1989366,-0.053059995,8.2091055,,,,,,,
8228,,,,0.29373598,-0.05381793,-0.35851935,,,,
8237,,,,,,,-2.7129555,27.561228,-67.1848,
8242,0.2886548,0.08587776,7.833015,,,,,,,
8248,,,,0.0508559,0.22368322,-0.399532,,,,
8257,,,,,,,-4.404722,27.095636,-67.06671,
8262,-0.35333344,0.018804371,9.150528,,,,,,,
8268,,,,-0.22984102,0.3589717,-0.32815933,,,,
8277,,,,,,,-4.0964108,27.381226,-67.99094,
8282,-0.34135604,-0.32614455,10.360245,,,,,,,
8288,,,,-0.2692558,0.24019481,-0.23761196,,,,
8297,,,,,,,-2.0956993,27.545088,-68.87166,
8300,,,,,,,,,,758.0
8302,-0.17606804,-0.14887914,10.257238,,,,,,,
8308,,,,-0.07537783,0.029272621,-0.20831722,,,,
8317,,,,,,,-2.096964,25.969913,-65.75816,
8322,-0.33416963,0.4380131,9.392472,,,,,,,
8328,,,,0.055649586,0.002108403,-0.16197824,,,,
8337,,,,,,,-1.4811974,27.420914,-67.926346,
8342,-0.22637309,0.7542163,9.025963,,,,,,,
8348,,,,0.07642223,0.166159,0.0073986542,,,,
8357,,,,,,,-2.4071598,28.314524,-66.412094,
8363,0.20241755,1.0105325,8.542076,,,,,,,
8369,,,,0.086542234,0.1879969,0.1256429,,,,
8377,,,,,,,-2.711197,26.52473,-67.482285,
8383,0.5042479,1.2213346,8.537286,,,,,,,
8389,,,,0.040203262,0.03513157,0.12191448,,,,
8397,,,,,,,-3.0180283,26.653574,-68.41998,
8400,,,,,,,,,,834.0
8403,0.72463185,1.1806115,8.532495,,,,,,,
8409,,,,0.025289577,-0.08204742,0.050541826,,,,
8417,,,,,,,-2.249508,27.39766,-68.71901,
8423,0.48268855,1.4081819,8.029445,,,,,,,
8429,,,,0.041268528,-0.019196866,-0.059180308,,,,
8437,,,,,,,-1.4822044,28.157959,-67.934906,
8443,0.05868885,1.448905,8.175569,,,,,,,
8449,,,,-0.036495708,0.09744949,-0.079952955,,,,
8457,,,,,,,-3.4817867,27.544922,-67.51326,
8463,0.12576225,1.2189391,8.669037,,,,,,,
8469,,,,-0.107335724,0.078807384,-0.022428725,,,,
8477,,,,,,,-2.4054394,26.55488,-65.7726,
8483,0.24553618,1.2955945,9.028358,,,,,,,
8489,,,,-0.10627046,-0.035175823,0.0020723366,,,,
8497,,,,,,,-3.019558,27.397568,-67.96434,
8500,,,,,,,,,,899.0
8503,0.29105026,1.3123628,9.562551,,,,,,,
8509,,,,-0.0849652,-0.12785374,0.010061813,,,,
8517,,,,,,,-2.7109222,27.823618,-69.35448,
8523,0.073061705,1.2309165,9.572132,,,,,,,
8529,,,,-0.018386228,-0.0634053,-0.007515035,,,,
8537,,,,,,,-2.4041843,27.261814,-67.792694,
8543,-0.5042486,1.2955945,9.770957,,,,,,,
8549,,,,-0.018918859,0.064426325,0.03882393,,,,
8557,,,,,,,-2.558609,26.688374,-66.55179,
8563,-0.10899465,0.9722048,10.400968,,,,,,,
8569,,,,-0.046615712,0.045251574,0.17784081,,,,
8577,,,,,,,-3.1739597,28.560608,-68.91023,
8584,0.35093725,0.5649735,11.3328085,,,,,,,
8590,,,,-0.01305991,-0.14170216,0.18423238,,,,
8597,,,,,,,-1.7875595,27.832993,-69.64114,
8604,0.4204061,0.08348228,11.768785,,,,,,,
8610,,,,0.12595698,-0.3600812,0.110196576,,,,
8617,,,,,,,-4.403616,27.659794,-68.775635,
8624,0.24074522,-0.17283392,11.546007,,,,,,,
8630,,,,0.25858226,-0.44263914,0.057998672,,,,
8637,,,,,,,-3.7858715,26.913555,-69.98973,
8644,-0.42280233,0.1601376,11.557983,,,,,,,
8650,,,,0.27136543,-0.30575275,0.105402894,,,,
8651,,,,,,,,,,975.0
8657,,,,,,,-3.7874928,27.224588,-68.91002,
8664,-0.27428266,0.51945937,11.6825485,,,,,,,
8670,,,,0.25591913,-0.11613585,0.31579244,,,,
8677,,,,,,,-3.1733646,27.250141,-67.81169,
8684,0.34614623,0.81170774,11.71369,,,,,,,
8690,,,,0.2809528,0.13952741,0.47877777,,,,
8697,,,,,,,-2.4029026,27.823654,-69.65634,
8704,0.5617394,0.89794505,11.421442,,,,,,,
8710,,,,0.3661739,0.3222201,0.43829778,,,,
8717,,,,,,,-1.7871017,27.24799,-69.32483,
8724,1.0120893,0.4380131,9.986549,,,,,,,
8730,,,,0.37522864,0.1730832,0.2348324,,,,
8737,,,,,,,-2.0960464,27.54972,-68.56218,
8744,0.60964894,0.32542562,9.437985,,,,,,,
8750,,,,0.090270646,-0.005348441,-0.08687717,,,,
8757,,,,,,,-2.0940247,26.94387,-69.63847,
8764,-0.5449717,0.04515463,10.753103,,,,,,,
8770,,,,-0.25114632,0.0042389305,-0.23175302,,,,
8777,,,,,,,-1.1727085,27.704187,-69.00531,
8784,-1.5534681,-0.0865967,11.672967,,,,,,,
8790,,,,-0.18296942,0.08306843,-0.076224536,,,,
8797,,,,,,,-1.9414864,27.397696,-69.02089,
8804,-1.4839993,0.27272508,10.432109,,,,,,,
8810,,,,0.17708965,0.096916854,0.18902607,,,,
8817,,,,,,,-3.017332,26.644308,-69.038925,
8825,-0.80128795,0.51706386,9.100223,,,,,,,
8831,,,,0.29000756,0.0356642,0.31739035,,,,
8837,,,,,,,-1.7876244,27.254938,-68.86063,
8845,-0.180859,0.5362277,8.982845,,,,,,,
8851,,,,0.10145592,-0.15288743,0.27584508,,,,
8857,,,,,,,-0.70955276,27.255066,-69.917175,
8865,0.16169444,0.33021656,9.402053,,,,,,,
8871,,,,-0.053007293,-0.24822852,0.18156922,,,,
8877,,,,,,,-0.7099552,27.549885,-69.92059,
8885,0.51382977,0.2367929,9.699093,,,,,,,
8891,,,,-0.056203082,-0.24343483,0.14055659,,,,
8897,,,,,,,-1.9391518,26.064066,-69.46968,
8902,,,,,,,,,,1049.0
8905,0.9450159,0.17211498,9.013986,,,,,,,
8911,,,,0.003984306,-0.091102146,0.0702492,,,,
8917,,,,,,,-3.0188427,26.37497,-67.33342,
8925,0.40603328,0.15534665,8.678618,,,,,,,
8931,,,,-0.019984122,0.20930217,-0.02775504,,,,
8937,,,,,,,-2.2503204,27.119057,-67.63246,
8945,-0.46352547,0.2703296,9.121782,,,,,,,
8951,,,,-0.110531524,0.20184532,-0.084746644,,,,
8957,,,,,,,-3.3265152,26.3703,-67.34102,
8965,-0.6575592,0.15534665,9.097828,,,,,,,
8971,,,,-0.067920975,-0.005881073,-0.0522561,,,,
8977,,,,,,,-2.4039097,28.5607,-69.6649,
8985,-0.6168361,0.54820514,8.350438,,,,,,,
8991,,,,-0.0018746434,-0.1507569,-0.017102407,,,,
8997,,,,,,,-0.40685272,28.773203,-67.29622,
9005,-0.5497627,0.78296196,8.079749,,,,,,,
9011,,,,-0.065257825,0.026076833,0.022312343,,,,
9017,,,,,,,-2.5583782,29.145685,-69.83029,
9025,-0.7078643,0.6560017,8.434279,,,,,,,
9031,,,,-0.148881,0.27321795,0.069716565,,,,
9037,,,,,,,-0.8636265,26.676992,-68.98573,
9046,-0.7078643,0.63923335,8.973263,,,,,,,
9052,,,,-0.189361,0.10330844,0.091021836,,,,
9057,,,,,,,-0.8636265,26.676992,-68.98573,
9066,-0.5042486,0.72547054,9.155319,,,,,,,
9072,,,,-0.15154417,-0.19816113,0.08782605,,,,
9077,,,,,,,-0.8672066,28.17193,-67.610245,
9086,-0.31740126,0.95064545,8.975657,,,,,,,
9092,,,,-0.033299915,-0.18537796,0.109131314,,,,
9097,,,,,,,-0.8672066,28.17193,-67.610245,
9106,-0.31500578,1.1710294,8.616336,,,,,,,
9112,,,,0.046062212,-0.054883197,0.12724079,,,,
9117,,,,,,,-0.86538506,27.71349,-68.68825,
9126,-0.16648611,1.3243401,8.199524,,,,,,,
9132,,,,0.049790636,0.029272621,0.14428501,,,,
9137,,,,,,,-0.71211815,28.881199,-69.62654,
9146,0.14253059,1.4441142,8.431885,,,,,,,
9152,,,,-0.0716494,0.0042389305,0.15440501,,,,
9157,,,,,,,-1.3260612,26.971756,-68.53635,
9166,0.42759258,1.3339221,9.318212,,,,,,,
9172,,,,-0.19788311,-0.10175479,0.10114184,,,,
9177,,,,,,,-1.4773502,26.356623,-70.08063,
9186,0.5665303,1.4129729,10.1901655,,,,,,,
9192,,,,-0.20853576,-0.15448532,-0.010710826,,,,
9197,,,,,,,-1.4798603,27.69257,-69.47711,
9206,0.24553618,1.3602724,10.880064,,,,,,,
9212,,,,-0.113194674,-0.08364531,-0.08155085,,,,
9217,,,,,,,-2.0973186,27.85612,-67.79195,
9226,-0.16648611,1.0584421,10.901623,,,,,,,
9232,,,,0.030615892,-0.013337918,-0.07888769,,,,
9237,,,,,,,-2.4059963,28.588495,-67.808105,
9246,-0.37249726,1.0440692,10.652493,,,,,,,
9252,,,,0.14193594,0.051643156,-0.01763504,,,,
9257,,,,,,,-1.3261166,27.261942,-68.84923,
9267,-0.13294941,1.2596623,10.41055,,,,,,,
9273,,,,0.14886016,0.057502102,0.035628136,,,,
9277,,,,,,,-1.786808,27.533543,-69.94719,
9287,0.17367181,0.8356626,11.069306,,,,,,,
9293,,,,0.048725374,-0.03464319,0.014322867,,,,
9297,,,,,,,-1.4794579,27.39775,-69.47368,
9307,0.022756696,0.34458944,12.051453,,,,,,,
9313,,,,0.0061148335,-0.159279,-0.06077821,,,,
9317,,,,,,,-1.1727085,27.704187,-69.00531,
9327,-0.008384541,-0.13450626,12.029893,,,,,,,
9333,,,,0.04819274,-0.19656323,-0.10445402,,,,
9337,,,,,,,-1.7885666,28.570038,-69.649704,
9347,-0.003593579,-0.3477039,11.864605,,,,,,,
9353,,,,0.0023864107,0.010630512,-0.0655719,,,,
9357,,,,,,,-3.0183392,27.381353,-69.047485,
9367,0.30542314,-0.7166076,12.159249,,,,,,,
9373,,,,-0.08017151,0.3025127,0.051074456,,,,
9377,,,,,,,-0.7137451,28.32399,-67.45343,
9387,0.7437957,-0.84835887,12.221532,,,,,,,
9393,,,,-0.0615294,0.384538,0.122979745,,,,
9397,,,,,,,-2.7106743,29.267597,-71.38313,
9407,0.95938873,-0.6854663,12.01073,,,,,,,
9413,,,,-0.0013420116,0.1997148,0.06332499,,,,
9417,,,,,,,-0.40361214,28.151138,-69.45564,
9427,0.59527606,-0.67588437,11.857419,,,,,,,
9433,,,,0.05405169,-0.045828454,-0.08847506,,,,
9437,,,,,,,-2.25078,27.70406,-67.94878,
9447,0.051502436,-0.46987328,11.6825485,,,,,,,
9453,,,,0.22129808,-0.103885315,-0.06876769,,,,
9457,,,,,,,1.2912941,26.693462,-70.015656,
9467,0.6910952,-0.1536701,10.628538,,,,,,,
9473,,,,0.44606867,0.0037062988,0.17624292,,,,
9477,,,,,,,-2.0951767,27.53814,-69.335846,
9487,1.8025973,0.22960648,9.342167,,,,,,,
9493,,,,0.5430076,0.19279057,0.31579244,,,,
9497,,,,,,,-1.1704922,26.082687,-68.98648,
9508,2.5260317,0.7158886,8.2091055,,,,,,,
9514,,,,0.44447076,0.27268535,0.22045134,,,,
9517,,,,,,,-1.790535,28.885704,-68.260544,
9528,2.7344382,0.7374479,7.399433,,,,,,,
9534,,,,0.16111068,0.24126007,-0.03787504,,,,
9537,,,,,,,-1.016758,27.533634,-70.70186,
9548,1.8816481,0.64641976,7.514416,,,,,,,
9554,,,,-0.16645785,0.2705548,-0.343073,,,,
9557,,,,,,,-0.40260506,27.414093,-69.44708,
9568,0.4563383,0.5314368,8.455839,,,,,,,
9574,,,,-0.4141316,0.3424601,-0.52949417,,,,
9577,,,,,,,-0.091955185,26.366053,-70.8201,
9588,-0.63120896,0.28709796,9.411634,,,,,,,
9594,,,,-0.474319,0.30677378,-0.52150464,,,,
9597,,,,,,,-1.3248978,27.245728,-69.93237,
9608,-1.127073,0.23918839,9.337376,,,,,,,
9614,,,,-0.3283779,0.15923479,-0.38408566,,,,
9617,,,,,,,-0.8637085,27.112272,-69.45506,
9628,-1.0528132,0.5817418,8.846302,,,,,,,
9634,,,,-0.18137154,0.017022092,-0.22642669,,,,
9637,,,,,,,-1.3264637,27.266575,-68.539764,
9648,-0.6048587,0.7997304,8.597173,,,,,,,
9654,,,,-0.13183679,-0.048491616,-0.10551928,,,,
9657,,,,,,,-0.8642292,27.11922,-68.99086,
9668,-0.42280233,1.0296963,8.98524,,,,,,,
9674,,,,-0.07963888,-0.011207391,-0.018700302,,,,
9677,,,,,,,0.06068802,26.23951,-69.57672,
9688,-0.15690422,1.3818316,8.865466,,,,,,,
9694,,,,0.081748545,-0.013870549,0.083565,,,,
9697,,,,,,,-0.24663544,26.230206,-69.89378,
9708,0.5258072,1.5399333,8.0174675,,,,,,,
9714,,,,0.2335486,0.0042389305,0.13789342,,,,
9717,,,,,,,-1.1734047,27.713451,-68.38637,
9729,0.7437957,1.7818766,7.3443375,,,,,,,
9735,,,,0.14992541,-0.0026852824,0.048943933,,,,
9737,,,,,,,0.05968094,26.976555,-69.58528,
9749,0.31500506,1.8705093,7.8593655,,,,,,,
9755,,,,-0.14302205,0.036196835,-0.091670856,,,,
9757,,,,,,,-0.402256,27.40946,-69.75656,
9769,-0.17846352,1.458487,9.217602,,,,,,,
9775,,,,-0.36353162,0.12514633,-0.11244349,,,,
9777,,,,,,,0.36811447,27.550013,-70.97714,
9789,-0.37968373,1.0392781,10.983068,,,,,,,
9795,,,,-0.35181373,0.07667685,-0.061843473,,,,
9797,,,,,,,-1.1727085,27.704187,-69.00531,
9809,-0.4922712,0.63683784,11.881373,,,,,,,
9815,,,,-0.040756762,-0.12519057,-0.012841353,,,,
9817,,,,,,,-1.0181675,28.565498,-70.71385,
9829,-0.291051,0.5793463,11.172312,,,,,,,
9835,,,,0.35232547,-0.37925595,0.037226032,,,,
9837,,,,,,,-0.710495,28.570168,-70.70625,
9849,0.33416885,0.72307503,10.044042,,,,,,,
9855,,,,0.48068973,-0.45595494,0.08782605,,,,
9857,,,,,,,-0.71061516,28.282297,-70.23863,
9869,0.48268855,0.6344423,10.000923,,,,,,,
9875,,,,0.32356334,-0.21414007,0.12084922,,,,
9877,,,,,,,-1.0160084,27.234184,-71.007904,
9889,0.046711475,0.6536062,10.848923,,,,,,,
9895,,,,0.15312122,0.05004526,0.17144923,,,,
9897,,,,,,,-0.8647709,28.139502,-69.77652,
9909,0.3820784,0.5314368,11.045352,,,,,,,
9915,,,,0.14939278,0.09744949,0.25027874,,,,
9917,,,,,,,-2.7093678,26.934532,-69.65367,
9929,0.8971064,0.62965137,11.502888,,,,,,,
9935,,,,0.10731487,0.011163143,0.2044724,,,,
9937,,,,,,,0.05775833,28.883606,-70.22647,
9949,0.8132646,0.4643634,12.676673,,,,,,,
9955,,,,0.10039065,0.06975264,0.05746604,,,,
9957,,,,,,,0.6767578,26.09449,-70.024,
9970,0.57132125,-0.09378314,11.953238,,,,,,,
9976,,,,0.21437386,0.088394746,-0.09966033,,,,
9977,,,,,,,-0.2500782,26.99968,-67.736084,
9990,-0.05150315,0.07869133,10.197351,,,,,,,
9996,,,,0.104651704,0.12248318,-0.25252563,,,,
9997,,,,,,,0.83068466,26.529785,-70.64429,
10010,-1.0408357,-0.050664514,10.544697,,,,,,,
10016,,,,-0.28683263,0.38666853,-0.28128773,,,,
10017,,,,,,,-0.7073288,26.501808,-70.991745,
10030,-1.8720669,-0.34051743,12.274232,,,,,,,
10036,,,,-0.44449165,0.40903905,-0.17529404,,,,
10037,,,,,,,0.36579895,27.87031,-69.27849,
10050,-2.1283832,-0.13929722,12.28621,,,,,,,
10056,,,,-0.1052052,0.077742115,-0.038940307,,,,
10057,,,,,,,0.060094833,27.549976,-70.67526,
10070,-1.7882252,0.0595275,10.439296,,,,,,,
10076,,,,0.29000756,-0.29243696,0.04415025,,,,
10077,,,,,,,0.06084442,27.250526,-70.98131,
10090,-1.2588243,0.34219396,9.0595,,,,,,,
10096,,,,0.35392338,-0.4208012,0.08303236,,,,
10097,,,,,,,-0.8605137,27.648632,-73.02077,
10110,-0.6288135,0.21762908,9.023568,,,,,,,
10116,,,,0.16643701,-0.32386225,0.10646816,,,,
10117,,,,,,,-1.9396095,26.649069,-69.785995,
10130,-0.089830816,-0.23511639,9.294257,,,,,,,
10136,,,,-0.027440967,-0.25035906,0.082499735,,,,
10137,,,,,,,-0.70798683,27.23422,-71.309784,
10150,-0.02036193,-0.26625755,9.296652,,,,,,,
10156,,,,-0.098813616,-0.22532535,0.013257603,,,,
10157,,,,,,,-0.4009018,26.667782,-70.05745,
10170,-0.3701018,0.023595303,9.188856,,,,,,,
10176,,,,-0.030104125,-0.08471057,-0.0123087205,,,,
10177,,,,,,,-1.9387398,26.637487,-70.55966,
10191,-0.64797735,0.35656685,8.633105,,,,,,,
10197,,,,0.09186855,0.058034733,0.009529181,-0.09235954,26.66087,-70.82352,
10211,-0.53299433,0.61288303,8.062981,,,,,,,
10217,,,,0.1195654,0.10863476,0.022844978,0.8291187,26.550632,-69.25168,
10231,-0.45633903,0.81649864,7.50723,,,,,,,
10237,,,,0.07056327,0.16935478,0.027106028,-0.09317207,26.382267,-69.73697,
10251,-0.51862144,0.8739902,7.603049,,,,,,,
10257,,,,-0.06472518,0.17894216,0.016453395,-1.7842464,25.90741,-70.23782,
10271,-0.9378302,0.8859676,8.216291,,,,,,,
10277,,,,-0.12704311,0.1043737,0.0063333907,0.21524811,26.087486,-70.0354,
10291,-0.94980764,0.94345903,8.23306,,,,,,,
10297,,,,-0.041289393,-0.08098215,0.0601292,-0.24536324,25.923807,-70.66403,
10311,-0.27428266,0.98897314,8.0174675,,,,,,,
10317,,,,-0.03063676,-0.23491272,0.07930394,0.6778202,25.067257,-69.702576,
10331,-0.24793239,0.9650184,8.774438,,,,,,,
10337,,,,-0.12437994,-0.15288743,0.034562875,-0.7103691,26.976463,-68.83061,
10351,-0.67432755,0.9314817,9.5697365,,,,,,,
10357,,,,-0.06898624,-0.001620019,0.031367086,0.9829254,26.69806,-69.40433,
10371,-0.7390055,1.1159335,9.303839,,,,,,,
10377,,,,0.13341384,0.007967353,0.10114184,-0.09444618,26.688665,-68.966736,
10392,-0.3677063,1.4297413,8.827139,,,,,,,
10397,,,,,,,1.447319,25.21939,-70.149475,
10398,,,,0.20691702,-0.082580045,0.16825344,,,,
10412,0.19762662,1.4225547,9.114595,,,,,,,
10417,,,,,,,-1.4768848,26.639858,-70.85771,
10418,,,,0.09932539,-0.1843127,0.16132921,,,,
10432,0.41801065,1.1614476,10.149443,,,,,,,
10437,,,,,,,-0.24495125,26.49723,-71.75401,
10438,,,,-0.025843073,-0.23544535,0.058531303,,,,
10452,-0.09462176,1.2572668,10.654889,,,,,,,
10457,,,,,,,-0.8618126,25.350311,-68.97032,
10458,,,,-0.029571494,-0.24343483,-0.0522561,,,,
10472,-0.22876856,1.2428938,10.089556,,,,,,,
10477,,,,,,,-0.8618126,25.350311,-68.97032,
10478,,,,0.055649586,-0.078851625,0.0073986542,,,,
10492,0.27428192,1.1207244,10.000923,,,,,,,
10497,,,,,,,-0.09136009,25.055584,-69.72157,
10498,,,,-0.029038861,0.051643156,0.08463026,,,,
10512,0.25990906,0.957832,11.507679,,,,,,,
10517,,,,,,,-1.0132523,24.592402,-70.20343,
10518,,,,-0.22291681,0.027674727,-0.0021887175,,,,
10532,0.03712955,0.59371924,12.549712,,,,,,,
10537,,,,,,,-0.0912056,26.0666,-71.126144,
10538,,,,-0.17444731,-0.031447396,-0.063974,,,,
10552,0.099411994,0.6152785,11.831069,,,,,,,
10556,,,,,,,,,,1117.0
10557,,,,,,,-0.24346733,24.161846,-70.17929,
10558,,,,-2.767481E-4,-0.07565583,-0.0027213492,,,,
10572,0.70546806,0.6943293,11.289691,,,,,,,
10577,,,,,,,-1.3220787,25.182001,-69.9084,
10578,,,,-0.005070434,-0.019196866,0.11072921,,,,
10592,1.5606539,0.33500752,11.771182,,,,,,,
10597,,,,,,,0.06319809,24.903563,-70.18025,
10598,,,,-0.115325205,0.0841337,0.124577634,,,,
10612,1.8505068,-0.08899215,12.324537,,,,,,,
10617,,,,,,,-0.24233246,24.580912,-71.731766,
10618,,,,-0.12331468,0.07720948,-0.029885568,,,,
10633,1.3642247,-0.40519533,12.075408,,,,,,,
10637,,,,,,,-2.0913963,25.895792,-70.709625,
10639,,,,-0.039158866,-0.042100035,-0.24560145,,,,
10653,0.7797278,-0.41477725,11.450188,,,,,,,
10657,,,,,,,-1.1667023,25.308582,-71.45364,
10659,,,,0.037540104,-0.13797374,-0.34999725,,,,
10673,0.37010103,-0.04347807,11.373532,,,,,,,
10677,,,,,,,-0.7054596,24.884941,-70.66345,
10679,,,,0.15951279,0.067089476,-0.25678667,,,,
10693,0.4132197,0.16732404,10.587815,,,,,,,
10697,,,,,,,-3.3196945,24.2533,-70.875916,
10699,,,,0.40292546,0.40424538,-0.035744514,,,,
10713,0.9450159,0.5961147,8.968472,,,,,,,
10717,,,,,,,-1.4729118,23.981865,-71.13637,
10719,,,,0.5248981,0.47934642,0.07930394,,,,
10733,1.7618741,1.0656285,7.351524,,,,,,,
10737,,,,,,,-0.7066231,24.61097,-69.26741,
10739,,,,0.29746437,0.26309797,-0.009645563,,,,
10753,1.7834334,0.90273595,7.1239533,,,,,,,
10757,,,,,,,0.22029114,23.2705,-71.08601,
10759,,,,-0.23463471,0.11502634,-0.322833,,,,
10773,0.33895987,0.447595,8.589987,,,,,,,
10777,,,,,,,-0.39741325,24.739883,-70.80887,
10779,,,,-0.6852412,0.20450848,-0.5992689,,,,
10793,-0.8923161,0.29667988,9.490685,,,,,,,
10797,,,,,,,-1.3195152,23.55587,-70.199036,
10799,,,,-0.7907023,0.277479,-0.5721047,,,,
10813,-1.5438863,0.39010352,10.024878,,,,,,,
10817,,,,,,,-2.3967686,23.834343,-70.229065,
10819,,,,-0.60534644,0.3429927,-0.3425404,,,,
10833,-1.4360898,0.55299604,9.962595,,,,,,,
10837,,,,,,,-1.1659889,24.285984,-70.82272,
10839,,,,-0.21918839,0.30038217,-0.038940307,,,,
10854,-0.13055395,0.7997304,8.431885,,,,,,,
10857,,,,,,,-0.24447441,24.898893,-70.18785,
10860,,,,0.10039065,-0.0010873872,0.14055659,,,,
10874,0.6791178,1.2596623,7.6293993,,,,,,,
10877,,,,,,,-0.08944702,25.030106,-71.42363,
10880,,,,0.0860096,-0.26420748,0.06652078,,,,
10894,0.4204061,1.3818316,8.036631,,,,,,,
10897,,,,,,,-2.2416058,25.989908,-74.11928,
10900,,,,-0.033299915,-0.2546201,-0.05332136,,,,
10914,0.041920513,1.4441142,7.9575796,,,,,,,
10917,,,,,,,-0.7028866,24.127048,-72.047485,
10920,,,,-0.04235466,-0.10921163,-0.07462664,,,,
10934,-0.039525762,1.5902383,8.33367,,,,,,,
10937,,,,,,,-2.5515766,25.292202,-71.178375,
10940,,,,-0.04821361,0.09958002,0.016986027,,,,
10954,0.34135532,1.458487,9.375703,,,,,,,
10957,,,,,,,-0.39571,23.993574,-71.419235,
10960,,,,-0.004537802,0.18213794,0.13469765,,,,
10974,0.73900473,1.5231649,9.469127,,,,,,,
10977,,,,,,,-1.319706,24.571518,-71.29416,
10980,,,,0.19466649,-0.0069463365,0.10433763,,,,
10994,0.5976715,1.9016505,9.004404,,,,,,,
10997,,,,,,,-1.3204575,24.87097,-70.98811,
11000,,,,0.31717178,-0.21520534,-0.05971295,,,,
11014,0.15211254,1.793854,9.069082,,,,,,,
11017,,,,,,,-2.2431526,24.997421,-71.47682,
11020,,,,0.18720964,-0.23864114,-0.1577172,,,,
11034,-0.33177415,1.3003854,10.041646,,,,,,,
11037,,,,,,,0.06674957,23.553719,-71.71217,
11040,,,,0.00504957,-0.098026365,-0.11936771,,,,
11054,-0.6623502,0.9266907,10.973487,,,,,,,
11057,,,,,,,-0.24224854,24.145634,-71.26242,
11060,,,,-0.008798856,-0.0042831777,-0.0011234536,,,,
11074,-0.3245877,0.5002955,11.795136,,,,,,,
11077,,,,,,,-1.1630135,23.233274,-72.20334,
11080,,,,0.101988554,-0.094297945,0.12244711,,,,
11095,-0.001198113,0.2487703,12.600017,,,,,,,
11097,,,,,,,-1.77812,23.799673,-73.15378,
11101,,,,0.2521907,-0.26367483,0.12990394,,,,
11115,0.03712955,0.18409237,12.195181,,,,,,,
11117,,,,,,,-1.9342632,24.985878,-72.55235,
11121,,,,0.47110236,-0.2812517,0.10433763,,,,
11135,-0.1473223,0.48113173,11.138775,,,,,,,
11137,,,,,,,-2.549902,24.690987,-71.94519,
11141,,,,0.5350182,-0.1321148,0.13043658,,,,
11155,-0.18325448,0.8524308,10.568652,,,,,,,
11157,,,,,,,-4.391485,23.156452,-74.13994,
11161,,,,0.35658652,0.20291059,0.21778819,,,,
11175,-0.00598906,0.59851015,10.686029,,,,,,,
11177,,,,,,,-2.700037,23.481583,-73.7921,
11181,,,,0.025289577,0.481477,0.24921347,,,,
11195,0.027547628,0.11701898,11.608289,,,,,,,
11197,,,,,,,-1.0055618,22.46382,-74.51198,
11201,,,,-0.25540736,0.40211484,0.13043658,,,,
11215,-0.029943839,-0.3477039,11.905329,,,,,,,
11217,,,,,,,-1.3186455,23.544289,-70.9727,
11221,,,,-0.35234636,-0.0010873872,-0.07942033,,,,
11235,-0.62402254,-0.5225737,11.608289,,,,,,,
11237,,,,,,,-2.3926487,24.06894,-74.25554,
11241,,,,-0.31772527,-0.16993164,-0.23015511,,,,
11255,-1.7019879,-0.24948928,11.445396,,,,,,,
11257,,,,,,,-3.468092,23.020733,-74.27016,
11261,,,,-0.19735049,-0.014403181,-0.13854246,,,,
11275,-1.6516827,0.1481602,11.1148205,,,,,,,
11277,,,,,,,-0.39186478,22.929281,-73.57353,
11281,,,,0.017832732,0.042055782,0.1490787,,,,
11295,-0.16409063,0.5386232,10.115906,,,,,,,
11297,,,,,,,-0.85534096,23.237944,-72.19574,
11301,,,,0.18401386,-0.17632322,0.31525984,,,,
11315,1.3330834,0.6703745,8.91098,,,,,,,
11317,,,,,,,-3.1627636,23.490793,-72.72035,
11321,,,,0.14353384,-0.38990858,0.17198187,,,,
11336,1.1342587,0.5841373,8.520517,,,,,,,
11337,,,,,,,-1.7779102,24.520504,-74.24548,
11342,,,,-0.09295467,-0.2780559,-0.115639284,,,,
11356,-0.11857656,0.3493804,9.227184,,,,,,,
11357,,,,,,,-3.00696,23.177464,-74.10574,
11362,,,,-0.28470212,0.052175786,-0.27116773,,,,
11376,-1.0695815,0.18648785,10.041646,,,,,,,
11377,,,,,,,-3.008974,24.651554,-74.12286,
11382,,,,-0.22398208,0.18213794,-0.1662393,,,,
11396,-0.77733314,0.12180993,9.586505,,,,,,,
11397,,,,,,,-2.2406635,24.674809,-73.3302,
11402,,,,0.09186855,0.044186313,0.037226032,,,,
11416,-0.053898618,0.3589623,7.988721,,,,,,,
11417,,,,,,,-3.4713154,25.37928,-74.29755,
11422,,,,0.2740286,-0.16034427,0.039889194,,,,
11436,-0.43957067,0.73265696,7.126349,,,,,,,
11437,,,,,,,-4.2338943,21.661533,-75.66635,
11442,,,,0.11690224,-0.057013724,-0.08687717,,,,
11456,-1.3762027,0.90752685,8.046212,,,,,,,
11457,,,,,,,-3.6230183,24.190723,-74.75185,
11462,,,,-0.11425994,0.16669162,-0.05278873,,,,
11476,-1.1989374,0.68953836,8.83193,,,,,,,
11477,,,,,,,-2.700037,23.481583,-73.7921,
11482,,,,-0.08603046,0.119287394,0.13789342,,,,
11496,-0.2575143,0.7733801,8.348043,,,,,,,
11497,,,,,,,-4.3913937,23.589413,-74.76399,
11502,,,,0.10624961,-0.1337127,0.2263103,,,,
11516,0.15929896,1.1015606,7.320382,,,,,,,
11517,,,,,,,-2.239254,23.642944,-73.31821,
11522,,,,0.10891276,-0.19869375,0.16345975,,,,
11536,-0.029943839,1.3818316,8.089332,,,,,,,
11537,,,,,,,-4.700821,24.62124,-74.47412,
11542,,,,-0.08283467,0.06123053,0.107533425,,,,
11557,-0.17367256,1.1327019,9.289466,,,,-4.0844707,23.893534,-74.45036,
11563,,,,-0.13449994,0.20291059,0.0819671,,,,
11577,-0.073062465,0.86440825,9.6487875,,,,-4.084261,24.614365,-75.54205,
11583,,,,0.005582201,0.06922001,0.027638663,,,,
11597,-0.27907363,1.0392781,9.7278385,,,,-4.546665,24.764036,-74.93623,
11603,,,,0.16643701,-0.15821375,0.0042028637,,,,
11617,-0.044316724,1.5375378,9.8404255,,,,-2.5478687,24.953377,-74.11488,
11623,,,,0.27349597,-0.3717991,0.022844978,,,,
11637,0.655163,1.7004303,9.459545,,,,-5.006792,23.870262,-75.09209,
11643,,,,0.26497388,-0.35582012,-0.049592942,,,,
11657,0.47071117,1.8729048,9.083455,,,,-3.777485,24.77571,-74.91724,
11663,,,,0.11370645,0.030870518,-0.14333615,,,,
11677,-0.08024889,1.5135831,9.562551,,,,-4.2388744,25.056574,-75.396255,
11683,,,,-0.096150465,0.394658,-0.13055299,,,,
11697,-0.6192316,0.9650184,10.618957,,,,-3.6227531,24.621368,-75.530655,
11703,,,,-0.28523475,0.39838642,-0.12948771,,,,
11717,-0.9210619,0.77817106,12.528152,,,,-5.6246185,25.051777,-74.34732,
11723,,,,-0.36033583,0.08626422,-0.12203088,,,,
11737,-0.22397761,0.3158437,13.426456,,,,-5.6256256,25.788822,-74.35588,
11743,,,,-0.16699049,-0.27965382,-0.07302874,,,,
11757,0.5665303,0.13618281,12.571272,,,,-4.395075,26.532963,-75.10771,
11763,,,,0.19679701,-0.29616538,-0.024559248,,,,
11777,,,,,,,-4.3942127,25.653141,-74.787964,
11778,0.83482385,0.4931091,11.232199,,,,,,,
11784,,,,0.32835704,-0.10814637,0.019649185,,,,
11797,,,,,,,-4.702286,25.94329,-74.79898,
11798,1.4552529,0.4499905,10.044042,,,,,,,
11804,,,,0.13927278,0.002108403,0.036160767,,,,
11817,,,,,,,-5.318144,26.80914,-75.44339,
11818,1.7091734,0.35656685,10.544697,,,,,,,
11824,,,,-0.2058726,0.13047267,-0.06716979,,,,
11837,,,,,,,-5.9330025,26.069706,-74.98584,
11838,0.6695359,-0.14887914,12.132899,,,,,,,
11844,,,,-0.36939058,0.19705163,-0.27170038,,,,
11857,,,,,,,-5.4733353,27.548485,-75.146286,
11858,-0.5018531,-0.42675462,12.420356,,,,,,,
11864,,,,-0.1052052,0.05963263,-0.34626883,,,,
11877,,,,,,,-5.4733353,27.548485,-75.146286,
11878,-0.49945763,0.2679341,10.755499,,,,,,,
11884,,,,0.32196546,-0.050622143,-0.15239088,,,,
11897,,,,,,,-5.935108,27.110834,-74.378876,
11898,0.6336037,0.68953836,8.793602,,,,,,,
11904,,,,0.49507076,0.11502634,0.07930394,,,,
11917,,,,,,,-5.779888,26.226398,-74.51955,
11918,1.6301228,1.0440692,7.437761,,,,,,,
11924,,,,0.29107282,0.28813165,0.051074456,,,,
11937,,,,,,,-5.623556,26.77436,-77.462524,
11938,1.6037725,1.0488601,7.397038,,,,,,,
11944,,,,-0.16272941,0.28759903,-0.18221825,,,,
11957,,,,,,,-5.626549,26.090588,-73.895096,
11958,0.7964963,0.45717692,8.383975,,,,,,,
11964,,,,-0.55368114,0.079872645,-0.43362042,,,,
11977,,,,,,,-7.009736,26.341232,-75.48006,
11978,-0.5449717,0.39489448,9.241556,,,,,,,
11984,,,,-0.64955485,-0.014935814,-0.54174465,,,,
11997,,,,,,,-6.094282,29.639933,-72.70973,
11998,-1.3067338,0.36614874,9.804494,,,,,,,
12004,,,,-0.52598435,0.12727687,-0.38408566,,,,
12017,,,,,,,-6.706916,28.14724,-73.32672,
12019,-1.1366549,0.30147082,9.4044485,,,,,,,
12025,,,,-0.29056108,0.22368322,-0.13960773,,,,
12037,,,,,,,-4.7034397,26.537558,-74.49638,
12039,-0.64797735,0.76858914,8.503749,,,,,,,
12045,,,,-0.15207678,0.15816951,-0.00591714,,,,
12057,,,,,,,-5.0138416,29.02958,-75.15201,
12059,-0.3245877,0.89554954,8.570823,,,,,,,
12065,,,,-0.19521996,0.05590421,0.0366934,,,,
12077,,,,,,,-7.0153027,29.165169,-73.965256,
12079,-0.43957067,0.9338771,9.332584,,,,,,,
12085,,,,-0.17284943,-0.050622143,0.053737618,,,,
12097,,,,,,,-8.7063465,28.54522,-74.30966,
12099,-0.35572892,1.118329,9.414031,,,,,,,
12105,,,,0.036474843,-0.11453795,0.12937132,,,,
12117,,,,,,,-6.706623,28.432793,-73.9491,
12119,0.44915187,1.3027809,8.484585,,,,,,,
12125,,,,0.27030018,-0.048491616,0.23802818,,,,
12137,,,,,,,-6.7083807,29.469288,-73.65161,
12139,0.9018972,1.7076168,7.7707324,,,,,,,
12145,,,,0.26337597,0.04365368,0.18902607,,,,
12157,,,,,,,-9.169355,29.137115,-73.70897,
12159,0.54976195,1.8249952,8.496562,,,,,,,
12165,,,,0.071095906,0.08200317,0.052139726,,,,
12177,,,,,,,-6.5541067,29.899952,-74.581345,
12179,0.33656436,1.7267805,9.857194,,,,,,,
12185,,,,-0.020516755,-0.021860026,-0.03947294,,,,
12197,,,,,,,-8.861217,29.425022,-74.47847,
12199,0.14253059,1.2093571,10.233285,,,,,,,
12205,,,,0.09453171,-0.06766636,-0.090605594,,,,
12217,,,,,,,-8.091148,28.411781,-73.98329,
12219,-0.27667814,0.86440825,10.132674,,,,,,,
12225,,,,0.13501173,-0.090036884,-0.10179085,,,,
12237,,,,,,,-7.781599,27.667824,-74.7408,
12240,-0.64797735,0.5506006,11.239386,,,,,,,
12246,,,,0.027952734,-0.18005165,-0.046397153,,,,
12257,,,,,,,-9.012919,28.236465,-74.93277,
12260,-0.5018531,0.13139185,12.473057,,,,,,,
12266,,,,0.09399907,-0.2945675,0.05693341,,,,
12277,,,,,,,-8.862032,29.146418,-73.39191,
12280,-0.27667814,-0.048269033,12.298187,,,,,,,
12286,,,,0.3965339,-0.2913717,0.15333974,,,,
12297,,,,,,,-9.324125,28.568308,-72.158585,
12300,-0.40363848,0.68474734,11.725668,,,,,,,
12306,,,,0.58668345,-0.14809375,0.25720295,,,,
12317,,,,,,,-10.091741,28.53579,-73.57019,
12320,0.03233859,1.3842272,11.325623,,,,,,,
12326,,,,0.5648455,0.030337887,0.38663247,,,,
12337,,,,,,,-9.934398,28.346704,-76.50461,
12340,0.9066882,1.6621027,10.487205,,,,,,,
12346,,,,0.44287285,0.2801422,0.4372325,,,,
12357,,,,,,,-9.473796,27.642143,-74.78259,
12360,1.1390496,1.3315266,10.005713,,,,,,,
12366,,,,0.20958017,0.45963907,0.28703034,,,,
12377,,,,,,,-8.7041855,27.213903,-74.60373,
12380,0.935434,0.7494253,10.154234,,,,,,,
12386,,,,-0.09135678,0.29186007,0.005800759,,,,
12397,,,,,,,-9.784261,29.556107,-74.657715,
12400,0.15690348,0.20804717,10.980674,,,,,,,
12406,,,,-0.40454426,0.016489461,-0.31857195,,,,
12417,,,,,,,-8.706466,28.257349,-73.84204,
12420,-0.92585284,-0.42435917,11.622662,,,,,,,
12426,,,,-0.46952534,-0.010674759,-0.47623095,,,,
12437,,,,,,,-10.243983,28.367516,-74.81015,
12440,-1.9990273,-0.5632969,11.526843,,,,,,,
12446,,,,-0.31186634,0.05057789,-0.4213699,,,,
12457,,,,,,,-9.785479,29.57232,-73.574585,
12461,-2.423027,-0.66869795,10.947137,,,,,,,
12467,,,,-0.0849652,0.038859993,-0.16836983,,,,
12477,,,,,,,-8.707821,28.999027,-73.54114,
12481,-1.5319089,-0.6447432,10.360245,,,,,,,
12487,,,,0.05458432,-0.16993164,0.14375237,,,,
12497,,,,,,,-9.939597,30.152674,-74.04942,
12501,-0.13534491,-0.5153874,9.936245,,,,,,,
12507,,,,0.06363907,-0.37233174,0.2364303,,,,
12517,,,,,,,-9.480059,30.475342,-72.64885,
12521,0.374892,-0.42915013,9.430799,,,,,,,
12527,,,,0.036474843,-0.32066643,0.114990264,,,,
12537,,,,,,,-9.319374,28.215584,-76.0235,
12541,-0.18325448,-0.06743288,9.021172,,,,,,,
12547,,,,-0.032234654,-0.081514776,-0.044266626,,,,
12557,,,,,,,-10.09315,29.567652,-73.582184,
12561,-0.9833443,0.15295115,9.26072,,,,,,,
12567,,,,-0.09135678,0.16722426,-0.05864768,,,,
12577,,,,,,,-9.0132675,28.241098,-74.62331,
12581,-1.1150956,0.30147082,9.102619,,,,,,,
12587,,,,0.013571678,0.22634637,0.0702492,,,,
12597,,,,,,,-9.017048,29.883446,-73.24954,
12601,-0.6791185,0.48831815,8.309715,,,,,,,
12607,,,,0.18774228,0.14059266,0.19009133,,,,
12612,,,,,,,,,,1191.0
12617,,,,,,,-9.936713,28.667002,-74.80597,
12621,-0.28865552,0.9338771,7.5551395,,,,,,,
12627,,,,0.22129808,-0.012272654,0.19808082,,,,
12637,,,,,,,-9.321288,28.241062,-74.32144,
12641,-0.33177415,1.1422838,7.3108006,,,,,,,
12647,,,,0.09666224,-0.105483204,0.10487026,,,,
12657,,,,,,,-10.09153,29.25662,-74.661896,
12661,-0.7006779,1.0201144,7.679704,,,,,,,
12667,,,,-0.022647282,-0.10495058,0.054270253,,,,
12677,,,,,,,-9.320646,28.521982,-75.25325,
12681,-0.6168361,0.9362726,8.23306,,,,,,,
12687,,,,-0.049278874,-0.13051689,0.10487026,,,,
12697,,,,,,,-8.089875,28.105381,-74.753525,
12702,0.03233859,0.8787811,8.558845,,,,,,,
12708,,,,0.014104309,-0.1539527,0.17784081,,,,
12717,,,,,,,-10.246053,30.13179,-75.14015,
12722,0.22637233,1.0608375,8.817556,,,,,,,
12728,,,,0.080683276,-0.09749374,0.12830606,,,,
12737,,,,,,,-9.936448,29.097649,-75.58478,
12742,0.14971703,1.3003854,9.229579,,,,,,,
12748,,,,0.12915279,-0.09536321,0.04521551,,,,
12757,,,,,,,-10.244121,29.09298,-75.59238,
12762,0.374892,1.5279559,9.08585,,,,,,,
12768,,,,0.16217594,-0.1976285,-0.0048518754,,,,
12777,,,,,,,-9.322907,28.552094,-73.24173,
12782,0.3820784,1.5016056,8.946913,,,,,,,
12788,,,,0.087607495,-0.14756112,-0.07888769,,,,
12797,,,,,,,-10.553688,28.100456,-72.64804,
12802,0.16169444,1.3411086,9.354144,,,,,,,
12808,,,,-0.07591046,0.01009788,-0.1076498,,,,
12817,,,,,,,-11.166679,28.493967,-75.29884,
12822,0.09701651,1.4105774,10.465646,,,,,,,
12828,,,,-0.17338206,0.074013695,-0.055984523,,,,
12837,,,,,,,-9.32235,29.268293,-74.6429,
12842,0.34854174,1.3435041,11.066911,,,,,,,
12848,,,,-0.041289393,0.032468412,-0.018700302,,,,
12857,,,,,,,-8.397603,28.390898,-75.07402,
12862,0.4659202,1.2165437,10.3554535,,,,,,,
12868,,,,0.18507911,-0.015468445,-0.09220348,,,,
12877,,,,,,,-10.24499,29.10456,-74.81871,
12882,0.22637233,1.4393232,9.821261,,,,,,,
12888,,,,0.1445991,-0.10335268,-0.21257827,,,,
12897,,,,,,,-9.936559,29.678019,-76.210556,
12902,0.0107792765,1.3027809,10.532719,,,,,,,
12908,,,,-0.11852099,-0.18378007,-0.25305825,,,,
12917,,,,,,,-11.013356,29.37149,-75.924255,
12923,0.1329487,0.94585454,11.821486,,,,,,,
12929,,,,-0.33104107,-0.24716325,-0.22749196,,,,
12937,,,,,,,-11.474297,28.199112,-74.99356,
12943,0.5066433,0.35177588,12.446707,,,,,,,
12949,,,,-0.3161274,-0.159279,-0.20938249,,,,
12957,,,,,,,-12.398348,29.067244,-75.181366,
12963,0.79170537,-0.0985741,11.723271,,,,,,,
12969,,,,-0.21066628,0.007967353,-0.19926247,,,,
12977,,,,,,,-10.547875,26.720499,-76.19151,
12983,0.33656436,-0.10096955,11.447792,,,,,,,
12989,,,,-0.29322422,0.1160916,-0.24187301,,,,
12997,,,,,,,-10.089424,28.215492,-75.26883,
13003,-0.3677063,-0.32374904,12.334119,,,,,,,
13009,,,,-0.37258634,0.15923479,-0.21524143,,,,
13017,,,,,,,-10.5496235,28.625237,-76.98744,
13023,-0.7126552,-0.388427,12.657509,,,,,,,
13029,,,,-0.12651047,0.12887478,-0.05332136,,,,
13037,,,,,,,-11.781099,28.182861,-75.774826,
13043,-0.31740126,-0.050664514,11.014211,,,,,,,
13049,,,,0.32569388,0.042588413,0.14321975,,,,
13057,,,,,,,-10.088087,28.487146,-76.81958,
13063,0.26949096,0.4931091,8.870256,,,,,,,
13069,,,,0.49666864,-0.03730635,0.22417977,,,,
13077,,,,,,,-10.553259,30.410358,-75.92485,
13083,0.91147923,0.81889415,8.151613,,,,,,,
13089,,,,0.22875491,-0.013337918,0.19009133,,,,
13097,,,,,,,-8.856539,27.626001,-76.46945,
13103,1.2516371,0.71109766,8.851093,,,,,,,
13109,,,,-0.16326205,0.09478633,0.06279235,,,,
13117,,,,,,,-9.781633,28.50803,-75.72885,
13123,0.91866565,0.42124474,9.552969,,,,,,,
13129,,,,-0.3315737,0.23114006,-0.08101822,,,,
13137,,,,,,,-8.391945,25.999924,-77.21289,
13143,0.14253059,0.51706386,10.113511,,,,,,,
13149,,,,-0.29908317,0.24711902,-0.17156562,,,,
13157,,,,,,,-8.704084,28.515106,-76.3212,
13164,-0.33177415,0.51227295,10.048833,,,,,,,
13170,,,,-0.11745573,0.13739689,-0.1779572,,,,
13177,,,,,,,-10.39435,27.450615,-76.8152,
13184,-0.5761129,0.6991203,9.021172,,,,,,,
13190,,,,0.08334644,-0.02345792,-0.13215087,,,,
13197,,,,,,,-9.47364,28.65316,-76.18718,
13204,-0.56653106,0.85961735,8.249828,,,,,,,
13210,,,,0.101988554,-0.06553583,-0.056517158,,,,
13217,,,,,,,-10.088902,28.208542,-75.73303,
13224,-0.4946667,0.90034044,8.455839,,,,,,,
13230,,,,0.00824536,0.0255442,0.043617614,,,,
13237,,,,,,,-8.24036,26.900612,-76.29097,
13244,-0.38207918,1.1374928,8.855884,,,,,,,
13250,,,,-0.005070434,0.08093791,0.16186185,,,,
13257,,,,,,,-11.162376,26.844673,-77.136826,
13264,0.2647,1.3219447,8.621127,,,,,,,
13270,,,,0.0977275,0.03832736,0.25187665,,,,
13277,,,,,,,-11.162376,26.844673,-77.136826,
13284,0.6695359,1.5902383,8.1588,,,,,,,
13290,,,,0.16270858,-0.018131604,0.22844082,,,,
13297,,,,,,,-8.697969,25.539131,-78.14375,
13304,0.68869966,1.6764755,8.292947,,,,,,,
13310,,,,0.14353384,-0.014403181,0.1623945,,,,
13317,,,,,,,-8.697969,25.539131,-78.14375,
13324,0.51382977,1.8106223,8.597173,,,,,,,
13330,,,,0.11317382,0.007434721,0.11818606,,,,
13337,,,,,,,-8.08246,24.677912,-77.18988,
13344,0.34135532,1.8657182,9.102619,,,,,,,
13350,,,,0.09985802,-0.008544232,0.09155447,,,,
13357,,,,,,,-7.623991,27.909384,-78.454025,
13364,0.51382977,1.6860574,9.5362,,,,,,,
13370,,,,0.12329382,-0.03251266,0.10700079,,,,
13377,,,,,,,-6.3877726,24.380978,-79.001465,
13385,0.5329936,1.3722497,9.943432,,,,,,,
13391,,,,0.16324121,-0.009609495,0.091021836,,,,
13397,,,,,,,-8.08387,25.709774,-77.20186,
13405,0.19762662,1.0584421,10.451273,,,,,,,
13411,,,,0.20052543,-0.08790636,0.050009195,,,,
13417,,,,,,,-8.389317,24.951847,-78.28404,
13425,0.11138937,0.7374479,10.915996,,,,,,,
13431,,,,0.2628433,-0.2844475,0.0484113,,,,
13437,,,,,,,-7.7743206,24.965816,-77.959366,
13445,0.40124232,0.42364025,10.753103,,,,,,,
13451,,,,0.34220546,-0.36434224,0.0601292,,,,
13457,,,,,,,-7.6184063,24.072117,-78.71896,
13465,0.26949096,0.727866,10.549488,,,,,,,
13471,,,,0.3709676,-0.12678847,0.08463026,,,,
13477,,,,,,,-7.926894,23.788843,-77.640015,
13485,-0.06348054,1.2979898,10.245262,,,,,,,
13491,,,,0.3294223,0.17042005,0.17890607,,,,
13497,,,,,,,-7.1587934,25.84108,-79.19232,
13505,-0.26470074,2.0884976,10.645307,,,,,,,
13511,,,,0.23195072,0.33500323,0.28756297,,,,
13517,,,,,,,-7.6163187,24.044321,-80.57576,
13525,0.38926488,2.284927,11.064516,,,,,,,
13531,,,,0.21011281,0.28493586,0.3264451,,,,
13537,,,,,,,-5.9257774,23.657887,-78.5173,
13545,1.4025522,1.7100123,10.228494,,,,,,,
13551,,,,0.13128331,0.083601065,0.1576008,,,,
13557,,,,,,,-5.618456,23.667187,-78.20024,
13565,0.83721936,1.233312,9.909895,,,,,,,
13571,,,,-0.23410209,0.039392624,-0.18488142,,,,
13577,,,,,,,-6.8465986,23.035713,-79.77112,
13585,-0.80847436,0.2152336,11.11003,,,,,,,
13591,,,,-0.6527507,0.23753165,-0.37662882,,,,
13597,,,,,,,-5.618355,24.96839,-79.917725,
13605,-2.1762927,-0.35728577,12.674277,,,,,,,
13611,,,,-0.6996223,0.38347274,-0.25092775,,,,
13617,,,,,,,-4.6930313,23.793861,-80.50015,
13626,-2.3607445,-0.2207435,12.676673,,,,,,,
13632,,,,-0.35927054,0.22102007,0.0063333907,,,,
13637,,,,,,,-5.3101234,22.939444,-77.8746,
13646,-1.7235471,0.047550112,11.354368,,,,,,,
13652,,,,0.017300101,-0.11453795,0.17997134,,,,
13657,,,,,,,-5.770075,24.793167,-81.62187,
13666,-0.5258079,0.25835222,10.252448,,,,,,,
13672,,,,0.13501173,-0.45861807,0.2497461,,,,
13677,,,,,,,-5.3099136,23.660275,-78.96631,
13686,0.7006771,0.05473654,9.564946,,,,,,,
13692,,,,0.022093786,-0.52306646,0.1826345,,,,
13697,,,,,,,-5.4620743,23.056725,-79.73692,
13706,0.26230454,-0.0027549267,9.20802,,,,,,,
13712,,,,-0.1925568,-0.2194664,0.0031376001,,,,
13717,,,,,,,-5.0026703,24.104855,-79.11859,
13726,-0.74140096,-3.594756E-4,9.5960865,,,,,,,
13732,,,,-0.33796528,0.16722426,-0.0011234536,,,,
13737,,,,,,,-5.4621086,25.08339,-82.23663,
13746,-0.7821241,0.10025062,9.782935,,,,,,,
13752,,,,-0.27511474,0.23114006,0.16878606,,,,
13757,,,,,,,-4.6943035,24.10026,-79.729904,
13766,-0.19523187,0.4044764,9.140945,,,,,,,
13772,,,,-0.070051506,0.003173667,0.2396261,,,,
13777,,,,,,,-6.0797806,24.526108,-79.45978,
13786,0.12576225,0.8811766,7.751569,,,,,,,
13792,,,,0.07322644,-0.1507569,0.17304713,,,,
13797,,,,,,,-4.6952553,24.54712,-79.42558,
13806,-0.291051,1.348295,7.504834,,,,,,,
13812,,,,-0.033299915,-0.061807405,0.110196576,,,,
13817,,,,,,,-6.3874807,24.666533,-79.623825,
13826,-0.6359999,1.2428938,8.278574,,,,,,,
13832,,,,-0.12597784,0.022348411,0.17091659,,,,
13837,,,,,,,-4.8478374,25.251719,-81.44948,
13847,-0.22876856,1.1327019,8.436675,,,,,,,
13853,,,,0.0029190425,-0.056481093,0.27584508,,,,
13857,,,,,,,-5.004547,24.853481,-78.353485,
13867,0.32219148,1.3746452,8.204314,,,,,,,
13873,,,,0.14193594,-0.23704325,0.28596509,,,,
13877,,,,,,,-3.4629726,24.399857,-80.63135,
13887,0.87794244,1.5111876,8.278574,,,,,,,
13893,,,,0.14353384,-0.40269175,0.17091659,,,,
13897,,,,,,,-4.077183,24.809582,-82.19902,
13907,1.5822133,1.559097,7.6365857,,,,,,,
13913,,,,0.04233379,-0.525197,-0.08208348,,,,
13917,,,,,,,-3.3074093,23.510788,-81.08147,
13927,0.935434,1.7627128,7.8258286,,,,,,,
13933,,,,-0.20320943,-0.50762016,-0.40698883,,,,
13937,,,,,,,-3.7722664,24.70622,-79.559235,
13947,0.11857581,1.5423288,9.466731,,,,,,,
13953,,,,-0.27511474,-0.306818,-0.46078464,,,,
13957,,,,,,,-4.8490562,25.267933,-80.36635,
13967,0.20241755,1.2045662,9.972177,,,,,,,
13973,,,,-0.1052052,-0.10654847,-0.30845195,,,,
13977,,,,,,,-5.0011063,24.08401,-80.51117,
13987,0.47789764,1.0823969,10.889646,,,,,,,
13993,,,,0.0742917,0.15603898,-0.1662393,,,,
13997,,,,,,,-5.3086586,24.36721,-80.98639,
14007,0.5042479,0.99376416,11.275318,,,,,,,
14013,,,,0.32835704,0.38080958,-0.08687717,,,,
14017,,,,,,,-3.3099174,24.846735,-80.477936,
14027,0.48268855,1.0967697,10.197351,,,,,,,
14033,,,,0.5765634,0.46762854,-0.0623761,,,,
14037,,,,,,,-4.3840046,23.056852,-80.79346,
14047,0.47789764,1.0440692,9.112201,,,,,,,
14053,,,,0.47270024,0.36216745,-0.13161825,,,,
14057,,,,,,,-3.767414,22.904882,-81.70494,
14068,0.03712955,1.0704194,9.766166,,,,,,,
14074,,,,-0.015190437,0.06549159,-0.32016987,,,,
14077,,,,,,,-2.3863316,23.695366,-79.51306,
14088,-0.7078643,0.74702984,11.665781,,,,,,,
14094,,,,-0.40614215,-0.10495058,-0.4229678,,,,
14097,,,,,,,-4.2289867,22.319824,-80.93584,
14108,-0.9785533,0.5817418,12.568876,,,,,,,
14114,,,,-0.3901632,0.027674727,-0.30152774,,,,
14117,,,,,,,-3.6144772,23.063892,-81.08394,
14128,-0.17846352,0.13857828,12.015521,,,,,,,
14134,,,,-0.26073366,0.20184532,-0.14386877,,,,
14137,,,,,,,-1.4631882,24.865486,-81.051285,
14148,0.23355877,-0.13929722,12.255068,,,,,,,
14154,,,,-0.33050847,0.16775689,-0.07302874,,,,
14157,,,,,,,-1.4617233,23.543436,-80.72641,
14168,0.38926488,-0.28063044,13.268355,,,,,,,
14174,,,,-0.35767266,-0.065003194,-0.0772898,,,,
14177,,,,,,,-0.38386345,22.822733,-80.69125,
14188,0.4874795,-0.24709377,13.103067,,,,,,,
14194,,,,-0.15687047,-0.28178433,-0.13907509,,,,
14197,,,,,,,-1.4613113,24.11686,-81.81639,
14208,0.26230454,0.29188892,11.454979,,,,,,,
14214,,,,0.10571697,-0.19390006,-0.121498235,,,,
14217,,,,,,,-0.23235321,25.026937,-81.33208,
14228,0.07066625,0.5961147,9.845217,,,,,,,
14234,,,,0.24526651,0.2082369,0.091021836,,,,
14237,,,,,,,-0.9993725,23.68395,-81.64511,
14248,0.17606732,0.94825006,9.18646,,,,,,,
14254,,,,0.23674439,0.4500517,0.3232493,,,,
14257,,,,,,,-1.4627857,24.570667,-81.04787,
14268,1.2612191,1.0344872,8.482189,,,,,,,
14274,,,,0.19466649,0.2902622,0.378643,,,,
14277,,,,,,,-1.0009384,23.704796,-80.25253,
14288,2.0660996,1.1207244,7.0544844,,,,,,,
14294,,,,-0.035430446,-0.015468445,0.07664078,,,,
14297,,,,,,,-2.0762253,23.667608,-81.67171,
14309,0.99532104,1.0201144,6.9490833,,,,,,,
14315,,,,-0.43170846,0.007434721,-0.34147513,,,,
14317,,,,,,,-2.0773888,23.393639,-80.275696,
14329,-0.35093796,0.64641976,8.338461,,,,,,,
14335,,,,-0.67884964,0.18054006,-0.45226255,,,,
14337,,,,,,,-1.1558094,24.584602,-80.421326,
14349,-1.3235023,0.4595724,9.025963,,,,,,,
14355,,,,-0.58084536,0.20291059,-0.3175067,,,,
14357,,,,,,,-0.84420776,23.0897,-82.09868,
14369,-1.1630051,0.4188493,8.83193,,,,,,,
14375,,,,-0.3480853,0.06975264,-0.05278873,,,,
14377,,,,,,,-1.1552048,24.142374,-80.41618,
14389,-0.22637309,0.42124474,8.846302,,,,,,,
14395,,,,-0.2143947,-0.06287266,0.0904892,,,,
14397,,,,,,,-0.23135567,23.421654,-80.2301,
14409,0.6048579,0.6631881,9.090641,,,,,,,
14415,,,,-0.12224942,-0.057013724,0.053204987,,,,
14417,,,,,,,-0.38586807,25.165064,-81.80179,
14429,0.4132197,1.0440692,9.121782,,,,,,,
14435,,,,0.017832732,0.038859993,-0.01763504,,,,
14437,,,,,,,0.22966766,24.158752,-80.69147,
14449,-0.15929969,1.3363175,8.573217,,,,,,,
14455,,,,0.19200332,0.14165793,-0.010710826,,,,
14457,,,,,,,0.69319916,23.559906,-81.75635,
14469,-0.15690422,1.4728599,8.266597,,,,,,,
14475,,,,0.22662438,0.13686424,0.097946055,,,,
14477,,,,,,,1.1536732,24.449047,-81.90996,
14489,0.34854174,1.5998201,8.920562,,,,,,,
14495,,,,0.15045805,-0.005348441,0.18849345,,,,
14497,,,,,,,0.99959755,23.870975,-80.978516,
14509,0.88033795,1.5423288,9.102619,,,,,,,
14515,,,,0.15684964,-0.119331636,0.14162184,,,,
14517,,,,,,,1.3087368,22.553596,-80.64604,
14530,0.6863043,1.3986,8.800788,,,,,,,
14536,,,,0.1078475,0.0063694576,-0.003253981,,,,
14537,,,,,,,1.6154099,24.163551,-81.7404,
14550,-0.19283639,1.0991652,9.993737,,,,,,,
14556,,,,-0.08283467,0.24285798,-0.054386627,,,,
14557,,,,,,,3.0028381,21.685556,-81.212906,
14570,-0.65037274,0.43322214,11.953238,,,,,,,
14576,,,,-0.10307467,0.19705163,0.020714449,,,,
14577,,,,,,,1.9231663,23.73294,-81.26347,
14590,-0.4802938,-0.09378314,12.473057,,,,,,,
14596,,,,0.15791489,-0.15821375,0.07823867,,,,
14597,,,,,,,1.001934,22.537346,-81.42731,
14610,-0.039525762,-0.26865306,11.53882,,,,,,,
14616,,,,0.4450034,-0.37606016,0.10700079,,,,
14617,,,,,,,1.1554317,23.412552,-82.20744,
14630,-0.54257625,0.30865726,10.899228,,,,,,,
14636,,,,0.38215286,-0.22372745,0.12670816,,,,
14637,,,,,,,1.923357,22.717293,-80.16835,
14650,-1.1055137,0.7614027,11.991566,,,,,,,
14656,,,,0.18188332,0.09052528,0.30141142,,,,
14657,,,,,,,1.9278431,21.933922,-83.254456,
14670,-0.20720926,1.0057415,11.924492,,,,,,,
14676,,,,0.22129808,0.11023265,0.5171273,,,,
14677,,,,,,,0.6946659,22.237858,-81.43147,
14690,1.1198859,0.957832,10.822572,,,,,,,
14696,,,,0.16963279,-0.010142127,0.41166618,,,,
14697,,,,,,,0.6946659,22.237858,-81.43147,
14710,1.2300779,0.33261204,11.133984,,,,,,,
14716,,,,-0.189361,-0.010674759,0.022844978,,,,
14717,,,,,,,3.6177788,21.989712,-81.20114,
14730,-0.5689265,-0.5082009,12.944966,,,,,,,
14736,,,,-0.47112322,0.09851476,-0.31803933,,,,
14737,,,,,,,3.0041294,20.365824,-80.73329,
14751,-2.1547332,-1.0040649,13.668401,,,,,,,
14757,,,,-0.32145372,0.009565247,-0.2860814,2.6965485,20.794117,-81.36496,
14771,-2.2649252,-0.8196131,12.698232,,,,,,,
14777,,,,0.07322644,-0.18697587,0.05160709,3.770115,22.59095,-80.58525,
14791,-1.1055137,-0.29979423,10.700403,,,,,,,
14797,,,,0.43594867,-0.16034427,0.41273144,2.6932049,22.864792,-80.92473,
14811,0.21439496,0.14336924,8.443862,,,,,,,
14817,,,,0.47110236,0.037794728,0.52831256,3.771387,22.28455,-81.355484,
14831,0.95938873,0.47873622,7.842597,,,,,,,
14837,,,,0.11210856,0.18533374,0.41113356,5.312704,19.518705,-80.51129,
14851,0.8491968,0.3278211,8.391161,,,,,,,
14857,,,,-0.23996103,0.12141792,0.17144923,3.1583385,20.218433,-80.88252,
14871,0.33656436,0.07629584,8.934935,,,,,,,
14877,,,,-0.30654,-0.012805285,-0.03414662,3.003378,20.665274,-80.42726,
14891,-0.45394355,0.19606978,8.803184,,,,,,,
14897,,,,-0.14781573,-0.060742144,-0.10658454,3.773281,20.52259,-80.87074,
14911,-0.7533784,0.20565169,7.631795,,,,,,,
14917,,,,-0.025843073,-0.06926425,-0.040538203,3.3107014,20.674576,-80.11018,
14931,-0.7941015,0.30865726,7.5287895,,,,,,,
14937,,,,-0.13130416,-0.023990551,0.0702492,2.2348118,21.079615,-81.534515,
14951,-0.4156159,0.34458944,8.249828,,,,,,,
14957,,,,-0.2026768,0.061763156,0.15280712,4.3891754,20.379887,-81.1633,
14972,-0.18564996,0.3853126,8.5396805,,,,,,,
14977,,,,,,,3.3110504,20.669943,-80.41966,
14978,,,,-0.08549783,0.1043737,0.14321975,,,,
14992,-0.346147,0.6991203,8.360021,,,,,,,
14997,,,,,,,5.312704,19.518705,-80.51129,
14998,,,,0.07322644,-0.06393793,0.08782605,,,,
15012,-0.085039854,0.888363,8.175569,,,,,,,
15017,,,,,,,3.9266949,19.08326,-78.68355,
15018,,,,0.16643701,-0.30095908,0.065988146,,,,
15019,,,,,,,,,,1272.0
15032,0.09462103,0.99376416,7.9767437,,,,,,,
15037,,,,,,,4.234745,18.938206,-78.82898,
15038,,,,0.17336121,-0.30841592,0.043617614,,,,
15052,-0.37489277,1.1494702,8.25462,,,,,,,
15057,,,,,,,4.697176,18.64344,-79.278366,
15058,,,,0.13927278,-0.02292529,0.046813406,,,,
15072,-0.6647457,1.3890182,8.18515,,,,,,,
15077,,,,,,,4.543871,19.5024,-80.83977,
15078,,,,0.10997802,0.18959479,0.124577634,,,,
15092,-0.039525762,1.5327468,8.225874,,,,,,,
15097,,,,,,,5.313511,18.92907,-80.504456,
15098,,,,-0.024245178,0.12354844,0.18902607,,,,
15112,0.8060781,1.3195492,9.464335,,,,,,,
15117,,,,,,,5.3108807,19.977146,-79.433304,
15118,,,,-0.19628522,-0.07618846,0.124577634,,,,
15132,0.9450159,1.0512556,10.709985,,,,,,,
15137,,,,,,,5.620083,19.23782,-79.88133,
15138,,,,-0.14941363,-0.15555058,-0.10551928,,,,
15152,-0.35333344,0.98418224,10.83455,,,,,,,
15157,,,,,,,5.0080338,18.316233,-81.74306,
15158,,,,0.071095906,-0.04955688,-0.27436352,,,,
15172,-0.9737624,0.85482633,10.398573,,,,,,,
15177,,,,,,,4.237564,16.874477,-78.80502,
15178,,,,0.19839491,-0.046361085,-0.16570668,,,,
15192,-0.29344648,0.72547054,10.403364,,,,,,,
15197,,,,,,,5.0081444,17.73586,-81.117294,
15198,,,,0.1179675,-0.15714848,-0.017102407,,,,
15213,0.154508,0.5434141,11.46456,,,,,,,
15217,,,,,,,5.4666214,19.08576,-80.03816,
15219,,,,-8.0937985E-4,-0.20188956,-0.02189609,,,,
15233,0.0083838105,0.5266458,12.314955,,,,,,,
15237,,,,,,,5.00753,17.309849,-80.02902,
15239,,,,-0.0077335928,-0.23384745,-0.09966033,,,,
15253,0.40603328,0.46675885,12.192786,,,,,,,
15257,,,,,,,5.46838,18.049265,-80.33565,
15259,,,,0.044464316,-0.25515273,-0.0975298,,,,
15273,1.0695808,0.5506006,12.008334,,,,,,,
15277,,,,,,,3.927391,19.073996,-79.30249,
15279,,,,-0.011994647,-0.1843127,-0.05332136,,,,
15293,1.6684504,0.15774211,12.075408,,,,,,,
15297,,,,,,,5.4681683,17.328434,-79.24396,
15299,,,,-0.11479258,0.040457886,-0.03787504,,,,
15313,1.2013321,-0.23032543,12.535338,,,,,,,
15317,,,,,,,7.6197147,18.692432,-78.8967,
15319,,,,-0.14248942,0.176279,-0.11297612,,,,
15333,0.324587,0.01640886,12.149667,,,,,,,
15337,,,,,,,5.7741375,18.079414,-78.62598,
15339,,,,0.015169572,0.10064528,-0.20725195,,,,
15353,-0.21679117,0.3589623,11.059725,,,,,,,
15357,,,,,,,6.697668,17.218231,-77.97398,
15359,,,,0.18348122,0.10171054,-0.19819722,,,,
15373,-0.21439569,0.48592266,10.149443,,,,,,,
15377,,,,,,,4.3924713,16.717823,-79.573166,
15379,,,,0.19892754,0.20770428,-0.08794243,,,,
15393,0.10899392,0.44519955,9.493082,,,,,,,
15397,,,,,,,6.3920193,16.607712,-79.05786,
15399,,,,0.12755488,0.2923927,-0.005384508,,,,
15413,0.30063218,0.48113173,9.0547085,,,,,,,
15417,,,,,,,6.543804,17.36099,-78.13422,
15419,,,,0.04286642,0.24445586,0.0047354954,,,,
15434,0.58808964,0.59132373,8.163591,,,,,,,
15437,,,,,,,7.009533,16.153976,-80.43013,
15440,,,,-0.083367296,-0.05594846,-0.085811906,,,,
15454,0.48987502,0.55299604,8.324088,,,,,,,
15457,,,,,,,5.3138943,16.89777,-78.31421,
15460,,,,-0.31186634,-0.21200955,-0.20245826,,,,
15474,0.046711475,0.33979848,9.0547085,,,,,,,
15477,,,,,,,6.852804,16.769073,-78.58397,
15480,,,,-0.43916532,-0.10495058,-0.2179046,,,,
15494,-0.34375155,0.44519955,9.279883,,,,,,,
15497,,,,,,,5.9301624,16.605341,-78.759796,
15500,,,,-0.35394424,0.08573159,-0.106051914,,,,
15514,0.03233859,0.447595,8.927749,,,,,,,
15517,,,,,,,7.1595516,17.07551,-78.1156,
15520,,,,-0.16326205,0.22847691,0.100609206,,,,
15534,0.43956995,0.5314368,8.522913,,,,,,,
15537,,,,,,,6.8501205,18.107338,-77.825714,
15540,,,,-0.021049386,0.24072744,0.14854605,,,,
15554,0.36291462,0.71828413,8.33367,,,,,,,
15557,,,,,,,7.1595516,17.07551,-78.1156,
15560,,,,0.06683486,0.12727687,0.09528289,,,,
15570,,,,,,,,,,1192.0
15574,0.3102141,1.0392781,7.564721,,,,,,,
15577,,,,,,,7.927725,17.824228,-78.10516,
15580,,,,0.051388532,-0.0751232,0.009529181,,,,
15594,0.27428192,1.1710294,7.852179,,,,,,,
15597,,,,,,,5.930052,17.18571,-79.385574,
15600,,,,-0.07058414,-0.02931687,-0.017102407,,,,
15614,0.42998803,1.12312,8.506145,,,,,,,
15617,,,,,,,4.696068,18.079285,-77.56944,
15620,,,,-0.07910624,0.12141792,0.040421825,,,,
15634,0.5377846,1.2668487,8.522913,,,,,,,
15637,,,,,,,6.6964493,17.234446,-76.890854,
15640,,,,-0.0029399067,0.16083267,0.028703924,,,,
15654,0.3772875,1.5135831,8.867862,,,,,,,
15657,,,,,,,7.0053406,17.2229,-77.966385,
15660,,,,0.046062212,0.13846214,-0.03095083,,,,
15675,0.42519706,1.6908484,8.963681,,,,,,,
15677,,,,,,,8.386679,17.57579,-75.45987,
15681,,,,0.078020126,0.07507896,-0.049592942,,,,
15695,0.5186207,1.4273458,9.049918,,,,,,,
15697,,,,,,,7.1595516,17.07551,-78.1156,
15701,,,,0.05351906,0.06282842,-0.079952955,,,,
15715,0.09701651,1.0344872,9.4044485,,,,,,,
15717,,,,,,,8.69762,16.813303,-77.455246,
15721,,,,-0.046615712,0.008499985,-0.13854246,,,,
15735,-0.7078643,0.73984337,10.520741,,,,,,,
15737,,,,,,,9.159393,17.250952,-78.22264,
15741,,,,-0.18882838,-0.048491616,-0.10658454,,,,
15755,-0.7006779,0.3158437,12.101758,,,,,,,
15757,,,,,,,8.235046,17.83353,-77.7881,
15761,,,,-0.18243681,-0.08897162,0.052672356,,,,
15771,,,,,,,,,,1116.0
15775,-0.06108506,0.04275915,12.767701,,,,,,,
15777,,,,,,,9.926001,18.020517,-76.819626,
15781,,,,0.08973802,-0.159279,0.20553765,,,,
15795,0.47550213,0.16971952,12.120922,,,,,,,
15797,,,,,,,7.160963,16.043646,-78.10362,
15801,,,,0.40718654,-0.22639062,0.25560507,,,,
15815,0.6192308,0.7949394,10.882459,,,,,,,
15817,,,,,,,9.316753,16.048534,-79.90723,
15821,,,,0.4583192,-0.22692324,0.16825344,,,,
15835,0.32937795,1.3842272,10.769872,,,,,,,
15837,,,,,,,8.239086,15.753588,-78.84726,
15841,,,,0.1813507,-0.081514776,0.059063938,,,,
15855,-0.22876856,1.2381029,11.191476,,,,,,,
15857,,,,,,,9.00518,17.398344,-78.073425,
15861,,,,-0.089226246,0.19225796,0.028171293,,,,
15875,-0.50664407,0.6152785,11.239386,,,,,,,
15877,,,,,,,7.9292526,17.080235,-78.56081,
15881,,,,-0.2277105,0.33500323,0.013257603,,,,
15896,-0.5880903,0.20086074,11.414255,,,,,,,
15897,,,,,,,9.006508,16.801758,-78.53078,
15902,,,,-0.3949569,0.25084743,-0.083681375,,,,
15916,-0.9210619,-0.5225737,12.082594,,,,,,,
15917,,,,,,,9.008963,15.755997,-79.447205,
15922,,,,-0.54302853,0.20717163,-0.1944688,,,,
15936,-1.8385302,-0.9130367,12.600017,,,,,,,
15937,,,,,,,8.3908615,15.638628,-76.830215,
15942,,,,-0.44395903,0.30357796,-0.1678372,,,,
15956,-2.118801,-0.7764945,12.226323,,,,,,,
15957,,,,,,,9.159586,16.235304,-77.12755,
15962,,,,-0.12491258,0.22421585,-0.0011234536,,,,
15976,-1.3330841,-0.40279987,10.8968315,,,,,,,
15977,,,,,,,9.468475,16.223759,-78.203064,
15982,,,,0.19892754,-0.04103477,0.21725556,,,,
15996,-0.20720926,-0.20157966,9.306233,,,,,,,
15997,,,,,,,10.23752,16.960896,-78.96629,
16002,,,,0.30651912,-0.26740324,0.3195209,,,,
16016,0.60964894,-0.14648366,8.525309,,,,,,,
16017,,,,,,,9.00518,17.398344,-78.073425,
16022,,,,0.1414033,-0.33185172,0.20766819,,,,1046.0
16036,0.7749369,-0.23751184,8.822348,,,,,,,
16037,,,,,,,10.388491,17.43557,-76.9561,
16042,,,,-0.08123677,-0.17206217,0.02444287,,,,
16056,0.44915187,-0.25428018,9.140945,,,,,,,
16057,,,,,,,9.160721,16.654367,-78.68001,
16062,,,,-0.13982625,0.09372107,-0.0890077,,,,
16076,-0.23355952,-0.16564748,9.131364,,,,,,,
16077,,,,,,,9.314877,16.797163,-79.14212,
16082,,,,-0.070051506,0.2689569,-0.11404139,,,,
16096,-0.8108699,-0.09617859,8.712155,,,,,,,
16097,,,,,,,9.314877,16.797163,-79.14212,
16102,,,,0.05937801,0.24126007,-0.06077821,,,,
16116,-0.6647457,0.13378733,8.000699,,,,,,,
16117,,,,,,,11.006697,16.972569,-78.947296,
16122,,,,0.16750227,5.105081E-4,0.04628077,,,,
16137,-0.04192123,0.41166285,7.5287895,,,,11.006697,16.972569,-78.947296,
16143,,,,0.18081805,-0.16833375,0.082499735,,,,
16157,0.11378488,0.667979,7.5479527,,,,10.696077,17.875515,-77.41783,
16163,,,,0.12755488,-0.094297945,0.04468288,,,,
16177,-0.04910767,0.7518208,7.916857,,,,10.696562,17.14542,-76.94508,
16183,,,,0.08973802,0.04365368,0.026040766,,,,
16197,-0.2575143,0.8859676,8.163591,,,,10.695467,17.449503,-76.329575,
16203,,,,0.11636961,0.104906335,0.050009195,,,,
16217,-0.07545793,1.0416737,8.168382,,,,11.163786,14.471264,-78.75966,
16223,,,,0.18774228,0.0841337,0.09741342,,,,
16237,0.38447392,1.3123628,8.086936,,,,12.23411,16.890162,-75.820526,
16243,,,,0.2250265,-0.043165296,0.069716565,,,,
16257,0.6527675,1.6213795,8.393557,,,,10.084246,15.793184,-78.028,
16263,,,,0.156317,-0.16140953,-0.04266873,,,,
16272,,,,,,,,,,953.0
16277,0.655163,1.5399333,8.795997,,,,11.004728,17.288233,-77.558136,
16283,,,,0.0726938,-0.12519057,-0.14653192,,,,
16297,0.029943138,1.4057864,9.243952,,,,11.772665,17.461212,-76.61244,
16303,,,,-0.027440967,-0.010674759,-0.22429617,,,,
16317,-0.39645207,1.0895833,10.362639,,,,10.083151,16.097267,-77.41249,
16323,,,,-0.121184155,0.021815779,-0.17902248,,,,
16337,-0.21679117,0.81649864,11.205849,,,,11.159079,16.415379,-76.925125,
16343,,,,-0.073779926,-0.050622143,-0.09486665,,,,
16357,,,,,,,10.389818,16.838984,-77.41345,
16358,-0.180859,0.86440825,11.277713,,,,,,,
16364,,,,0.06790012,-0.088438995,-0.07835506,,,,
16373,,,,,,,,,,866.0
16377,,,,,,,11.312284,17.005032,-77.08292,
16378,-0.2694917,0.8500354,11.244176,,,,,,,
16384,,,,0.16057804,-0.044763193,-0.11137823,,,,
16397,,,,,,,12.234175,17.468216,-76.60104,
16398,-0.5952768,1.1494702,11.646617,,,,,,,
16404,,,,0.15365383,-0.08311268,-0.14812984,,,,
16417,,,,,,,12.852484,15.556604,-76.87305,
16418,-0.26470074,1.2572668,12.202368,,,,,,,
16424,,,,0.13980542,-0.23970641,-0.1310856,,,,
16437,,,,,,,11.469698,15.51243,-78.454575,
16438,0.6719314,0.99136865,11.7616,,,,,,,
16444,,,,0.15684964,-0.3419717,-0.14227088,,,,
16457,,,,,,,11.313501,16.98882,-78.16603,
16458,0.87794244,0.6104876,11.344787,,,,,,,
16464,,,,0.021561153,-0.2077485,-0.27702668,,,,
16473,,,,,,,,,,776.0
16477,,,,,,,11.006292,17.267385,-78.950714,
16478,0.22637233,-0.055455476,12.075408,,,,,,,
16484,,,,-0.22717786,0.027142096,-0.38568357,,,,
16497,,,,,,,12.235132,17.889597,-77.99878,
16498,-0.46352547,-0.57287884,13.263565,,,,,,,
16504,,,,-0.29588735,0.18054006,-0.38834673,,,,
16517,,,,,,,11.6163845,19.372879,-76.79323,
16518,-0.9282483,-0.7213985,13.354593,,,,,,,
16523,,,,,,,,,,721.0
16524,,,,0.003984306,0.2636306,-0.27649406,,,,
16537,,,,,,,11.617392,18.635834,-76.78467,
16538,-0.65276825,-0.18241584,11.409464,,,,,,,
16544,,,,0.45246023,0.27215272,-0.084746644,,,,
16557,,,,,,,12.84865,17.489136,-75.81218,
16558,0.075457215,0.4715498,9.131364,,,,,,,
16564,,,,0.6042603,0.26469585,0.05959657,,,,
16577,,,,,,,12.387186,19.07352,-77.85394,
16579,0.7509821,0.8021258,7.916857,,,,,,,
16585,,,,0.40505603,0.2503148,0.09155447,,,,
16597,,,,,,,12.695463,18.635962,-77.84122,
16599,1.2228913,0.8835721,7.7611504,,,,,,,
16605,,,,0.015169572,0.18693163,-0.018700302,,,,
16617,,,,,,,12.697138,18.034744,-78.60803,
16619,1.0647899,0.56976444,7.8761334,,,,,,,
16623,,,,,,,,,,638.0
16625,,,,-0.38483688,0.1528432,-0.25092775,,,,
16637,,,,,,,13.00178,19.382309,-77.5327,
16639,0.08743459,0.29667988,8.467817,,,,,,,
16645,,,,-0.662338,0.24392323,-0.42083725,,,,
16657,,,,,,,12.694403,19.663193,-78.16266,
16659,-0.8635704,0.15774211,9.385284,,,,,,,
16665,,,,-0.6889696,0.3477864,-0.3563888,,,,
16674,,,,,,,,,,569.0
16677,,,,,,,15.922697,19.742332,-76.071335,
16679,-1.4001575,0.18409237,9.744607,,,,,,,
16685,,,,-0.4535464,0.26789165,-0.17742456,,,,
16697,,,,,,,14.694082,18.827618,-76.86513,
16699,-1.3929712,0.43561763,9.411634,,,,,,,
16705,,,,-0.096150465,0.0255442,0.032432348,,,,
16717,,,,,,,14.538519,19.716688,-76.41499,
16719,-0.42280233,0.7518208,8.51333,,,,,,,
16724,,,,,,,,,,496.0
16725,,,,0.16643701,-0.22159693,0.18849345,,,,
16737,,,,,,,13.308882,20.552353,-78.46719,
16739,0.600067,1.0752103,7.7324047,,,,,,,
16745,,,,0.18188332,-0.23491272,0.15120922,,,,
16757,,,,,,,12.385721,20.395569,-78.17882,
16759,0.1880447,1.2428938,7.9192524,,,,,,,
16765,,,,0.06683486,-0.02345792,0.011127076,,,,
16774,,,,,,,,,,446.0
16777,,,,,,,13.463289,19.389313,-77.5213,
16779,-0.33656508,1.3578769,8.223478,,,,,,,
16785,,,,0.06630222,0.04684947,0.024975501,,,,
16797,,,,,,,13.460882,22.026463,-78.635254,
16799,-0.113785595,1.7746902,7.9599752,,,,,,,
16805,,,,0.075889595,-0.08204742,0.113925,,,,
16817,,,,,,,13.30958,20.543087,-79.086136,
16820,0.38926488,1.8513454,8.503749,,,,,,,
16824,,,,,,,,,,398.0
16826,,,,0.022093786,-0.11560321,0.14321975,,,,
16837,,,,,,,13.922487,20.584854,-76.90466,
16840,0.6407901,1.7914585,9.152924,,,,,,,
16846,,,,0.009843254,-0.113472685,0.09528289,,,,
16857,,,,,,,13.922293,21.600504,-77.99979,
16860,0.9090837,1.7363626,9.50985,,,,,,,
16866,,,,0.044996947,-0.0868411,-5.8190548E-5,,,,
16874,,,,,,,,,,349.0
16877,,,,,,,13.307608,20.858753,-77.69696,
16880,0.49945688,1.3435041,10.075183,,,,,,,
16886,,,,-0.005070434,-0.0852432,-0.17156562,,,,
16897,,,,,,,14.386221,19.8386,-77.96785,
16900,-0.53299433,0.64402425,11.004629,,,,,,,
16906,,,,-0.053539924,-0.10974426,-0.25998247,,,,
16917,,,,,,,14.538885,21.448536,-78.91127,
16920,-0.9210619,0.39489448,11.246572,,,,,,,
16924,,,,,,,,,,303.0
16926,,,,0.04286642,-0.16354007,-0.1342814,,,,
16937,,,,,,,13.30876,20.264484,-77.99957,
16940,-0.64797735,0.5314368,11.102843,,,,,,,
16946,,,,0.2117107,-0.12146217,0.08889131,,,,
16957,,,,,,,15.615469,21.034231,-78.105865,
16960,-0.12815847,0.6104876,11.133984,,,,,,,
16966,,,,0.29373598,-0.098559,0.25347453,,,,
16974,,,,,,,,,,262.0
16977,,,,,,,13.46142,21.00618,-77.84961,
16980,0.09701651,0.91471326,11.304063,,,,,,,
16986,,,,0.33368334,-0.12412532,0.2545398,,,,
16997,,,,,,,15.155172,20.142773,-78.106995,
17000,0.027547628,1.5926337,10.839341,,,,,,,
17006,,,,0.4082518,-0.076721095,0.24441978,,,,
17017,,,,,,,14.846693,20.727741,-78.121445,
17020,0.25990906,1.8178087,9.747002,,,,,,,
17025,,,,,,,,,,233.0
17026,,,,0.3794897,0.047914732,0.24388714,,,,
17037,,,,,,,13.616594,21.28017,-79.39656,
17041,0.42759258,1.458487,8.908585,,,,,,,
17047,,,,0.06896538,0.14325583,0.12511027,,,,
17057,,,,,,,14.077631,21.003937,-78.60808,
17061,0.37010103,0.5817418,9.794911,,,,,,,
17067,,,,-0.5238538,0.1411253,-0.0655719,,,,
17075,,,,,,,,,,200.0
17077,,,,,,,15.001429,20.573402,-78.73488,
17081,-0.3701018,-0.74295783,12.592831,,,,,,,
17087,,,,-0.98031914,0.05004526,-0.24080774,,,,
17097,,,,,,,15.153231,23.06316,-79.99805,
17101,-1.4911858,-1.3011042,14.631383,,,,,,,
17107,,,,-0.8631402,-0.15874638,-0.2839509,,,,
17117,,,,,,,14.998903,22.92268,-79.38121,
17121,-1.9056035,-1.1406072,14.121146,,,,,,,
17125,,,,,,,,,,155.0
17127,,,,-0.24315682,-0.25888115,-0.10072559,,,,
17137,,,,,,,15.766981,23.238438,-78.74669,
17141,-1.1630051,-0.76212156,11.692131,,,,,,,
17147,,,,0.3986644,-0.13424532,0.20926608,,,,
17157,,,,,,,14.846098,22.038208,-79.219986,
17161,0.41801065,-0.35489032,9.586505,,,,,,,
17167,,,,0.47003707,-0.1608769,0.28703034,,,,
17175,,,,,,,,,,129.0
17177,,,,,,,14.537821,22.475765,-79.23273,
17181,1.0264621,-0.12731981,9.172088,,,,,,,
17187,,,,0.11530435,-0.21786849,0.0366934,,,,
17197,,,,,,,14.691034,23.93366,-80.4839,
17201,0.4874795,-0.3477039,9.512245,,,,,,,
17207,,,,-0.12544522,-0.12146217,-0.21470879,,,,
17217,,,,,,,14.539389,22.454918,-80.625336,
17221,-0.0682715,-0.15127462,8.855884,,,,,,,
17225,,,,,,,,,,113.0
17227,,,,-0.16166416,-0.033577926,-0.31218037,,,,
17237,,,,,,,13.770208,22.443245,-80.64433,
17241,-0.4946667,0.009222448,8.5396805,,,,,,,
17247,,,,-0.20427471,0.10703686,-0.29353827,,,,
17257,,,,,,,13.460287,23.33693,-79.733795,
17262,-0.88752514,0.08587776,8.6714325,,,,,,,
17268,,,,-0.20161155,0.22261797,-0.21364354,,,,
17275,,,,,,,,,,98.0
17277,,,,,,,14.68841,24.981739,-79.412766,
17282,-1.1103047,0.21044263,8.937331,,,,,,,
17288,,,,-0.073779926,0.24285798,-0.10445402,,,,
17297,,,,,,,15.766947,25.265102,-81.24638,
17302,-1.0480223,0.5410187,8.453444,,,,,,,
17308,,,,0.1781549,0.186399,0.019649185,,,,
17317,,,,,,,15.306536,24.954018,-81.87331,
17322,-1.016881,1.0823969,7.4305744,,,,,,,
17325,,,,,,,,,,86.0
17328,,,,0.32516125,0.14698425,0.113925,,,,
17337,,,,,,,14.538046,24.064838,-81.41783,
17342,-0.8132653,1.2309165,6.9179425,,,,,,,
17348,,,,0.29639915,0.19438848,0.21778819,,,,
17357,,,,,,,14.538183,23.339375,-80.635605,
17362,-0.2575143,1.4417187,6.8341002,,,,,,,
17368,,,,0.14832753,0.120352656,0.25400716,,,,
17377,,,,,,,14.54067,23.01676,-82.48898,
17382,0.34854174,1.6141931,7.4305744,,,,,,,
17388,,,,-0.062062036,-0.08204742,0.15600291,,,,
17397,,,,,,,16.077528,23.639008,-81.8389,
17402,0.47789764,1.5303513,8.542076,,,,,,,
17408,,,,-0.20853576,-0.15288743,-0.0069824033,,,,
17417,,,,,,,14.690897,24.659126,-81.26613,
17422,-0.07066698,1.3219447,9.651183,,,,,,,
17426,,,,,,,,,,76.0
17428,,,,-0.23356944,-0.043165296,-0.14546667,,,,
17437,,,,,,,16.231459,24.074305,-82.45917,
17442,-0.5593446,1.1973798,10.142256,,,,,,,
17448,,,,-0.065257825,0.1043737,-0.110845596,,,,
17457,,,,,,,15.922571,24.08585,-81.38364,
17462,-0.15450874,1.2261256,9.9602,,,,,,,
17468,,,,0.15684964,0.11715686,0.024975501,,,,
17476,,,,,,,,,,69.0
17477,,,,,,,15.771681,23.175896,-82.9245,
17482,0.47310662,1.2692441,9.423613,,,,,,,
17488,,,,0.17442648,-0.0735253,0.009529181,,,,
17497,,,,,,,15.15217,24.09039,-80.31949,
17503,0.5090388,1.2189391,10.094347,,,,,,,
17509,,,,0.014636941,-0.1709969,-0.12362876,,,,
17517,,,,,,,15.15217,24.09039,-80.31949,
17523,0.07066625,0.7997304,10.911205,,,,,,,
17529,,,,-0.06845361,-0.10335268,-0.23068775,,,,
17537,,,,,,,14.692251,23.917446,-81.56705,
17543,-0.5018531,0.19606978,11.383114,,,,,,,
17549,,,,-0.06365992,0.0069020893,-0.24293828,,,,
17557,,,,,,,16.231596,23.34884,-81.67694,
17563,-1.0096946,0.047550112,12.46108,,,,,,,
17569,,,,-0.004537802,0.007434721,-0.15665194,,,,
17576,,,,,,,,,,63.0
17577,,,,,,,13.769213,24.048532,-81.74629,
17583,-0.62162703,0.282307,13.3402195,,,,,,,
17589,,,,0.21117806,-0.18484534,0.007931286,,,,
17597,,,,,,,14.999735,24.937767,-82.65457,
17603,0.7605641,0.3709397,12.552108,,,,,,,
17609,,,,0.49826658,-0.393637,0.15387239,,,,
17617,,,,,,,13.769678,24.331768,-82.52339,
17623,2.0900548,0.90752685,11.172312,,,,,,,
17629,,,,0.5217024,-0.36061382,0.12244711,,,,
17637,,,,,,,15.15476,25.06898,-83.890335,
17643,2.6482012,0.82128966,10.017691,,,,,,,
17649,,,,0.28627914,0.018619988,-0.068235055,,,,
17657,,,,,,,13.924971,24.89363,-84.537964,
17663,1.6133543,0.23200196,9.806889,,,,,,,
17669,,,,-0.072714664,0.38507062,-0.37662882,,,,
17677,,,,,,,15.768862,25.239624,-82.948456,
17683,-0.36531085,-0.21355706,10.863295,,,,,,,
17689,,,,-0.3864348,0.41383272,-0.6227047,,,,
17697,,,,,,,12.690062,26.088968,-82.26106,
17703,-1.5247225,-0.5465286,11.867001,,,,,,,
17709,,,,-0.35447687,0.22474849,-0.5758331,,,,
17717,,,,,,,13.9236965,25.200027,-83.767715,
17724,-1.6109596,-0.27344403,11.409464,,,,,,,
17727,,,,,,,,,,58.0
17730,,,,0.035409577,0.081470534,-0.30898458,,,,
17737,,,,,,,15.000605,24.926186,-83.42824,
17744,-0.81566083,0.37573066,9.476313,,,,,,,
17750,,,,0.41624126,0.047914732,-0.022428725,,,,
17757,,,,,,,15.615168,25.380066,-83.26344,
17764,0.21679044,0.8356626,7.327569,,,,,,,
17770,,,,0.39067495,0.005836825,0.0702492,,,,
17777,,,,,,,13.619349,24.138016,-85.46539,
17784,0.99532104,0.9722048,7.0520887,,,,,,,
17790,,,,-0.08549783,-0.023990551,-0.025624514,,,,
17797,,,,,,,13.309515,25.46466,-85.17894,
17804,1.1749818,0.49790007,8.331275,,,,,,,
17810,,,,-0.6032159,-0.019196866,-0.26317826,,,,
17817,,,,,,,14.847086,25.06431,-83.897934,
17824,0.08503914,0.27991152,9.639206,,,,,,,
17830,,,,-0.7667338,0.16775689,-0.496471,,,,
17837,,,,,,,12.845224,25.494717,-82.7146,
17844,-0.94022566,0.27751604,9.984155,,,,,,,
17850,,,,-0.57019275,0.38560328,-0.47090462,,,,
17857,,,,,,,13.920473,27.558573,-83.79512,
17864,-1.3785982,0.35656685,9.627228,,,,,,,
17870,,,,-0.24209155,0.35311273,-0.27702668,,,,
17877,,,,,,,13.923559,25.925491,-84.54994,
17884,-1.2588243,0.5961147,9.0068,,,,,,,
17890,,,,0.008777991,0.042055782,-0.10232349,,,,
17897,,,,,,,14.535379,27.139582,-82.846375,
17904,-0.5401808,0.81410325,8.503749,,,,,,,
17910,,,,0.11477171,-0.26900116,-0.019765563,,,,
17917,,,,,,,13.460962,27.090813,-85.039246,
17924,-0.034734815,1.1398883,7.9575796,,,,,,,
17930,,,,0.08281381,-0.30894855,-0.02189609,,,,
17937,,,,,,,12.075567,27.081383,-84.299774,
17945,-0.14013585,1.2524759,7.9911165,,,,,,,
17951,,,,-0.01252728,-0.03464319,-0.008047667,,,,
17957,,,,,,,14.689707,27.28006,-83.46323,
17965,-0.13055395,1.3458996,8.551659,,,,,,,
17971,,,,-0.046615712,0.15870215,0.08569552,,,,
17977,,,,,,,12.998648,27.673443,-85.05748,
17985,0.3772875,1.4465095,9.203229,,,,,,,
17991,,,,-0.01572307,0.019152619,0.11978395,,,,
17997,,,,,,,12.38376,27.079102,-84.75636,
18005,0.79410076,1.4632779,9.823658,,,,,,,
18011,,,,0.05405169,-0.31587276,0.010594444,,,,
18017,,,,,,,12.227461,27.254288,-82.75035,
18025,1.1653999,1.5135831,10.003319,,,,,,,
18027,,,,,,,,,,61.0
18031,,,,0.16270858,-0.44157386,-0.13481404,,,,
18037,,,,,,,12.074762,27.671017,-84.30661,
18045,0.6695359,1.623775,9.605669,,,,,,,
18051,,,,0.23887493,-0.16354007,-0.272233,,,,
18057,,,,,,,11.151636,28.237381,-84.9552,
18065,-0.24074596,1.5183738,9.452359,,,,,,,
18071,,,,0.21224333,0.20610636,-0.26637405,,,,
18077,,,,,,,12.076902,27.353037,-85.850525,
18085,-0.5090395,1.228521,10.204539,,,,,,,
18091,,,,0.08494433,0.22421585,-0.1342814,,,,
18097,,,,,,,11.4617405,28.209623,-87.11386,
18105,-0.029943839,0.8811766,11.160335,,,,,,,
18111,,,,0.08281381,0.018619988,-0.024559248,,,,
18117,,,,,,,11.613676,29.105677,-86.5014,
18125,0.3772875,0.6607926,11.366345,,,,,,,
18131,,,,0.21011281,-0.14330006,-0.016569776,,,,
18137,,,,,,,11.772581,26.145931,-87.391754,
18145,-0.056294113,0.7590072,11.634639,,,,,,,
18151,,,,0.3294223,-0.15714848,-0.064506635,,,,
18157,,,,,,,12.695169,26.59985,-87.528824,
18165,-0.2694917,0.76858914,10.894437,,,,,,,
18171,,,,0.42103496,-0.10122215,-0.040538203,,,,
18177,,,,,,,10.3867855,26.43132,-86.655716,
18178,,,,,,,,,,67.0
18186,-0.029943839,1.1327019,10.326708,,,,,,,
18192,,,,0.30172545,-0.018131604,0.03030182,,,,
18197,,,,,,,10.231569,27.315756,-86.51506,
18206,0.3820784,1.3003854,10.379409,,,,,,,
18212,,,,0.034876946,0.11023265,0.046813406,,,,
18217,,,,,,,10.081137,25.8208,-87.73959,
18226,0.68869966,0.7614027,10.621352,,,,,,,
18232,,,,-0.20800312,0.23540112,-0.06930032,,,,
18237,,,,,,,9.309429,25.408594,-84.96826,
18246,0.46352476,0.22481552,11.567566,,,,,,,
18252,,,,-0.3997506,0.1832032,-0.2860814,,,,
18257,,,,,,,10.231276,27.030205,-85.8927,
18266,-0.034734815,-0.45310488,12.238299,,,,,,,
18272,,,,-0.46792743,0.0591,-0.46131727,,,,
18277,,,,,,,11.156584,26.869007,-87.72499,
18278,,,,,,,,,,71.0
18286,-0.9977172,-0.9058503,12.707814,,,,,,,
18292,,,,-0.3997506,0.05963263,-0.49593836,,,,
18297,,,,,,,11.153612,28.789957,-87.437775,
18306,-1.8696713,-1.0352061,12.221532,,,,,,,
18312,,,,-0.111596785,0.16083267,-0.34360564,,,,
18317,,,,,,,9.923197,27.320353,-85.90372,
18326,-1.9271629,-0.57287884,10.872877,,,,,,,
18332,,,,0.22129808,0.25830427,-0.030418199,,,,
18337,,,,,,,10.998991,28.363926,-86.19858,
18346,-0.8827342,-0.15127462,9.55776,,,,,,,
18352,,,,0.34540123,0.19385585,0.2145924,,,,
18357,,,,,,,12.0756855,27.369251,-84.767395,
18366,0.051502436,0.047550112,8.882235,,,,,,,
18372,,,,0.29586652,0.0356642,0.21192923,,,,
18377,,,,,,,12.384924,27.353073,-86.15239,
18378,,,,,,,,,,76.0
18386,0.4132197,0.15055569,8.446258,,,,,,,
18392,,,,0.17762226,-0.17845374,0.039889194,,,,
18397,,,,,,,9.923334,26.594889,-85.12149,
18406,0.45394284,0.09066872,7.9743485,,,,,,,
18412,,,,-0.010396751,-0.30841592,-0.17689195,,,,
18417,,,,,,,9.000851,27.442173,-86.70189,
18427,-0.010780022,0.08348228,8.386371,,,,,,,
18433,,,,-0.27032104,-0.15821375,-0.30685407,,,,
18437,,,,,,,8.386541,26.550695,-86.55209,
18447,-0.5545536,-0.050664514,9.236765,,,,,,,
18453,,,,-0.40560952,0.110765286,-0.26690668,,,,
18457,,,,,,,9.001097,26.136337,-85.293884,
18467,-0.8731523,-0.055455476,9.588901,,,,,,,
18473,,,,-0.31879053,0.1730832,-0.17050035,,,,
18477,,,,,,,9.618666,25.392418,-86.35326,
18487,-0.6647457,0.17451046,9.169692,,,,,,,
18493,,,,-0.107335724,0.007967353,-0.04906031,,,,
18497,,,,,,,9.308577,27.156656,-86.38139,
18507,0.16169444,0.49071363,8.175569,,,,,,,
18513,,,,0.044996947,-0.1459632,0.042552352,,,,
18517,,,,,,,11.309885,26.01005,-86.16359,
18527,0.5617394,0.9171088,7.7324047,,,,,,,
18533,,,,0.043399055,-0.10015689,0.027638663,,,,
18537,,,,,,,9.155712,25.69413,-85.43968,
18547,0.34135532,1.2189391,8.151613,,,,,,,
18553,,,,2.5588367E-4,0.044186313,-0.018700302,,,,
18557,,,,,,,8.078787,26.981306,-87.02902,
18567,0.31740057,1.2357074,8.345648,,,,,,,
18573,,,,0.051388532,0.030337887,-0.020830829,,,,
18577,,,,,,,9.615444,27.750961,-86.380646,
18587,0.6264173,1.1422838,8.146823,,,,,,,
18593,,,,0.13341384,-0.1406369,-0.058115046,,,,
18597,,,,,,,7.6160336,27.135609,-86.11372,
18607,0.7797278,1.1374928,8.194733,,,,,,,
18613,,,,0.12329382,-0.28498012,-0.17582668,,,,
18617,,,,,,,7.7698975,26.992851,-85.95349,
18627,1.0168803,1.0560466,8.484585,,,,,,,
18633,,,,0.027952734,-0.28284958,-0.2860814,,,,
18637,,,,,,,8.078054,26.267424,-85.47313,
18648,1.26601,0.95064545,9.126573,,,,,,,
18654,,,,-0.13822837,-0.21360745,-0.419772,,,,
18657,,,,,,,6.69602,25.923798,-87.3607,
18668,1.2181005,0.4955046,9.945827,,,,,,,
18674,,,,-0.24209155,-0.046361085,-0.53801626,,,,
18677,,,,,,,7.77071,27.271454,-87.04004,
18688,0.7749369,0.07869133,11.021397,,,,,,,
18694,,,,-0.23996103,0.11662423,-0.6099215,,,,
18697,,,,,,,6.693741,26.967243,-86.599014,
18708,0.23834974,-0.11294696,11.658594,,,,,,,
18714,,,,-0.10254204,0.13313583,-0.6365531,,,,
18717,,,,,,,6.69602,25.923798,-87.3607,
18728,0.42998803,-0.060246438,11.622662,,,,,,,
18734,,,,0.09985802,0.014358934,-0.5689089,,,,
18737,,,,,,,6.846733,26.836067,-85.6651,
18748,1.4576483,-0.25907114,11.126798,,,,,,,
18754,,,,0.23780966,-0.06873162,-0.5055257,,,,
18757,,,,,,,5.4654408,25.324749,-86.765305,
18768,1.3354789,-0.13450626,11.328018,,,,,,,
18774,,,,0.20691702,-0.034110557,-0.5960731,,,,
18777,,,,,,,4.3864822,26.349537,-86.18495,
18788,1.1989366,0.20565169,12.267046,,,,,,,
18794,,,,0.19413385,-0.048491616,-0.61631316,,,,
18797,,,,,,,4.69713,25.301495,-87.55797,
18808,2.281693,0.35177588,12.233509,,,,,,,
18814,,,,0.3294223,-0.20082428,-0.5689089,,,,
18817,,,,,,,4.6970673,24.723442,-86.777466,
18828,3.6447203,0.43082666,11.71369,,,,,,,
18830,,,,,,,,,,70.0
18834,,,,0.44234022,-0.33451486,-0.6669131,,,,
18837,,,,,,,6.391306,23.129938,-86.5621,
18848,4.569375,-0.13211077,10.79143,,,,,,,
18854,,,,0.394936,-0.37446225,-0.9870248,,,,
18857,,,,,,,3.4675312,24.110497,-87.11047,
18869,3.9848778,-1.0399971,10.125488,,,,,,,
18875,,,,0.09826013,-0.18697587,-1.4967535,,,,
18877,,,,,,,2.08329,23.506796,-86.67363,
18889,1.6708459,-1.5789797,11.392695,,,,,,,
18895,,,,-0.31399685,0.12674426,-1.901021,,,,
18897,,,,,,,2.237568,23.937462,-87.60336,
18909,0.03233859,-1.9263242,12.616786,,,,,,,
18915,,,,-0.36939058,0.29452324,-1.8450947,,,,
18917,,,,,,,2.237568,23.937462,-87.60336,
18929,-0.00598906,-1.5885618,12.394006,,,,,,,
18930,,,,,,,,,,63.0
18935,,,,-0.03063676,0.25883693,-1.5430925,,,,
18937,,,,,,,0.39058113,24.356304,-87.34462,
18949,1.1725863,-1.0543699,10.530324,,,,,,,
18955,,,,0.3177044,0.042588413,-1.3534755,,,,
18957,,,,,,,2.3897438,23.52768,-85.582886,
18969,1.9559078,-0.67109346,8.944517,,,,,,,
18975,,,,0.30012757,-0.14702848,-1.4131303,,,,
18977,,,,,,,1.3143654,23.05753,-86.37802,
18989,1.8696704,-0.39082244,8.570823,,,,,,,
18995,,,,0.02955063,-0.13318005,-1.5223197,,,,
18997,,,,,,,-0.84015274,22.74624,-85.34465,
19009,1.6468911,-0.43873206,8.834325,,,,,,,
19015,,,,-0.14781573,0.09212317,-1.5542778,,,,
19017,,,,,,,-2.221838,22.397984,-87.54169,
19029,1.325897,-0.28781685,8.867862,,,,,,,
19035,,,,-0.15793574,0.2689569,-1.5782461,,,,
19037,,,,,,,-1.3005733,21.566914,-84.87816,
19049,1.0599989,-0.26146665,8.544472,,,,,,,
19055,,,,-0.13609785,0.166159,-1.6671956,,,,
19057,,,,,,,-2.3777351,22.27835,-85.53224,
19069,0.5305981,-0.26625755,8.463026,,,,,,,
19075,,,,-0.19894838,-0.12572321,-1.7960925,,,,
19077,,,,,,,0.39237595,21.293142,-85.14241,
19089,0.32937795,-0.26865306,9.004404,,,,,,,
19095,,,,-0.2692558,-0.30841592,-1.8418988,,,,
19097,,,,,,,-1.7638931,22.88659,-84.90497,
19110,0.21679044,-0.498619,9.406844,,,,,,,
19116,,,,-0.22025365,-0.24503271,-1.820061,,,,
19117,,,,,,,-2.9935112,22.708923,-85.707306,
19130,-0.17606804,-0.5058055,9.529014,,,,,,,
19136,,,,-0.08176941,-0.15555058,-1.7348399,,,,
19137,,,,,,,-3.299059,20.649792,-85.07201,
19150,-0.13774037,-0.27104858,9.495477,,,,,,,
19156,,,,0.10944539,-0.14489795,-1.5265808,,,,
19157,,,,,,,-3.3009892,21.688606,-84.6198,
19170,0.5473665,0.06671393,8.721737,,,,,,,
19176,,,,0.24473387,-0.23224956,-1.4062061,,,,
19177,,,,,,,-3.454607,20.525528,-83.372025,
19190,0.6719314,0.43082666,8.283365,,,,,,,
19196,,,,0.22662438,-0.27166432,-1.4823724,,,,
19197,,,,,,,-5.6088524,21.513126,-84.21088,
19210,0.55215746,0.5721599,8.554054,,,,,,,
19216,,,,0.14779489,-0.28498012,-1.5681261,,,,
19217,,,,,,,-4.2219734,19.187172,-83.375626,
19230,0.52820265,0.56976444,9.052314,,,,,,,
19231,,,,,,,,,,58.0
19236,,,,0.092401184,-0.3148075,-1.6070082,,,,
19237,,,,,,,-5.2976074,19.154617,-84.48535,
19250,0.10899392,0.5721599,9.01159,,,,,,,
19256,,,,0.0977275,-0.2109443,-1.6048777,,,,
19257,,,,,,,-4.3716908,16.66962,-83.96924,
19270,-0.17127708,0.67277,8.982845,,,,,,,
19276,,,,0.095064335,-0.08471057,-1.513265,,,,
19277,,,,,,,-4.83523,19.15004,-85.24762,
19290,-0.09701724,0.5002955,9.426008,,,,,,,
19296,,,,0.061508533,-0.086308464,-1.4269787,,,,
19297,,,,,,,-6.372594,17.521408,-84.18364,
19310,0.09222555,0.282307,9.799703,,,,,,,
19316,,,,0.05511695,-0.23917377,-1.4259135,,,,
19317,,,,,,,-6.988285,17.516703,-83.88937,
19331,0.45394284,0.17451046,10.056019,,,,,,,
19337,,,,0.030615892,-0.46287912,-1.4530777,-6.5294876,19.007061,-83.27615,
19351,0.5305981,0.12660089,10.465646,,,,,,,
19357,,,,-0.034897815,-0.53212124,-1.5324398,-8.372728,17.060413,-83.45424,
19371,-0.42998877,0.10264611,11.198662,,,,,,,
19377,,,,-0.05407256,-0.32226434,-1.5633324,-7.448494,17.058207,-84.51457,
19391,-1.3714119,0.32063466,11.522052,,,,,,,
19397,,,,0.101988554,0.0042389305,-1.3369639,-8.217591,16.611256,-84.064224,
19411,-0.846802,0.6200695,11.246572,,,,,,,
19417,,,,0.3209002,0.11555897,-1.0099281,-7.6001787,14.8563175,-83.719025,
19431,0.099411994,0.8452444,10.939951,,,,,,,
19437,,,,0.37682652,0.012228407,-0.9422837,-8.831709,14.704128,-82.819305,
19451,0.5305981,0.90273595,10.880064,,,,,,,
19457,,,,0.2809528,-0.04423056,-1.0615933,-8.677498,14.55674,-82.96854,
19471,0.7342138,0.3493804,10.058414,,,,,,,
19477,,,,0.08973802,-0.010142127,-1.2591997,-9.754213,13.814934,-82.212906,
19491,-0.45394355,-0.13450626,9.979363,,,,,,,
19497,,,,-0.25807053,0.099047385,-1.4882313,-8.061376,14.121532,-83.10292,
19511,-2.003818,-0.5561105,11.4118595,,,,,,,
19517,,,,-0.46632954,0.18373585,-1.4775788,-9.137165,13.077961,-82.808075,
19531,-2.5619648,-0.62797487,12.271837,,,,,,,
19532,,,,,,,,,,61.0
19537,,,,-0.23516734,0.12301581,-1.2070017,-6.9831123,13.106012,-83.06435,
19552,-2.1715016,-0.19918418,11.265736,,,,,,,
19557,,,,,,,-7.4453716,13.3984585,-82.7697,
19558,,,,0.25858226,-0.11507058,-0.89328164,,,,
19572,-0.46112996,0.23439743,9.047523,,,,,,,
19577,,,,,,,-7.752349,13.384525,-83.39624,
19578,,,,0.51051706,-0.43624753,-0.7020668,,,,
19592,0.8971064,0.39010352,7.8857155,,,,,,,
19597,,,,,,,-8.982542,13.50399,-84.04727,
19598,,,,0.22289596,-0.53691494,-0.73935103,,,,
19612,0.88033795,0.21044263,8.268992,,,,,,,
19617,,,,,,,-8.674413,12.923658,-83.72337,
19618,,,,-0.28789788,-0.316938,-0.93163115,,,,
19632,-0.00598906,-0.019523293,9.366121,,,,,,,
19637,,,,,,,-8.365477,11.753687,-83.39261,
19638,,,,-0.58244324,0.031935785,-1.0333638,,,,
19652,-0.8779433,-0.18241584,10.408154,,,,,,,
19657,,,,,,,-9.751944,11.903248,-81.88118,
19658,,,,-0.6159991,0.18746427,-0.98436165,,,,
19672,-1.071977,-0.04108259,10.539906,,,,,,,
19677,,,,,,,-7.599702,13.25798,-82.15286,
19678,,,,-0.43277374,0.11982002,-0.84907323,,,,
19682,,,,,,,,,,67.0
19692,-0.9378302,0.4380131,9.481104,,,,,,,
19697,,,,,,,-8.982414,11.910288,-82.171646,
19698,,,,-0.23143892,-2.2123684E-5,-0.7723742,,,,
19712,-0.9833443,0.95304096,8.573217,,,,,,,
19717,,,,,,,-9.290837,12.2050705,-81.8732,
19718,,,,-0.21173154,0.055371575,-0.6882184,,,,
19732,-0.62402254,0.842849,8.764855,,,,,,,
19737,,,,,,,-9.29275,12.230549,-80.17113,
19738,,,,-0.37738004,0.07561159,-0.55346256,,,,
19752,-0.68870044,0.6536062,10.456064,,,,,,,
19757,,,,,,,-10.213414,12.6193905,-82.82953,
19758,,,,-0.49136323,-0.0735253,-0.47090462,,,,
19773,-0.846802,0.98418224,11.009419,,,,,,,
19777,,,,,,,-10.368349,12.921141,-82.217834,
19779,,,,-0.20001365,-0.30735064,-0.36863935,,,,
19782,,,,,,,,,,74.0
19793,-0.29584196,1.618984,9.23437,,,,,,,
19797,,,,,,,-9.138227,14.10519,-83.12952,
19799,,,,0.28148544,-0.30841592,-0.2179046,,,,
19813,0.6359992,2.0118425,7.6198173,,,,,,,
19817,,,,,,,-8.061183,13.105885,-82.00781,
19819,,,,0.3864139,-0.05594846,-0.15026036,,,,
19833,0.6120444,2.028611,7.718032,,,,,,,
19837,,,,,,,-10.062992,13.246105,-80.51158,
19839,,,,0.13447909,0.102775805,-0.2381446,,,,
19853,-0.291051,1.7507354,8.738506,,,,,,,
19857,,,,,,,-9.138227,14.10519,-83.12952,
19859,,,,-0.04501782,0.07827474,-0.3862162,,,,
19873,-1.2468469,1.4728599,9.193646,,,,,,,
19877,,,,,,,-8.985847,13.548,-81.107346,
19879,,,,-0.03063676,-0.08790636,-0.4554583,,,,
19893,-1.4863948,1.4153684,9.28228,,,,,,,
19897,,,,,,,-9.291707,12.216652,-81.09953,
19899,,,,-0.056735717,-0.20828113,-0.40272778,,,,
19913,-1.1031182,1.3938091,10.341081,,,,,,,
19917,,,,,,,-8.675631,12.939873,-82.64023,
19919,,,,-0.18456733,-0.124657944,-0.25678667,,,,
19933,-0.5904858,1.0776058,11.86221,,,,,,,
19937,,,,,,,-7.5996475,12.967796,-81.839966,
19939,,,,-0.15846837,0.0063694576,-0.094334014,,,,
19953,-0.4922712,1.0129279,12.267046,,,,,,,
19957,,,,,,,-8.677361,13.831276,-82.18631,
19959,,,,0.11051066,-0.038904242,-0.058115046,,,,
19973,-0.3916611,1.3794361,10.5997925,,,,,,,
19977,,,,,,,-9.749581,10.424524,-82.17352,
19979,,,,0.3549886,-0.14436533,-0.09113822,,,,
19983,,,,,,,,,,81.0
19993,-0.16648611,1.3794361,10.508765,,,,,,,
19997,,,,,,,-8.216145,13.552723,-81.55255,
19999,,,,0.21597175,-0.09536321,-0.038407672,,,,
20014,0.26949096,0.5434141,12.161645,,,,,,,
20017,,,,,,,-9.290975,12.930534,-82.655426,
20020,,,,0.018897995,-0.19070429,-0.011243457,,,,
20034,0.2215814,0.26314318,13.160559,,,,,,,
20037,,,,,,,-8.370769,13.126696,-80.31334,
20040,,,,0.17389384,-0.44849807,-0.10551928,,,,
20054,0.6144399,0.22960648,11.6298485,,,,,,,
20057,,,,,,,-8.214452,11.938175,-81.06952,
20060,,,,0.5126476,-0.62479913,-0.13694456,,,,
20074,1.54149,0.3038663,9.179274,,,,,,,
20077,,,,,,,-8.673616,11.465782,-82.62311,
20080,,,,0.39919704,-0.49004334,-0.11617191,,,,
20094,2.0086083,0.10504159,9.730234,,,,,,,
20097,,,,,,,-10.674959,11.88924,-81.90398,
20100,,,,-0.22238417,0.019152619,-0.16304351,,,,
20114,1.3594338,-1.0663474,12.195181,,,,,,,
20117,,,,,,,-10.369118,11.48411,-79.72496,
20120,,,,-0.6815128,0.3323401,-0.36331302,,,,
20134,-0.046712205,-1.6005391,13.955858,,,,,,,
20137,,,,,,,-8.677004,11.945068,-80.15251,
20140,,,,-0.54782224,0.19385585,-0.57157207,,,,
20154,-0.78691506,-1.2484037,13.249192,,,,,,,
20157,,,,,,,-9.446459,13.384323,-81.73596,
20160,,,,0.05351906,-0.10921163,-0.52470046,,,,
20174,-0.5497627,-0.46987328,10.5470915,,,,,,,
20177,,,,,,,-9.139656,13.400574,-80.9547,
20180,,,,0.60905397,-0.14702848,-0.2871467,,,,
20194,0.47550213,0.08827323,8.091726,,,,,,,
20197,,,,,,,-10.215446,12.357002,-80.65985,
20200,,,,0.639414,0.09478633,-0.07462664,,,,
20214,1.0576034,0.43561763,7.679704,,,,,,,
20217,,,,,,,-8.373259,13.4493065,-78.45996,
20220,,,,0.22822228,0.4079738,-0.07196348,,,,
20234,0.92824745,0.37812614,8.391161,,,,,,,
20237,,,,,,,-9.449644,13.716202,-79.26366,
20240,,,,-0.12810837,0.5160981,-0.21364354,,,,
20255,0.38447392,0.34458944,8.728924,,,,,,,
20257,,,,,,,-8.985545,11.951981,-79.386444,
20261,,,,-0.21918839,0.36642852,-0.3729004,,,,
20275,-0.48748025,0.5961147,8.776834,,,,,,,
20277,,,,,,,-8.371694,13.428461,-79.85257,
20281,,,,-0.189361,0.12567896,-0.44427305,,,,
20284,,,,,,,,,,88.0
20295,-0.71025974,0.507482,8.357625,,,,,,,
20297,,,,,,,-8.986139,13.262447,-80.484985,
20301,,,,-0.11745573,0.018087355,-0.3425404,,,,
20315,-0.69109595,0.5458096,8.455839,,,,,,,
20317,,,,,,,-8.986139,13.262447,-80.484985,
20321,,,,-0.10946626,-0.005881073,-0.23175302,,,,
20335,-0.8348246,0.60809207,9.191251,,,,,,,
20337,,,,,,,-7.4468,12.693842,-80.59488,
20341,,,,-0.08389993,-0.07246004,-0.17848983,,,,
20355,-1.071977,0.7637982,8.922957,,,,,,,
20357,,,,,,,-8.82976,12.651983,-82.02167,
20361,,,,0.092401184,-0.061274774,-0.07089822,,,,
20375,-0.7725422,0.95304096,8.230664,,,,,,,
20377,,,,,,,-8.677717,12.967667,-80.78343,
20381,,,,0.24313597,0.072948426,0.12990394,,,,
20384,,,,,,,,,,94.0
20395,0.18325374,0.9650184,8.633105,,,,,,,
20397,,,,,,,-9.291652,11.926464,-80.78664,
20401,,,,0.28468123,0.05004526,0.29235667,,,,
20415,0.7006771,1.1758205,9.0810585,,,,,,,
20417,,,,,,,-9.29275,12.230549,-80.17113,
20421,,,,0.36244547,-0.26420748,0.24708293,,,,
20435,0.6048579,1.5998201,8.302529,,,,,,,
20437,,,,,,,-8.833605,13.716276,-79.8674,
20441,,,,0.5009297,-0.41654015,0.097946055,,,,
20455,0.57371676,2.0477746,7.6557493,,,,,,,
20457,,,,,,,-8.985004,10.9317,-78.600784,
20461,,,,0.47802654,-0.15714848,0.058531303,,,,
20476,0.62881273,2.0621474,8.776834,,,,,,,
20477,,,,,,,-9.138346,11.067507,-79.225235,
20482,,,,0.25165805,0.14272319,0.051074456,,,,
20496,0.29584128,1.7722946,10.015296,,,,,,,
20497,,,,,,,-10.215446,12.357002,-80.65985,
20502,,,,0.20744964,0.2098348,-0.0069824033,,,,
20516,-0.51862144,2.0405881,9.723048,,,,,,,
20517,,,,,,,-9.44395,12.048374,-82.33949,
20522,,,,0.34220546,0.06282842,-0.046929784,,,,
20536,-0.39884752,1.9184189,9.799703,,,,,,,
20537,,,,,,,-8.368259,11.790747,-80.916855,
20542,,,,0.3427381,-0.11400532,0.028703924,,,,
20556,0.1449261,1.2764306,11.450188,,,,,,,
20557,,,,,,,-9.29287,11.942678,-79.70351,
20562,,,,0.19892754,-0.38777804,0.01219234,,,,
20576,0.13534415,0.6320469,12.128108,,,,,,,
20577,,,,,,,-9.908644,12.373253,-79.878586,
20582,,,,0.24100545,-0.54756755,-0.12362876,,,,
20596,-0.38926563,0.8763857,11.728063,,,,,,,
20597,,,,,,,-10.0618305,13.520077,-81.90761,
20602,,,,0.3661739,-0.30362222,-0.11883507,,,,
20616,-0.49945763,0.8045213,12.204762,,,,,,,
20617,,,,,,,-8.984226,13.236969,-82.18706,
20622,,,,0.3730981,0.176279,0.12244711,,,,
20636,-0.22397761,0.68235195,12.429938,,,,,,,
20637,,,,,,,-10.37007,11.930969,-79.42064,
20642,,,,0.34540123,0.35311273,0.30727035,,,,
20656,0.0083838105,1.1830069,11.869396,,,,,,,
20657,,,,,,,-9.139701,11.809185,-78.92433,
20662,,,,0.40878442,0.3206222,0.3083356,,,,
20676,0.57850766,1.1710294,11.064516,,,,,,,
20677,,,,,,,-8.210762,9.862865,-81.819214,
20682,,,,0.38108757,0.103841074,0.19275449,,,,
20697,0.6934907,0.8500354,10.312335,,,,-9.90772,12.071484,-80.339355,
20703,,,,0.18934016,-0.14330006,-0.054919258,,,,
20717,-0.14971778,0.6631881,10.338686,,,,-10.521654,11.030283,-80.342575,
20723,,,,-0.13343468,-0.095895834,-0.24826458,,,,
20737,-1.1198866,0.32063466,11.095656,,,,-10.9823475,11.301882,-81.44052,
20743,,,,-0.40933797,0.17361583,-0.20831722,,,,
20757,-1.7331291,0.25116578,11.596312,,,,-9.903645,10.714691,-82.33548,
20763,,,,-0.31452948,0.42874643,0.021779712,,,,
20777,-1.5247225,0.55778706,11.002233,,,,-11.135461,11.145191,-81.906815,
20783,,,,0.07748749,0.384538,0.2662577,,,,
20785,,,,,,,,,,104.0
20797,-0.28386456,0.68235195,9.0547085,,,,-8.981215,10.157595,-81.06796,
20803,,,,0.40186024,-0.095895834,0.31472722,,,,
20817,0.7677505,0.72547054,7.377874,,,,-9.750277,10.433788,-81.55458,
20823,,,,0.28148544,-0.5662097,0.08622815,,,,
20837,0.36770558,0.64402425,7.4449472,,,,-12.059008,10.269892,-80.37201,
20843,,,,-0.13769573,-0.4357149,-0.13055299,,,,
20857,0.03233859,0.337403,8.510936,,,,-11.601729,13.372486,-80.39656,
20863,,,,-0.4402306,-0.0032179141,-0.12256349,,,,
20877,-0.18804543,0.31823918,9.313421,,,,-11.444889,12.177017,-81.61693,
20883,,,,-0.4535464,0.26842427,-0.04586452,,,,
20897,-0.31261033,0.5817418,9.598483,,,,-10.9823475,11.301882,-81.44052,
20903,,,,-0.24741787,0.22261797,0.020714449,,,,
20917,0.09222555,0.81410325,8.934935,,,,-9.908781,13.098717,-80.66081,
20923,,,,0.048725374,-0.02026213,0.027106028,,,,
20937,,,,,,,-10.371691,12.2420025,-78.34094,
20938,0.20481306,1.1830069,7.2964277,,,,,,,
20944,,,,0.25751704,-0.030914765,-0.018700302,,,,
20957,,,,,,,-10.673485,11.435432,-82.6725,
20958,-0.07545793,1.3650633,6.211276,,,,,,,
20964,,,,0.12862015,0.17201795,-0.029352937,,,,
20977,,,,,,,-12.060674,11.739349,-80.69859,
20978,-0.8132653,1.5423288,7.361106,,,,,,,
20984,,,,-0.16432732,0.27801165,0.008463917,,,,
20997,,,,,,,-10.522058,11.3251,-80.34599,
20998,-0.82284725,1.7722946,8.63071,,,,,,,
21004,,,,-0.15207678,0.09958002,0.124577634,,,,
21017,,,,,,,-11.598817,11.74172,-80.99664,
21018,0.025152147,1.9926786,9.045127,,,,,,,
21024,,,,0.10838013,-0.15182216,0.18156922,,,,
21036,,,,,,,,,,111.0
21037,,,,,,,-11.598405,12.315144,-82.08664,
21038,0.49227053,2.0477746,8.5923815,,,,,,,
21044,,,,0.3043886,-0.2748601,0.08090183,,,,
21057,,,,,,,-11.598909,11.308758,-80.37259,
21058,0.08983007,2.3136725,7.892902,,,,,,,
21064,,,,0.28840965,-0.20561796,-0.04320136,,,,
21077,,,,,,,-11.753834,12.478746,-80.85428,
21078,-0.27188718,2.4789608,8.237851,,,,,,,
21084,,,,0.10411908,-0.043697927,-0.050658204,,,,
21097,,,,,,,-13.442625,10.960445,-82.11682,
21098,-0.2024183,2.1723394,9.545782,,,,,,,
21104,,,,-0.06472518,0.083601065,-0.016569776,,,,
21117,,,,,,,-10.980589,10.265387,-81.73799,
21118,-0.08264437,1.7363626,10.652493,,,,,,,
21124,,,,-0.05886624,0.077742115,-0.033613987,,,,
21137,,,,,,,-11.599971,12.335991,-80.694046,
21138,-0.07785343,1.5543061,10.963904,,,,,,,
21144,,,,0.02688747,-0.07565583,-0.08048559,,,,
21157,,,,,,,-15.751604,12.102385,-82.342255,
21159,-0.073062465,1.4273458,11.107634,,,,,,,
21165,,,,0.059910636,-0.23331481,-0.08634454,,,,
21177,,,,,,,-13.287755,10.080645,-81.94801,
21179,-0.16409063,1.3123628,11.680154,,,,,,,
21185,,,,0.022626417,-0.30202433,-0.08634454,,,,
21197,,,,,,,-12.82893,11.425911,-81.17836,
21199,-0.73181903,1.4297413,12.377238,,,,,,,
21205,,,,0.034876946,-0.23544535,-0.08421401,,,,
21217,,,,,,,-13.599062,11.861095,-80.89302,
21219,-0.291051,1.4249502,12.360469,,,,,,,
21225,,,,0.13820751,-0.14809375,0.02391024,,,,
21237,,,,,,,-14.057777,9.935459,-81.036896,
21239,0.86836064,1.3099674,11.500493,,,,,,,
21245,,,,0.16750227,-0.10601584,0.096880786,,,,
21257,,,,,,,-14.82649,10.207022,-81.83298,
21259,1.5917951,1.1494702,11.095656,,,,,,,
21265,,,,-0.03170202,-0.07459057,-0.01177609,,,,
21277,,,,,,,-13.901827,9.764904,-82.73346,
21279,1.5774223,0.45238596,11.215431,,,,,,,
21285,,,,-0.3315737,0.013826301,-0.22589406,,,,
21297,,,,,,,-14.826555,9.628967,-81.052475,
21299,0.11618033,-0.08420122,12.482639,,,,,,,
21305,,,,-0.49988532,0.1949211,-0.43415305,,,,
21317,,,,,,,-13.599273,11.1402645,-79.80133,
21319,-1.1965418,-0.43394104,12.988085,,,,,,,
21325,,,,-0.30654,0.20450848,-0.38834673,,,,
21337,,,,,,,-14.517876,8.896591,-81.036316,
21339,-1.1127001,-0.26625755,11.663384,,,,,,,
21345,,,,0.15045805,0.06868737,-0.09646454,,,,
21357,,,,,,,-15.134575,9.628931,-80.75061,
21359,-0.085039854,0.43322214,9.265511,,,,,,,
21365,,,,0.42210022,-0.010674759,0.19488502,,,,
21377,,,,,,,-14.365825,10.080515,-80.89148,
21380,1.1701909,0.8787811,7.691682,,,,,,,
21386,,,,0.22875491,0.1443211,0.26998612,,,,
21397,,,,,,,-14.670064,8.438133,-81.96338,
21400,1.486394,1.118329,8.525309,,,,,,,
21406,,,,-0.21865577,0.35524327,0.1389587,,,,
21417,,,,,,,-14.824989,9.60812,-82.44507,
21420,1.1534225,0.8332671,9.88594,,,,,,,
21426,,,,-0.38963056,0.30198008,-0.02775504,,,,
21437,,,,,,,-15.440517,8.732859,-81.21214,
21440,0.5809032,0.82368517,9.679929,,,,,,,
21446,,,,-0.16592522,0.02501157,-0.16357616,,,,
21457,,,,,,,-14.6717205,10.775831,-83.38336,
21460,0.24553618,1.1398883,7.9456024,,,,,,,
21466,,,,0.05405169,-0.08417794,-0.23175302,,,,
21477,,,,,,,-16.055046,9.002123,-82.31389,
21480,-0.18564996,1.3147583,7.1814446,,,,,,,
21486,,,,-0.059398875,0.10703686,-0.22056775,,,,
21497,,,,,,,-13.136464,10.695778,-80.40373,
21500,-0.49945763,1.2452893,7.612631,,,,,,,
21506,,,,-0.23250419,0.2971864,-0.15026036,,,,
21517,,,,,,,-14.673552,10.366032,-81.211975,
21520,-0.57132196,1.2476848,8.221083,,,,,,,
21526,,,,-0.25327685,0.27960953,-0.11031297,,,,
21537,,,,,,,-15.44125,10.768791,-83.09291,
21540,-0.56653106,1.3003854,8.812766,,,,,,,
21546,,,,-0.15154417,0.096916854,-0.0991277,,,,
21557,,,,,,,-14.672335,10.349817,-82.295105,
21560,-0.50664407,1.2500803,9.066686,,,,,,,
21566,,,,0.079618014,-0.08950426,-0.07888769,,,,
21577,,,,,,,-13.901423,9.470087,-82.73004,
21580,-0.22397761,1.508792,8.3743925,,,,,,,
21586,,,,0.34220546,-0.22426009,-0.05545189,,,,
21588,,,,,,,,,,121.0
21597,,,,,,,-14.670677,8.012117,-80.87511,
21601,-0.003593579,2.1004753,7.4545293,,,,,,,
21607,,,,0.3816202,-0.25515273,-0.03627715,,,,
21617,,,,,,,-15.131947,8.580854,-81.82175,
21621,0.104202926,2.4813561,7.33236,,,,,,,
21627,,,,0.1430012,-0.17312744,0.0042028637,,,,
21637,,,,,,,-14.976381,7.691784,-82.2719,
21641,0.31500506,2.4070964,8.074959,,,,,,,
21647,,,,-0.16805574,-0.07139477,0.019649185,,,,
21657,,,,,,,-15.901339,7.8483505,-80.74907,
21661,0.40363777,1.9567466,9.682323,,,,,,,
21667,,,,-0.39815268,-0.036241084,-0.04906031,,,,
21677,,,,,,,-16.053928,7.6847057,-81.67955,
21681,0.015570253,1.3099674,11.816696,,,,,,,
21687,,,,-0.3720537,-0.10921163,-0.14333615,,,,
21697,,,,,,,-16.207233,8.543665,-83.24095,
21701,-0.44436163,0.8907585,12.976107,,,,,,,
21707,,,,-0.035430446,-0.36114645,-0.13268352,,,,
21717,,,,,,,-16.05675,9.748432,-81.70352,
21721,-0.34135604,0.7637982,12.061035,,,,,,,
21727,,,,0.46471077,-0.52466434,-0.003253981,,,,
21737,,,,,,,-17.4383,8.674713,-83.11833,
21741,0.30781865,0.9242953,10.293171,,,,,,,
21747,,,,0.65912133,-0.38937595,0.12937132,,,,
21757,,,,,,,-18.82231,7.778513,-82.523315,
21761,0.55215746,1.2740351,10.46325,,,,,,,
21767,,,,0.37416336,-0.047426354,0.15440501,,,,
21777,,,,,,,-18.204311,6.594681,-83.42282,
21781,0.3102141,1.3171538,11.351973,,,,,,,
21787,,,,0.09453171,0.20717163,0.12351238,,,,
21797,,,,,,,-19.439165,7.499834,-80.83302,
21801,0.14971703,1.5447241,11.498096,,,,,,,
21807,,,,0.031148523,0.19705163,0.09421763,,,,
21817,,,,,,,-16.823109,7.6730328,-81.69855,
21821,0.33895987,1.288408,10.681239,,,,,,,
21827,,,,0.0013211472,0.12248318,-0.0011234536,,,,
21837,,,,,,,-18.5132,6.606226,-82.34729,
21842,0.09701651,0.9674139,10.628538,,,,,,,
21848,,,,-0.23143892,0.06762211,-0.18168563,,,,
21857,,,,,,,-18.820377,6.7396984,-82.975525,
21862,-0.41082495,0.43561763,11.893351,,,,,,,
21868,,,,-0.48177585,0.040457886,-0.26158038,,,,
21877,,,,,,,-18.97687,7.9305363,-82.06464,
21882,-0.8683613,-0.15127462,12.271837,,,,,,,
21888,,,,-0.39442426,0.13579898,-0.21311091,,,,
21897,,,,,,,-19.131392,8.805706,-82.54289,
21902,-1.2708018,-0.11773792,11.059725,,,,,,,
21908,,,,-0.15207678,0.21462847,-0.12362876,,,,
21917,,,,,,,-17.129683,7.3642826,-82.321655,
21922,-1.3953667,0.20804717,9.792516,,,,,,,
21928,,,,-0.108400986,0.15763688,-0.008580298,,,,
21937,,,,,,,-18.821852,7.193508,-82.207,
21942,-0.98573977,0.227211,9.869172,,,,,,,
21948,,,,-0.2293084,0.019685252,0.10700079,,,,
21957,,,,,,,-18.361498,7.7947826,-81.892975,
21962,-0.28626004,0.10504159,10.259635,,,,,,,
21968,,,,-0.26179895,-0.092167415,0.15493764,,,,
21977,,,,,,,-18.206745,6.6271095,-81.25656,
21982,0.08503914,-0.019523293,9.929059,,,,,,,
21988,,,,-0.15580522,-0.04689372,0.124577634,,,,
21997,,,,,,,-18.974783,7.9027405,-83.92143,
22002,-0.099412724,0.18409237,8.978054,,,,,,,
22008,,,,-0.078573614,0.04365368,0.06545551,,,,
22017,,,,,,,-18.512331,6.5946445,-83.12096,
22022,-0.52341247,0.5649735,8.585196,,,,,,,
22028,,,,-0.11585784,0.1043737,0.06385762,,,,
22037,,,,,,,-19.132143,9.105158,-82.23685,
22042,-0.6336044,0.74702984,8.417512,,,,,,,
22048,,,,-0.14355467,0.11875476,0.117120795,,,,
22057,,,,,,,-20.666227,7.577608,-84.26926,
22063,-0.76296026,0.89554954,8.331275,,,,,,,
22069,,,,-0.12491258,0.052708417,0.14481764,,,,
22077,,,,,,,-19.12925,8.487726,-84.08681,
22083,-0.8731523,1.0033461,8.369602,,,,,,,
22089,,,,-0.04395255,-0.02931687,0.20500502,,,,
22097,,,,,,,-20.360434,8.330906,-83.49655,
22103,-0.38926563,1.0656285,8.321692,,,,,,,
22109,,,,0.08707486,-0.0852432,0.2950198,,,,
22117,,,,,,,-20.516558,8.503777,-81.64528,
22123,0.2814684,1.3075719,8.070168,,,,,,,
22129,,,,0.18880753,-0.08950426,0.3094009,,,,
22137,,,,,,,-20.515806,8.204323,-81.95131,
22143,0.57371676,1.4776508,8.113286,,,,,,,
22149,,,,0.16377385,-0.11507058,0.2231145,,,,
22157,,,,,,,-19.440977,8.826517,-80.848434,
22163,0.43956995,1.3147583,8.544472,,,,,,,
22169,,,,0.090270646,-0.15288743,0.050541826,,,,
22177,,,,,,,-19.130064,8.20912,-83.000244,
22183,-0.13294941,1.2237301,9.203229,,,,,,,
22189,,,,0.07855275,-0.071927406,-0.046929784,,,,
22197,,,,,,,-20.669935,7.916437,-81.33276,
22203,-0.50664407,1.3506904,9.5362,,,,,,,
22209,,,,0.16696963,0.040457886,0.041487087,,,,
22217,,,,,,,-20.516668,9.0841465,-82.27104,
22223,-0.104203686,1.4297413,9.380494,,,,,,,
22229,,,,0.29746437,0.04099052,0.1661229,,,,
22237,,,,,,,-20.82131,7.736582,-83.346375,
22240,,,,,,,,,,111.0
22243,0.57371676,1.4417187,8.901398,,,,,,,
22249,,,,0.3272918,-0.09642847,0.14108922,,,,
22257,,,,,,,-21.739355,6.2091084,-85.98251,
22263,0.57371676,1.5111876,9.009194,,,,,,,
22269,,,,0.15791489,-0.17152955,-0.028820302,,,,
22277,,,,,,,-19.745409,8.199781,-83.01544,
22284,-0.029943839,1.3746452,10.123093,,,,,,,
22290,,,,0.0013211472,-0.086308464,-0.115639284,,,,
22297,,,,,,,-21.284292,8.183384,-82.58925,
22304,-0.47789833,1.1111425,10.132674,,,,,,,
22310,,,,0.09666224,0.06282842,-0.023493987,,,,
22317,,,,,,,-21.129805,9.334881,-84.61067,
22324,-0.04910767,1.0225099,9.723048,,,,,,,
22330,,,,0.16590437,0.106504224,0.10700079,,,,
22337,,,,,,,-21.127544,6.5549564,-83.18555,
22344,0.70307255,1.0488601,11.126798,,,,,,,
22350,,,,0.001853779,-0.07725373,0.07664078,,,,
22357,,,,,,,-21.281546,7.423176,-84.12802,
22364,1.0887446,0.85722184,12.659904,,,,,,,
22370,,,,-0.08709572,-0.2897738,-0.07888769,,,,
22377,,,,,,,-20.817812,6.676922,-85.19119,
22384,0.82284653,0.7590072,12.5545025,,,,,,,
22390,,,,0.02688747,-0.25515273,-0.20352353,,,,
22397,,,,,,,-21.74395,7.5728474,-83.52219,
22404,0.47310662,1.063233,11.375928,,,,,,,
22410,,,,0.10571697,-0.054883197,-0.19766457,,,,
22417,,,,,,,-22.356611,6.2252483,-84.29564,
22424,1.2971512,0.91471326,10.475228,,,,,,,
22430,,,,-0.023712546,0.13420108,-0.095399275,,,,
22437,,,,,,,-22.053846,8.32144,-82.45523,
22440,,,,,,,,,,101.0
22444,1.3450608,0.49790007,10.944742,,,,,,,
22450,,,,-0.29642,0.19119269,-0.22429617,,,,
22457,,,,,,,-22.20684,8.452616,-83.38913,
22464,-0.32937866,-0.09378314,11.991566,,,,,,,
22470,,,,-0.42478427,0.09585159,-0.47569832,,,,
22477,,,,,,,-20.51014,6.681591,-85.18359,
22484,-1.5271178,-0.28781685,11.907723,,,,,,,
22490,,,,-0.25594002,-0.019729499,-0.39473832,,,,
22497,,,,,,,-22.972954,7.8211937,-85.41281,
22505,-1.3762027,0.17211498,10.904018,,,,,,,
22511,,,,-0.007200961,0.016489461,-0.019232932,,,,
22517,,,,,,,-22.664633,6.225212,-83.99379,
22525,-0.029943839,0.6703745,9.85959,,,,,,,
22531,,,,0.10092329,0.10543896,0.30567247,,,,
22537,,,,,,,-21.282469,7.724947,-83.66724,
22545,1.5079534,0.9362726,9.215206,,,,,,,
22551,,,,0.055649586,0.026076833,0.2950198,,,,
22557,,,,,,,-22.512892,8.136913,-84.47644,
22565,1.6995916,1.0320917,8.690597,,,,,,,
22571,,,,-0.05833361,-0.0634053,0.02124708,,,,
22577,,,,,,,-22.820097,8.415483,-85.26112,
22585,0.6359992,1.0800014,8.304925,,,,,,,
22591,,,,-0.20054628,0.031403154,-0.18168563,,,,95.0
22597,,,,,,,-22.66791,8.8739395,-84.33406,
22605,-0.18564996,1.1159335,8.556449,,,,,,,
22611,,,,-0.31932318,0.15603898,-0.1561193,,,,
22617,,,,,,,-22.512545,8.13228,-84.785904,
22625,-0.23355952,0.9769957,8.951704,,,,,,,
22631,,,,-0.31080106,0.16509373,-0.050125573,,,,
22637,,,,,,,-22.052008,9.599476,-85.72003,
22645,0.027547628,0.8524308,9.093037,,,,,,,
22651,,,,-0.19149153,0.14751688,0.0026049684,,,,
22657,,,,,,,-23.282686,7.6992283,-83.407166,
22665,-0.116181076,0.8308716,8.975657,,,,,,,
22671,,,,-0.05407256,0.15177794,0.0031376001,,,,
22677,,,,,,,-22.666288,8.562908,-85.41377,
22685,-0.45154807,0.9171088,8.63071,,,,,,,
22691,,,,0.079618014,0.10863476,0.027106028,,,,
22697,,,,,,,-21.74298,8.862469,-86.013336,
22705,-0.3701018,1.1925888,8.1588,,,,,,,
22711,,,,0.14353384,-0.017066339,0.107533425,,,,
22717,,,,,,,-22.819805,8.701035,-85.883484,
22725,0.039525032,1.4273458,8.407929,,,,,,,
22731,,,,0.112641186,-0.15555058,0.17038396,,,,
22737,,,,,,,-21.433844,7.545088,-85.68086,
22741,,,,,,,,,,87.0
22746,0.6192308,1.5351423,8.91098,,,,,,,
22752,,,,0.1296854,-0.20082428,0.15440501,,,,
22757,,,,,,,-23.742794,8.541933,-85.74983,
22766,0.9977164,1.8465545,9.157715,,,,,,,
22772,,,,0.21597175,-0.09536321,0.12883869,,,,
22777,,,,,,,-22.511538,7.395235,-84.77734,
22786,1.3474562,2.0669384,8.712155,,,,,,,
22792,,,,0.27136543,0.07348106,0.10966395,,,,
22797,,,,,,,-21.434502,8.277504,-85.998886,
22806,1.1534225,1.8872776,8.379184,,,,,,,
22812,,,,0.19200332,0.18533374,0.0047354954,,,,
22817,,,,,,,-22.050596,8.567614,-85.70804,
22826,0.2814684,1.5447241,9.682323,,,,,,,
22832,,,,-0.014657805,0.04099052,-0.15345614,,,,
22837,,,,,,,-23.743608,8.26333,-84.66327,
22846,-0.42280233,1.0201144,11.574752,,,,,,,
22852,,,,-0.088160984,-0.31107906,-0.22855723,,,,
22857,,,,,,,-23.434654,8.829838,-86.51933,
22866,-0.42998877,0.68474734,11.953238,,,,,,,
22872,,,,0.14832753,-0.41600755,-0.1241614,,,,
22877,,,,,,,-23.89707,8.111269,-84.8201,
22886,-0.07545793,0.7494253,11.133984,,,,,,,
22891,,,,,,,,,,81.0
22892,,,,0.40026233,-0.17898639,0.08622815,,,,
22897,,,,,,,-24.358458,8.392138,-85.29912,
22906,0.26949096,0.99376416,10.5997925,,,,,,,
22912,,,,0.4066539,0.10810213,0.25240928,,,,
22917,,,,,,,-24.971504,6.3260193,-84.82616,
22926,0.34135532,1.3075719,11.038165,,,,,,,
22932,,,,0.3043886,0.17947479,0.2694535,,,,
22937,,,,,,,-24.357763,8.382872,-85.918045,
22946,0.6934907,1.5878428,10.915996,,,,,,,
22952,,,,0.31823704,0.0069020893,0.24761556,,,,
22957,,,,,,,-22.81921,7.390566,-84.78494,
22966,1.1246767,2.028611,10.096742,,,,,,,
22972,,,,0.2617781,-0.18537796,0.14588289,,,,
22977,,,,,,,-23.897408,8.984144,-85.60405,
22987,1.2252868,1.9687239,9.809285,,,,,,,
22993,,,,0.00504957,-0.10068952,-0.026157144,,,,
22997,,,,,,,-24.35454,6.0243244,-85.890656,
23007,0.44915187,1.4441142,10.276402,,,,,,,
23013,,,,-0.31186634,0.16722426,-0.2099151,,,,
23017,,,,,,,-22.972607,7.8165607,-85.722275,
23027,-0.23835048,0.64162874,11.845442,,,,,,,
23033,,,,-0.49828744,0.30304536,-0.2940709,,,,
23037,,,,,,,-23.8949,7.648197,-86.207565,
23042,,,,,,,,,,76.0
23047,-0.67432755,0.009222448,12.645531,,,,,,,
23053,,,,-0.32145372,0.2417927,-0.29566878,,,,
23057,,,,,,,-24.817421,7.772333,-86.85101,
23067,-1.1342595,-0.03868714,11.56038,,,,,,,
23073,,,,-0.0040051704,0.020217882,-0.29566878,,,,
23077,,,,,,,-24.04738,6.9041843,-86.51227,
23087,-1.522327,0.1816969,10.242866,,,,,,,
23093,,,,0.07056327,-0.16460533,-0.21417618,,,,
23097,,,,,,,-25.279617,8.642834,-87.33687,
23107,-1.3235023,0.32542562,9.696697,,,,,,,
23113,,,,-0.029571494,-0.19975902,-0.0421361,,,,
23117,,,,,,,-25.124691,7.472845,-86.85518,
23127,-0.77733314,0.29667988,9.46194,,,,,,,
23133,,,,-0.13449994,-0.070862144,0.09528289,,,,
23137,,,,,,,-25.124691,7.472845,-86.85518,
23142,,,,,,,,,,69.0
23147,-0.4275933,0.2487703,9.497873,,,,,,,
23153,,,,-0.18190417,0.11982002,0.15547027,,,,
23157,,,,,,,-23.740303,8.219322,-87.60321,
23167,-0.38207918,0.25835222,9.263116,,,,,,,
23173,,,,-0.16699049,0.16882215,0.12511027,,,,
23177,,,,,,,-23.740303,8.219322,-87.60321,
23187,-0.6288135,0.35417137,9.358934,,,,,,,
23193,,,,-0.12651047,0.029272621,0.07184709,,,,
23197,,,,,,,-24.355381,8.640629,-88.39722,
23207,-0.7390055,0.4643634,9.1601095,,,,,,,
23213,,,,-0.026375704,-0.15661584,0.08622815,,,,
23217,,,,,,,-23.588636,8.684729,-86.211945,
23228,-0.56413555,0.787753,8.405535,,,,,,,
23234,,,,0.0860096,-0.108679,0.16665554,,,,
23237,,,,,,,-25.740658,8.919067,-88.12537,
23242,,,,,,,,,,63.0
23248,-0.45154807,0.9674139,7.8258286,,,,,,,
23254,,,,0.11583698,0.12301581,0.26465982,,,,
23257,,,,,,,-23.588774,9.4101925,-86.99417,
23268,-0.27667814,1.2261256,7.8881106,,,,,,,
23274,,,,0.10092329,0.19279057,0.34029353,,,,
23277,,,,,,,-24.512917,9.845362,-86.55791,
23288,0.3964513,1.5159785,8.051003,,,,,,,
23294,,,,0.104651704,0.005304194,0.3615988,,,,
23297,,,,,,,-23.89401,9.373096,-89.168045,
23308,0.9450159,1.7100123,7.9647665,,,,,,,
23314,,,,0.10145592,-0.1976285,0.23429976,,,,
23317,,,,,,,-24.818565,9.234842,-87.6418,
23328,0.8036827,1.6932439,7.9000883,,,,,,,
23334,,,,0.048725374,-0.1944327,0.034030244,,,,
23337,,,,,,,-24.97167,9.94639,-89.20149,
23343,,,,,,,,,,58.0
23348,0.209604,1.5974247,8.6714325,,,,,,,
23354,,,,-0.022647282,-0.060209513,-0.06503927,,,,
23357,,,,,,,-24.663347,8.350407,-87.782455,
23368,-0.15211326,1.3890182,9.174483,,,,,,,
23374,,,,0.017300101,0.018087355,-0.047462415,,,,
23377,,,,,,,-24.50844,8.19375,-88.5506,
23388,-0.05150315,1.4608824,9.291861,,,,,,,
23394,,,,0.075889595,0.005836825,0.014855499,,,,
23397,,,,,,,-24.508028,8.76717,-89.640594,
23408,0.66234946,1.3626678,9.287071,,,,,,,
23414,,,,0.050323267,-0.03464319,0.051074456,,,,
23417,,,,,,,-24.045193,8.177591,-90.08653,
23428,0.9378295,1.2237301,10.23568,,,,,,,
23434,,,,-0.046615712,-0.035175823,-0.029885568,,,,
23437,,,,,,,-25.124187,8.479229,-88.56923,
23443,,,,,,,,,,53.0
23449,0.37010103,1.0177189,11.124403,,,,,,,
23455,,,,0.021028522,-0.0634053,-0.14599931,,,,
23457,,,,,,,-23.89382,8.357447,-88.07292,
23469,-0.22397761,0.9817867,10.45846,,,,,,,
23475,,,,0.25964755,-0.092167415,-0.12788983,,,,
23477,,,,,,,-26.199108,7.424074,-89.048035,
23489,-0.31261033,1.417764,9.464335,,,,,,,
23495,,,,0.31823704,-0.030382134,0.0031376001,,,,
23497,,,,,,,-24.663,8.345774,-88.09192,
23509,0.22397688,1.678871,9.830844,,,,,,,
23515,,,,0.11477171,0.079872645,0.11285974,,,,
23517,,,,,,,-26.659397,7.400856,-90.14256,
23529,0.91866565,1.3530859,11.045352,,,,,,,
23535,,,,-0.09828099,0.039925255,0.09368499,,,,
23537,,,,,,,-23.891539,7.313999,-88.83461,
23549,1.0887446,1.0704194,11.981984,,,,,,,
23555,,,,-0.1472831,-0.16939902,-0.045331888,,,,
23557,,,,,,,-24.047737,8.790388,-88.54605,
23569,1.1103039,0.87159467,11.938865,,,,,,,
23575,,,,-0.083367296,-0.34410223,-0.14706457,,,,
23577,,,,,,,-23.736916,7.740032,-90.07381,
23589,1.2827784,0.6224649,11.227407,,,,,,,
23593,,,,,,,,,,47.0
23595,,,,-0.083367296,-0.25408748,-0.16410878,,,,
23597,,,,,,,-26.968948,8.144815,-89.385056,
23609,0.78930986,0.4619679,11.035769,,,,,,,
23615,,,,-0.19948103,0.021283148,-0.19393617,,,,
23617,,,,,,,-26.045647,7.5761356,-88.89122,
23629,-0.053898618,0.3829171,11.419045,,,,,,,
23635,,,,-0.25221157,0.15177794,-0.20512143,,,,
23637,,,,,,,-26.045647,7.5761356,-88.89122,
23649,-0.33656508,0.47634077,11.567566,,,,,,,
23655,,,,-0.10627046,0.07614422,-0.08101822,,,,
23657,,,,,,,-26.967995,7.697954,-89.68939,
23670,0.0107792765,0.8835721,10.707589,,,,,,,
23676,,,,0.13128331,-0.07032951,0.07610814,,,,
23677,,,,,,,-26.354134,7.29286,-87.812256,
23690,1.0264621,1.1901934,9.61046,,,,,,,
23694,,,,,,,,,,44.0
23696,,,,0.15844752,-0.17152955,0.13523026,,,,
23697,,,,,,,-24.663,8.345774,-88.09192,
23710,2.0756817,1.0847923,9.037941,,,,,,,
23716,,,,-0.029571494,-0.07725373,0.028703924,,,,
23717,,,,,,,-25.276934,7.3045692,-88.09514,
23730,1.8984163,1.0225099,9.126573,,,,,,,
23736,,,,-0.28257158,0.18160532,-0.19180563,,,,
23737,,,,,,,-27.121538,7.9811726,-90.31555,
23750,0.68151325,0.9817867,9.447568,,,,,,,
23756,,,,-0.41945794,0.38347274,-0.3515951,,,,
23757,,,,,,,-25.739386,8.612667,-88.8956,
23770,-0.12097203,1.0296963,9.493082,,,,,,,
23776,,,,-0.37471688,0.43780118,-0.34467092,,,,
23777,,,,,,,-26.659517,7.1129875,-89.67494,
23790,-0.45633903,1.0296963,9.174483,,,,,,,
23796,,,,-0.20800312,0.33873165,-0.26637405,,,,
23797,,,,,,,-24.660152,8.886768,-91.34816,
23810,-0.77014667,1.1638432,8.273783,,,,,,,
23816,,,,-0.014657805,0.23433585,-0.20032774,,,,
23817,,,,,,,-22.811209,7.2840157,-91.90268,
23830,-0.4587345,1.3986,7.4305744,,,,,,,
23836,,,,0.07322644,0.26522848,-0.077822424,,,,
23837,,,,,,,-24.351133,7.281517,-90.548065,
23850,-0.04192123,1.4800463,7.1119757,,,,,,,
23856,,,,-0.020516755,0.21249795,-0.022961356,,,,
23857,,,,,,,-25.275772,7.5785446,-89.491165,
23870,-0.27667814,1.5399333,7.7204275,,,,,,,
23876,,,,-0.13077152,0.099047385,-0.050658204,,,,
23877,,,,,,,-24.809502,5.3512497,-91.00142,
23890,-0.31979674,1.618984,8.304925,,,,,,,
23896,,,,-0.07697572,-0.04103477,-0.0027213492,,,,
23897,,,,,,,-23.272524,6.261364,-90.818954,
23911,0.020361215,1.844159,8.266597,,,,,,,
23917,,,,0.050323267,-0.12199479,0.06811867,-24.351133,7.281517,-90.548065,
23931,0.48268855,2.0070515,8.13245,,,,,,,
23937,,,,0.10731487,-0.04050214,0.10859869,-24.042427,6.404049,-90.37546,
23951,0.6431856,1.9567466,8.496562,,,,,,,
23957,,,,0.03221379,0.0473821,0.05640078,-23.425581,5.8144855,-90.97235,
23971,0.33177346,1.8058314,9.337376,,,,,,,
23977,,,,-0.09242204,-0.02612108,-0.044266626,-24.504807,6.4086266,-89.61319,
23991,0.051502436,1.3219447,10.345872,,,,,,,
23997,,,,-0.1621968,-0.21680324,-0.1076498,-22.809202,4.9416866,-90.792145,
24011,-0.22637309,0.8093122,11.574752,,,,,,,
24017,,,,-0.1403589,-0.35102645,-0.11723717,-25.580229,7.096903,-91.81462,
24031,-0.42280233,0.4715498,12.132899,,,,,,,
24037,,,,0.03860537,-0.35262436,-0.056517158,-24.501099,6.0698013,-92.54971,
24051,-0.34854248,0.45238596,11.440606,,,,,,,
24057,,,,0.31663913,-0.12945163,0.11765343,-24.96366,5.208452,-90.53929,
24071,-0.12336751,0.7901484,10.671657,,,,,,,
24077,,,,0.3597823,0.08040527,0.28596509,-25.735064,5.950039,-89.483734,
24091,0.35812366,1.1997752,10.824967,,,,,,,
24097,,,,0.23301597,0.11183055,0.3514788,-25.73284,5.1967793,-90.55829,
24112,1.1653999,1.7818766,11.100448,,,,,,,
24117,,,,,,,-25.582474,6.113682,-88.55324,
24118,,,,0.16270858,-0.0090768635,0.3264451,,,,
24132,1.7738514,1.9112324,10.774663,,,,,,,
24137,,,,,,,-24.654924,4.185892,-90.21025,
24138,,,,0.15418647,-0.13584322,0.14961132,,,,
24145,,,,,,,,,,47.0
24152,1.6349138,1.4920237,10.480019,,,,,,,
24157,,,,,,,-24.655529,4.6281204,-90.21539,
24158,,,,-0.010396751,-0.31214434,-0.14333615,,,,
24172,0.57132125,0.7733801,11.292086,,,,,,,
24177,,,,,,,-26.808748,3.8653393,-89.79581,
24178,,,,-0.35447687,-0.4506286,-0.43415305,,,,
24192,-0.76296026,-0.06743288,12.231113,,,,,,,
24197,,,,,,,-26.19129,3.701788,-91.48097,
24198,,,,-0.5179948,-0.24929379,-0.49593836,,,,
24212,-1.5965867,-0.2399073,12.017916,,,,,,,
24217,,,,,,,-26.19129,3.701788,-91.48097,
24218,,,,-0.43277374,0.16136532,-0.21257827,,,,
24232,-1.0887454,-0.11773792,11.93647,,,,,,,
24237,,,,,,,-26.657238,6.069544,-90.43663,
24238,,,,-0.2793758,0.35524327,0.1607966,,,,
24245,,,,,,,,,,51.0
24252,0.0011973679,0.05713202,11.074097,,,,,,,
24257,,,,,,,-24.810143,5.070326,-90.06958,
24258,,,,-0.08389993,0.16775689,0.2726493,,,,
24272,0.48029304,0.30865726,9.945827,,,,,,,
24277,,,,,,,-27.116108,3.1328907,-89.17592,
24278,,,,0.024224313,-0.07405794,0.13203448,,,,
24292,0.29584128,0.23200196,9.337376,,,,,,,
24297,,,,,,,-26.040611,3.8909092,-88.84842,
24298,,,,-0.0396915,-0.1843127,-0.075159274,,,,
24312,-0.18325448,0.10983254,8.8894205,,,,,,,
24317,,,,,,,-25.273556,5.9570427,-89.472336,
24318,,,,-0.159001,-0.0969611,-0.17476141,,,,
24332,-0.6647457,0.09066872,8.65706,,,,,,,
24337,,,,,,,-25.273958,6.2518616,-89.47575,
24338,,,,-0.2916263,0.1997148,-0.0874098,,,,
24346,,,,,,,,,,55.0
24353,-0.80128795,0.07869133,8.6355,,,,,,,
24357,,,,,,,-26.040163,5.187477,-90.87535,
24359,,,,-0.37951055,0.46443278,0.07717341,,,,
24373,-0.6791185,0.20325622,9.176879,,,,,,,
24377,,,,,,,-25.271734,5.498602,-90.55031,
24379,,,,-0.4072074,0.50704336,0.1661229,,,,
24393,-0.18804543,0.18409237,9.8931265,,,,,,,
24396,,,,,,,,,,59.0
24397,,,,,,,-24.50172,4.775545,-90.36803,
