Timestamp,acc_x,acc_y,acc_z,gyro_x,gyro_y,gyro_z,mag_x,mag_y,mag_z,light
6567,-0.21679117,0.16253307,10.642911,0.08867276,-0.005348441,-0.05332136,,,,
6587,-0.17127708,0.5410187,9.119387,0.24260335,-0.23757587,-0.047462415,-4.254511,27.00152,-63.657074,
6607,0.11378488,0.842849,8.079749,0.034344316,-0.22053166,-0.038407672,-2.4090004,27.036484,-63.147278,
6627,0.073061705,0.6967248,10.144651,-0.3076053,0.13153793,0.0020723366,-4.8695087,26.987549,-63.981735,
6647,0.11378488,0.21044263,11.938865,-0.20800312,0.27002215,0.06439025,-3.0220375,25.838608,-63.767715,
6667,-0.14013585,0.19606978,11.016605,0.20105807,0.0708179,0.019649185,-3.3293533,26.697546,-65.17819,
6687,-0.27428266,0.5961147,8.944517,0.33368334,-0.15182216,-0.019765563,-3.4829693,25.53447,-63.93042,
6707,-0.19523187,0.8308716,8.213896,0.076954864,-0.009609495,0.042552352,-2.7156658,26.29477,-63.146317,
6727,0.0035928488,0.81410325,9.627228,-0.23516734,0.30038217,0.15600291,-2.7143288,26.566425,-64.69707,
6747,0.30781865,0.44280407,10.932764,-0.26712528,0.3158285,0.16665554,-1.946394,26.739405,-63.75139,
6767,0.16408992,0.31823918,10.98786,-0.059931505,0.11715686,0.043617614,-2.25251,25.84565,-64.05818,
6787,-0.032339334,0.31823918,9.864381,0.12862015,-0.13957164,-0.055984523,-1.3317375,27.62625,-64.21066,
6807,-0.180859,0.50269103,9.227184,0.10145592,-0.22212957,-0.079952955,-3.637722,26.702143,-64.56685,
6827,-0.19523187,0.49071363,9.457149,-0.011462016,-0.06287266,-0.023493987,-3.6373177,26.407326,-64.56343,
6847,-0.03713028,0.5314368,9.926662,-0.059931505,0.23114006,0.06172709,-2.4069672,27.298874,-65.31697,
6867,0.2886548,0.37812614,10.918391,-0.027440967,0.216759,0.12191448,-2.560173,26.709219,-65.159195,
6887,0.2215814,0.31105274,10.214121,0.17602436,-0.07831899,-0.007515035,-3.0214138,27.132862,-65.94939,
6907,-0.37249726,0.6224649,9.36133,0.24739702,-0.24023902,-0.0991277,-0.7132435,26.58056,-65.730804,
6927,-0.44196618,0.64641976,8.700178,0.13714226,-0.19975902,-0.01816767,-2.7131767,25.972157,-64.999695,
6947,-0.08024889,0.86440825,8.736111,-0.047680978,0.029805256,0.09421763,-2.5636883,28.782211,-64.564224,
6967,0.3988468,0.85961735,10.230888,-0.23783049,0.1997148,0.17144923,-3.4861355,27.602829,-63.644928,
6987,0.6431856,0.44519955,11.093261,-0.1355652,0.12621161,0.097946055,-1.7917805,26.297195,-63.897186,
7007,0.16648537,0.59132373,10.805804,0.10891276,-0.107613735,-0.077822424,-3.0229797,27.15371,-64.55679,
7027,-0.039525762,0.67995644,9.617647,0.22129808,-0.25728327,-0.14386877,-2.4029312,25.218933,-66.37613,
7047,-0.38447466,0.8859676,8.767252,0.09080328,-0.06873162,-0.10232349,-2.098236,26.276314,-64.987915,
7067,-0.5545536,0.9746003,9.397263,-0.13822837,0.2689569,0.05959657,-1.9454308,27.160786,-65.149124,
7087,-0.116181076,0.73265696,10.932764,-0.19362205,0.35684115,0.20713556,-3.0212765,26.407398,-65.16716,
7107,0.31500506,0.5002955,10.942346,0.0029190425,0.055371575,0.1693187,-2.563095,27.471745,-63.465683,
7127,-0.001198113,0.64162874,10.10872,0.21064544,-0.16620322,0.013790234,-2.0985832,26.280945,-64.67845,
7147,-0.08264437,0.78296196,10.041646,0.25645176,-0.21573797,-0.02775504,-2.4068756,24.982023,-62.50438,189.0
7167,-0.101808205,0.77098465,9.852403,0.30492124,0.019152619,-0.005384508,-2.7151985,26.578007,-63.9234,
7187,-0.23116404,0.7494253,9.75898,0.3310202,0.29612112,0.028171293,-2.7136326,26.55716,-65.31601,
7207,-0.57850844,1.0752103,9.490685,0.21117806,0.18906216,0.058531303,-2.7135792,26.266975,-65.00311,
7227,-0.7150507,1.0440692,9.5697365,0.07855275,0.038859993,0.15174185,-2.0975761,25.5439,-64.66989,
7247,-0.13294941,0.9314817,9.579319,0.027420104,-0.059676882,0.2396261,-1.9462376,27.750422,-65.155975,175.0
7267,-0.12576298,1.1590521,9.81168,-0.0034725387,-0.047958985,0.16345975,-3.0219727,26.416664,-64.54823,
7287,-0.64558184,1.1255155,9.926662,-0.0077335928,-0.014935814,0.11871869,-1.1771584,26.460892,-63.419495,
7307,-0.7437964,1.0943742,9.81168,0.018365363,-0.06287266,0.21192923,-2.7150059,25.562357,-62.828293,
7327,-0.47310737,1.0680239,9.677534,0.03967063,-0.10654847,0.28809562,-4.097782,26.386423,-65.50322,
7347,-0.24553691,1.063233,9.854799,0.0508559,-0.08364531,0.2827693,-2.5593033,26.697638,-65.93286,
7367,0.11378488,1.1015606,10.053624,0.0726938,-0.16247481,0.22417977,-1.0221329,26.592106,-64.65527,
7387,0.23834974,1.1614476,10.072787,0.16164333,-0.29510012,0.13043658,-3.3286018,26.398096,-65.48422,
7407,0.23116332,1.4297413,9.370912,0.23461387,-0.32119906,0.053737618,-3.6369705,26.402693,-64.872894,
7427,0.044315994,1.5758654,9.416426,0.15365383,-0.19017164,0.018583922,-2.0973663,26.264732,-65.76158,
7447,-0.07785343,1.4824418,9.447568,0.1280875,0.015424198,0.055868145,-2.4052467,25.53923,-64.67749,
7467,-0.013175502,1.559097,8.736111,0.11423908,0.21196532,0.09847868,-1.9436188,25.834103,-65.13373,
7487,-0.010780022,1.8345772,8.453444,-0.056735717,0.32861167,0.08090183,-0.40525055,26.725689,-66.18912,
7507,-0.085039854,2.0310063,9.253534,-0.25594002,0.32807904,0.016986027,-1.790617,26.571167,-65.29321,
7527,-0.14013585,1.8345772,10.118301,-0.24581999,0.22900954,-0.05172347,-0.25488472,27.642591,-64.18407,
7547,-0.4587345,2.0022607,8.999613,-0.097748354,0.01009788,-0.14173825,-1.4826431,27.72963,-67.00137,189.0
7567,-0.7725422,2.3448138,7.8162465,-0.24741787,-0.08897162,-0.16517405,-1.4812965,26.119713,-66.20886,
7587,-1.0120901,1.9136279,8.707364,-0.5888348,0.081470534,-0.0421361,-2.2509365,26.693043,-66.54419,207.0
7607,-0.80368346,1.5016056,9.850008,-0.65168536,0.16136532,0.12404501,-1.7895374,27.280418,-67.15857,
7627,-0.19523187,1.4345322,9.974573,-0.51426643,0.032468412,0.1576008,-2.406721,25.993038,-63.90895,
7647,-0.12336751,1.5135831,9.18646,-0.43170846,-0.028784238,0.07078183,-1.791378,26.002377,-63.893753,242.0
7667,-0.34375155,1.4752553,9.3780985,-0.5217233,-0.010674759,0.0047354954,-1.4844646,28.18807,-65.923386,
7687,-0.3030284,1.348295,10.539906,-0.50308114,-0.029849501,-0.0016560858,0.054811478,27.041409,-65.25275,282.0
7707,-0.21439569,1.283617,10.501577,-0.2628642,-0.048491616,0.023377609,-1.9459724,28.181067,-65.934784,
7727,-0.35572892,1.3842272,9.761374,-0.09135678,-0.054350566,0.016986027,-2.2530403,27.73417,-65.93724,
7747,-0.35093796,1.4009955,10.036855,-0.06898624,-0.06234004,0.0031376001,-0.7158699,27.62864,-64.65965,322.0
7767,-0.15211326,1.4057864,9.806889,-0.03116939,-0.0532853,-0.029885568,-0.25406837,27.921196,-65.27063,
7787,-0.28626004,1.5303513,9.370912,-0.07218204,-0.0048158094,-0.049592942,-3.1783085,28.618515,-65.0419,352.0
7807,-0.60006773,1.5734699,9.914686,-0.13929363,-0.0010873872,-0.01177609,-1.175684,28.756897,-67.624695,
7827,-0.4275933,1.4201592,10.535115,-0.060464136,-0.098026365,0.02124708,-1.488245,29.830418,-64.54961,
7847,-0.053898618,1.417764,10.353058,0.09985802,-0.1944327,-0.016569776,-3.6394424,28.461786,-65.20633,383.0
7867,-0.15450874,1.6309614,9.445172,0.176557,-0.14010426,-0.028820302,-2.4073696,27.593693,-65.32039,
7887,-0.27428266,1.858532,9.188856,,,,-3.3310204,28.167004,-65.50476,415.0
7907,0.022756696,1.5782609,9.991341,0.03967063,0.008499985,0.054270253,-0.2528515,27.904982,-66.35376,
7927,0.24074522,1.3986,11.069306,-0.11106415,0.08040527,0.124577634,-2.5597534,28.150883,-67.342575,
7947,0.31979603,1.2213346,11.021397,-0.10041152,-0.07938425,0.052139726,0.049966812,29.710987,-64.20044,451.0
7967,0.2670955,1.113538,9.888336,0.079618014,-0.30948117,-0.05864768,-2.2522907,27.43472,-66.24327,
7987,-0.235955,0.6344423,10.288381,0.11370645,-0.373397,-0.15558667,-1.7908096,27.586817,-66.388336,492.0
8007,-0.5593446,0.22002456,11.869396,-0.15473995,-0.13318005,-0.1678372,-2.712553,27.26641,-67.181366,
8027,-0.032339334,-0.27583948,12.226323,-0.30920315,0.10330844,-0.064506635,-0.10196304,28.814934,-64.8129,
8047,0.33656436,-0.46747777,11.339995,-0.105737835,0.13739689,0.04574814,-1.9471912,28.19728,-64.85164,544.0
8067,0.34135532,-0.18002033,11.155544,0.17442648,0.010630512,0.049476564,-1.4846573,29.20372,-67.01849,
8087,0.5305981,0.035572723,10.669262,0.2505928,-0.19070429,-0.007515035,-1.3297138,27.020397,-65.28694,590.0
8107,0.47071117,0.4499905,10.228494,0.21490648,-0.30202433,-0.064506635,-2.09873,28.887983,-67.803925,
8127,0.7533776,0.093064204,10.959115,0.034876946,-0.18058427,-0.059180308,-3.0206013,27.411465,-67.035934,
8147,1.330688,-0.24948928,11.260944,-0.12544522,0.0047715623,0.07078183,-1.7922192,28.618681,-66.400314,631.0
8167,1.71636,-0.19918418,10.81299,-0.02531044,0.07720948,0.12937132,-1.790947,28.31228,-67.17056,
8187,1.7451057,-0.0985741,9.586505,0.20904754,0.0047715623,0.050009195,-2.71377,27.282623,-66.098236,680.0
8207,1.1989366,-0.053059995,8.2091055,0.34699914,-0.1507569,-0.16517405,-3.4848194,28.887817,-66.445526,
8227,0.2886548,0.08587776,7.833015,0.29373598,-0.05381793,-0.35851935,-2.7129555,27.561228,-67.1848,
8247,-0.35333344,0.018804371,9.150528,0.0508559,0.22368322,-0.399532,-4.404722,27.095636,-67.06671,
8267,-0.34135604,-0.32614455,10.360245,-0.22984102,0.3589717,-0.32815933,-4.0964108,27.381226,-67.99094,
8287,-0.17606804,-0.14887914,10.257238,-0.2692558,0.24019481,-0.23761196,-2.0956993,27.545088,-68.87166,758.0
8307,-0.33416963,0.4380131,9.392472,-0.07537783,0.029272621,-0.20831722,-2.096964,25.969913,-65.75816,
8327,-0.22637309,0.7542163,9.025963,0.055649586,0.002108403,-0.16197824,-1.4811974,27.420914,-67.926346,
8347,0.20241755,1.0105325,8.542076,0.07642223,0.166159,0.0073986542,-2.4071598,28.314524,-66.412094,
8367,0.5042479,1.2213346,8.537286,0.086542234,0.1879969,0.1256429,-2.711197,26.52473,-67.482285,
8387,0.72463185,1.1806115,8.532495,0.040203262,0.03513157,0.12191448,-3.0180283,26.653574,-68.41998,834.0
8407,0.48268855,1.4081819,8.029445,0.025289577,-0.08204742,0.050541826,-2.249508,27.39766,-68.71901,
8427,0.05868885,1.448905,8.175569,0.041268528,-0.019196866,-0.059180308,-1.4822044,28.157959,-67.934906,
8447,0.12576225,1.2189391,8.669037,-0.036495708,0.09744949,-0.079952955,-3.4817867,27.544922,-67.51326,
8467,0.24553618,1.2955945,9.028358,-0.107335724,0.078807384,-0.022428725,-2.4054394,26.55488,-65.7726,
8487,0.29105026,1.3123628,9.562551,-0.10627046,-0.035175823,0.0020723366,-3.019558,27.397568,-67.96434,899.0
8507,0.073061705,1.2309165,9.572132,-0.0849652,-0.12785374,0.010061813,-2.7109222,27.823618,-69.35448,
8527,-0.5042486,1.2955945,9.770957,-0.018386228,-0.0634053,-0.007515035,-2.4041843,27.261814,-67.792694,
8547,-0.10899465,0.9722048,10.400968,-0.018918859,0.064426325,0.03882393,-2.558609,26.688374,-66.55179,
8567,0.35093725,0.5649735,11.3328085,-0.046615712,0.045251574,0.17784081,-3.1739597,28.560608,-68.91023,
8587,0.4204061,0.08348228,11.768785,-0.01305991,-0.14170216,0.18423238,-1.7875595,27.832993,-69.64114,
8607,0.24074522,-0.17283392,11.546007,0.12595698,-0.3600812,0.110196576,-4.403616,27.659794,-68.775635,
8627,-0.42280233,0.1601376,11.557983,0.25858226,-0.44263914,0.057998672,-3.7858715,26.913555,-69.98973,
8647,-0.27428266,0.51945937,11.6825485,0.27136543,-0.30575275,0.105402894,-3.7874928,27.224588,-68.91002,975.0
8667,0.34614623,0.81170774,11.71369,0.25591913,-0.11613585,0.31579244,-3.1733646,27.250141,-67.81169,
8687,0.5617394,0.89794505,11.421442,0.2809528,0.13952741,0.47877777,-2.4029026,27.823654,-69.65634,
8707,1.0120893,0.4380131,9.986549,0.3661739,0.3222201,0.43829778,-1.7871017,27.24799,-69.32483,
8727,0.60964894,0.32542562,9.437985,0.37522864,0.1730832,0.2348324,-2.0960464,27.54972,-68.56218,
8747,-0.5449717,0.04515463,10.753103,0.090270646,-0.005348441,-0.08687717,-2.0940247,26.94387,-69.63847,
8767,-1.5534681,-0.0865967,11.672967,-0.25114632,0.0042389305,-0.23175302,-1.1727085,27.704187,-69.00531,
8787,-1.4839993,0.27272508,10.432109,-0.18296942,0.08306843,-0.076224536,-1.9414864,27.397696,-69.02089,
8807,-0.80128795,0.51706386,9.100223,0.17708965,0.096916854,0.18902607,-3.017332,26.644308,-69.038925,
8827,-0.180859,0.5362277,8.982845,0.29000756,0.0356642,0.31739035,-1.7876244,27.254938,-68.86063,
8847,0.16169444,0.33021656,9.402053,0.10145592,-0.15288743,0.27584508,-0.70955276,27.255066,-69.917175,
8867,0.51382977,0.2367929,9.699093,-0.053007293,-0.24822852,0.18156922,-0.7099552,27.549885,-69.92059,
8887,0.9450159,0.17211498,9.013986,-0.056203082,-0.24343483,0.14055659,-1.9391518,26.064066,-69.46968,1049.0
8907,0.40603328,0.15534665,8.678618,0.003984306,-0.091102146,0.0702492,-3.0188427,26.37497,-67.33342,
8927,-0.46352547,0.2703296,9.121782,-0.019984122,0.20930217,-0.02775504,-2.2503204,27.119057,-67.63246,
8947,-0.6575592,0.15534665,9.097828,-0.110531524,0.20184532,-0.084746644,-3.3265152,26.3703,-67.34102,
8967,-0.6168361,0.54820514,8.350438,-0.067920975,-0.005881073,-0.0522561,-2.4039097,28.5607,-69.6649,
8987,-0.5497627,0.78296196,8.079749,-0.0018746434,-0.1507569,-0.017102407,-0.40685272,28.773203,-67.29622,
9007,-0.7078643,0.6560017,8.434279,-0.065257825,0.026076833,0.022312343,-2.5583782,29.145685,-69.83029,
9027,-0.7078643,0.63923335,8.973263,-0.148881,0.27321795,0.069716565,-0.8636265,26.676992,-68.98573,
9047,-0.5042486,0.72547054,9.155319,-0.189361,0.10330844,0.091021836,-0.8636265,26.676992,-68.98573,
9067,-0.31740126,0.95064545,8.975657,-0.15154417,-0.19816113,0.08782605,-0.8672066,28.17193,-67.610245,
9087,-0.31500578,1.1710294,8.616336,-0.033299915,-0.18537796,0.109131314,-0.8672066,28.17193,-67.610245,
9107,-0.16648611,1.3243401,8.199524,0.046062212,-0.054883197,0.12724079,-0.86538506,27.71349,-68.68825,
9127,0.14253059,1.4441142,8.431885,0.049790636,0.029272621,0.14428501,-0.71211815,28.881199,-69.62654,
9147,0.42759258,1.3339221,9.318212,-0.0716494,0.0042389305,0.15440501,-1.3260612,26.971756,-68.53635,
9167,0.5665303,1.4129729,10.1901655,-0.19788311,-0.10175479,0.10114184,-1.4773502,26.356623,-70.08063,
9187,0.24553618,1.3602724,10.880064,-0.20853576,-0.15448532,-0.010710826,-1.4798603,27.69257,-69.47711,
9207,-0.16648611,1.0584421,10.901623,-0.113194674,-0.08364531,-0.08155085,-2.0973186,27.85612,-67.79195,
9227,-0.37249726,1.0440692,10.652493,0.030615892,-0.013337918,-0.07888769,-2.4059963,28.588495,-67.808105,
9247,,,,0.14193594,0.051643156,-0.01763504,-1.3261166,27.261942,-68.84923,
9267,-0.13294941,1.2596623,10.41055,0.14886016,0.057502102,0.035628136,-1.786808,27.533543,-69.94719,
9287,0.17367181,0.8356626,11.069306,0.048725374,-0.03464319,0.014322867,-1.4794579,27.39775,-69.47368,
9307,0.022756696,0.34458944,12.051453,0.0061148335,-0.159279,-0.06077821,-1.1727085,27.704187,-69.00531,
9327,-0.008384541,-0.13450626,12.029893,0.04819274,-0.19656323,-0.10445402,-1.7885666,28.570038,-69.649704,
9347,-0.003593579,-0.3477039,11.864605,0.0023864107,0.010630512,-0.0655719,-3.0183392,27.381353,-69.047485,
9367,0.30542314,-0.7166076,12.159249,-0.08017151,0.3025127,0.051074456,-0.7137451,28.32399,-67.45343,
9387,0.7437957,-0.84835887,12.221532,-0.0615294,0.384538,0.122979745,-2.7106743,29.267597,-71.38313,
9407,0.95938873,-0.6854663,12.01073,-0.0013420116,0.1997148,0.06332499,-0.40361214,28.151138,-69.45564,
9427,0.59527606,-0.67588437,11.857419,0.05405169,-0.045828454,-0.08847506,-2.25078,27.70406,-67.94878,
9447,0.051502436,-0.46987328,11.6825485,0.22129808,-0.103885315,-0.06876769,1.2912941,26.693462,-70.015656,
9467,0.6910952,-0.1536701,10.628538,0.44606867,0.0037062988,0.17624292,-2.0951767,27.53814,-69.335846,
9487,1.8025973,0.22960648,9.342167,0.5430076,0.19279057,0.31579244,-1.1704922,26.082687,-68.98648,
9507,2.5260317,0.7158886,8.2091055,0.44447076,0.27268535,0.22045134,-1.790535,28.885704,-68.260544,
9527,2.7344382,0.7374479,7.399433,0.16111068,0.24126007,-0.03787504,-1.016758,27.533634,-70.70186,
9547,1.8816481,0.64641976,7.514416,-0.16645785,0.2705548,-0.343073,-0.40260506,27.414093,-69.44708,
9567,0.4563383,0.5314368,8.455839,-0.4141316,0.3424601,-0.52949417,-0.091955185,26.366053,-70.8201,
9587,-0.63120896,0.28709796,9.411634,-0.474319,0.30677378,-0.52150464,-1.3248978,27.245728,-69.93237,
9607,-1.127073,0.23918839,9.337376,-0.3283779,0.15923479,-0.38408566,-0.8637085,27.112272,-69.45506,
9627,-1.0528132,0.5817418,8.846302,-0.18137154,0.017022092,-0.22642669,-1.3264637,27.266575,-68.539764,
9647,-0.6048587,0.7997304,8.597173,-0.13183679,-0.048491616,-0.10551928,-0.8642292,27.11922,-68.99086,
9667,-0.42280233,1.0296963,8.98524,-0.07963888,-0.011207391,-0.018700302,0.06068802,26.23951,-69.57672,
9687,-0.15690422,1.3818316,8.865466,0.081748545,-0.013870549,0.083565,-0.24663544,26.230206,-69.89378,
9707,0.5258072,1.5399333,8.0174675,0.2335486,0.0042389305,0.13789342,-1.1734047,27.713451,-68.38637,
9727,0.7437957,1.7818766,7.3443375,0.14992541,-0.0026852824,0.048943933,0.05968094,26.976555,-69.58528,
9747,0.31500506,1.8705093,7.8593655,-0.14302205,0.036196835,-0.091670856,-0.402256,27.40946,-69.75656,
9767,-0.17846352,1.458487,9.217602,-0.36353162,0.12514633,-0.11244349,0.36811447,27.550013,-70.97714,
9787,-0.37968373,1.0392781,10.983068,-0.35181373,0.07667685,-0.061843473,-1.1727085,27.704187,-69.00531,
9807,-0.4922712,0.63683784,11.881373,-0.040756762,-0.12519057,-0.012841353,-1.0181675,28.565498,-70.71385,
9827,-0.291051,0.5793463,11.172312,0.35232547,-0.37925595,0.037226032,-0.710495,28.570168,-70.70625,
9847,0.33416885,0.72307503,10.044042,0.48068973,-0.45595494,0.08782605,-0.71061516,28.282297,-70.23863,
9867,0.48268855,0.6344423,10.000923,0.32356334,-0.21414007,0.12084922,-1.0160084,27.234184,-71.007904,
9887,0.046711475,0.6536062,10.848923,0.15312122,0.05004526,0.17144923,-0.8647709,28.139502,-69.77652,
9907,0.3820784,0.5314368,11.045352,0.14939278,0.09744949,0.25027874,-2.7093678,26.934532,-69.65367,
9927,0.8971064,0.62965137,11.502888,0.10731487,0.011163143,0.2044724,0.05775833,28.883606,-70.22647,
9947,0.8132646,0.4643634,12.676673,0.10039065,0.06975264,0.05746604,0.6767578,26.09449,-70.024,
9967,0.57132125,-0.09378314,11.953238,0.21437386,0.088394746,-0.09966033,-0.2500782,26.99968,-67.736084,
9987,-0.05150315,0.07869133,10.197351,0.104651704,0.12248318,-0.25252563,0.83068466,26.529785,-70.64429,
10007,-1.0408357,-0.050664514,10.544697,-0.28683263,0.38666853,-0.28128773,-0.7073288,26.501808,-70.991745,
10027,-1.8720669,-0.34051743,12.274232,-0.44449165,0.40903905,-0.17529404,0.36579895,27.87031,-69.27849,
10047,-2.1283832,-0.13929722,12.28621,-0.1052052,0.077742115,-0.038940307,0.060094833,27.549976,-70.67526,
10067,-1.7882252,0.0595275,10.439296,0.29000756,-0.29243696,0.04415025,0.06084442,27.250526,-70.98131,
10087,-1.2588243,0.34219396,9.0595,0.35392338,-0.4208012,0.08303236,-0.8605137,27.648632,-73.02077,
10107,-0.6288135,0.21762908,9.023568,0.16643701,-0.32386225,0.10646816,-1.9396095,26.649069,-69.785995,
10127,-0.089830816,-0.23511639,9.294257,-0.027440967,-0.25035906,0.082499735,-0.70798683,27.23422,-71.309784,
10147,-0.02036193,-0.26625755,9.296652,-0.098813616,-0.22532535,0.013257603,-0.4009018,26.667782,-70.05745,
10167,-0.3701018,0.023595303,9.188856,-0.030104125,-0.08471057,-0.0123087205,-1.9387398,26.637487,-70.55966,
10187,-0.64797735,0.35656685,8.633105,0.09186855,0.058034733,0.009529181,-0.09235954,26.66087,-70.82352,
10207,-0.53299433,0.61288303,8.062981,0.1195654,0.10863476,0.022844978,0.8291187,26.550632,-69.25168,
10227,-0.45633903,0.81649864,7.50723,0.07056327,0.16935478,0.027106028,-0.09317207,26.382267,-69.73697,
10247,-0.51862144,0.8739902,7.603049,-0.06472518,0.17894216,0.016453395,-1.7842464,25.90741,-70.23782,
10267,-0.9378302,0.8859676,8.216291,-0.12704311,0.1043737,0.0063333907,0.21524811,26.087486,-70.0354,
10287,-0.94980764,0.94345903,8.23306,-0.041289393,-0.08098215,0.0601292,-0.24536324,25.923807,-70.66403,
10307,-0.27428266,0.98897314,8.0174675,-0.03063676,-0.23491272,0.07930394,0.6778202,25.067257,-69.702576,
10327,-0.24793239,0.9650184,8.774438,-0.12437994,-0.15288743,0.034562875,-0.7103691,26.976463,-68.83061,
10347,-0.67432755,0.9314817,9.5697365,-0.06898624,-0.001620019,0.031367086,0.9829254,26.69806,-69.40433,
10367,-0.7390055,1.1159335,9.303839,0.13341384,0.007967353,0.10114184,-0.09444618,26.688665,-68.966736,
10387,-0.3677063,1.4297413,8.827139,0.20691702,-0.082580045,0.16825344,1.447319,25.21939,-70.149475,
10407,0.19762662,1.4225547,9.114595,0.09932539,-0.1843127,0.16132921,-1.4768848,26.639858,-70.85771,
10427,0.41801065,1.1614476,10.149443,-0.025843073,-0.23544535,0.058531303,-0.24495125,26.49723,-71.75401,
10447,-0.09462176,1.2572668,10.654889,-0.029571494,-0.24343483,-0.0522561,-0.8618126,25.350311,-68.97032,
10467,-0.22876856,1.2428938,10.089556,0.055649586,-0.078851625,0.0073986542,-0.8618126,25.350311,-68.97032,
10487,0.27428192,1.1207244,10.000923,-0.029038861,0.051643156,0.08463026,-0.09136009,25.055584,-69.72157,
10507,0.25990906,0.957832,11.507679,-0.22291681,0.027674727,-0.0021887175,-1.0132523,24.592402,-70.20343,
10527,0.03712955,0.59371924,12.549712,-0.17444731,-0.031447396,-0.063974,-0.0912056,26.0666,-71.126144,
10547,0.099411994,0.6152785,11.831069,-2.767481E-4,-0.07565583,-0.0027213492,-0.24346733,24.161846,-70.17929,1117.0
10567,0.70546806,0.6943293,11.289691,-0.005070434,-0.019196866,0.11072921,-1.3220787,25.182001,-69.9084,
10587,1.5606539,0.33500752,11.771182,-0.115325205,0.0841337,0.124577634,0.06319809,24.903563,-70.18025,
10607,1.8505068,-0.08899215,12.324537,-0.12331468,0.07720948,-0.029885568,-0.24233246,24.580912,-71.731766,
10627,1.3642247,-0.40519533,12.075408,-0.039158866,-0.042100035,-0.24560145,-2.0913963,25.895792,-70.709625,
10647,0.7797278,-0.41477725,11.450188,0.037540104,-0.13797374,-0.34999725,-1.1667023,25.308582,-71.45364,
10667,0.37010103,-0.04347807,11.373532,0.15951279,0.067089476,-0.25678667,-0.7054596,24.884941,-70.66345,
10687,0.4132197,0.16732404,10.587815,0.40292546,0.40424538,-0.035744514,-3.3196945,24.2533,-70.875916,
10707,0.9450159,0.5961147,8.968472,0.5248981,0.47934642,0.07930394,-1.4729118,23.981865,-71.13637,
10727,1.7618741,1.0656285,7.351524,0.29746437,0.26309797,-0.009645563,-0.7066231,24.61097,-69.26741,
10747,1.7834334,0.90273595,7.1239533,-0.23463471,0.11502634,-0.322833,0.22029114,23.2705,-71.08601,
10767,0.33895987,0.447595,8.589987,-0.6852412,0.20450848,-0.5992689,-0.39741325,24.739883,-70.80887,
10787,-0.8923161,0.29667988,9.490685,-0.7907023,0.277479,-0.5721047,-1.3195152,23.55587,-70.199036,
10807,-1.5438863,0.39010352,10.024878,-0.60534644,0.3429927,-0.3425404,-2.3967686,23.834343,-70.229065,
10827,-1.4360898,0.55299604,9.962595,-0.21918839,0.30038217,-0.038940307,-1.1659889,24.285984,-70.82272,
10847,-0.13055395,0.7997304,8.431885,0.10039065,-0.0010873872,0.14055659,-0.24447441,24.898893,-70.18785,
10867,0.6791178,1.2596623,7.6293993,0.0860096,-0.26420748,0.06652078,-0.08944702,25.030106,-71.42363,
10887,0.4204061,1.3818316,8.036631,-0.033299915,-0.2546201,-0.05332136,-2.2416058,25.989908,-74.11928,
10907,0.041920513,1.4441142,7.9575796,-0.04235466,-0.10921163,-0.07462664,-0.7028866,24.127048,-72.047485,
10927,-0.039525762,1.5902383,8.33367,-0.04821361,0.09958002,0.016986027,-2.5515766,25.292202,-71.178375,
10947,0.34135532,1.458487,9.375703,-0.004537802,0.18213794,0.13469765,-0.39571,23.993574,-71.419235,
10967,0.73900473,1.5231649,9.469127,0.19466649,-0.0069463365,0.10433763,-1.319706,24.571518,-71.29416,
10987,0.5976715,1.9016505,9.004404,0.31717178,-0.21520534,-0.05971295,-1.3204575,24.87097,-70.98811,
11007,0.15211254,1.793854,9.069082,0.18720964,-0.23864114,-0.1577172,-2.2431526,24.997421,-71.47682,
11027,-0.33177415,1.3003854,10.041646,0.00504957,-0.098026365,-0.11936771,0.06674957,23.553719,-71.71217,
11047,-0.6623502,0.9266907,10.973487,-0.008798856,-0.0042831777,-0.0011234536,-0.24224854,24.145634,-71.26242,
11067,-0.3245877,0.5002955,11.795136,0.101988554,-0.094297945,0.12244711,-1.1630135,23.233274,-72.20334,
11087,-0.001198113,0.2487703,12.600017,0.2521907,-0.26367483,0.12990394,-1.77812,23.799673,-73.15378,
11107,0.03712955,0.18409237,12.195181,0.47110236,-0.2812517,0.10433763,-1.9342632,24.985878,-72.55235,
11127,-0.1473223,0.48113173,11.138775,0.5350182,-0.1321148,0.13043658,-2.549902,24.690987,-71.94519,
11147,-0.18325448,0.8524308,10.568652,0.35658652,0.20291059,0.21778819,-4.391485,23.156452,-74.13994,
11167,-0.00598906,0.59851015,10.686029,0.025289577,0.481477,0.24921347,-2.700037,23.481583,-73.7921,
11187,0.027547628,0.11701898,11.608289,-0.25540736,0.40211484,0.13043658,-1.0055618,22.46382,-74.51198,
11207,-0.029943839,-0.3477039,11.905329,-0.35234636,-0.0010873872,-0.07942033,-1.3186455,23.544289,-70.9727,
11227,-0.62402254,-0.5225737,11.608289,-0.31772527,-0.16993164,-0.23015511,-2.3926487,24.06894,-74.25554,
11247,-1.7019879,-0.24948928,11.445396,-0.19735049,-0.014403181,-0.13854246,-3.468092,23.020733,-74.27016,
11267,-1.6516827,0.1481602,11.1148205,0.017832732,0.042055782,0.1490787,-0.39186478,22.929281,-73.57353,
11287,-0.16409063,0.5386232,10.115906,0.18401386,-0.17632322,0.31525984,-0.85534096,23.237944,-72.19574,
11307,1.3330834,0.6703745,8.91098,0.14353384,-0.38990858,0.17198187,-3.1627636,23.490793,-72.72035,
11327,1.1342587,0.5841373,8.520517,-0.09295467,-0.2780559,-0.115639284,-1.7779102,24.520504,-74.24548,
11347,-0.11857656,0.3493804,9.227184,-0.28470212,0.052175786,-0.27116773,-3.00696,23.177464,-74.10574,
11367,-1.0695815,0.18648785,10.041646,-0.22398208,0.18213794,-0.1662393,-3.008974,24.651554,-74.12286,
11387,-0.77733314,0.12180993,9.586505,0.09186855,0.044186313,0.037226032,-2.2406635,24.674809,-73.3302,
11407,-0.053898618,0.3589623,7.988721,0.2740286,-0.16034427,0.039889194,-3.4713154,25.37928,-74.29755,
11427,-0.43957067,0.73265696,7.126349,0.11690224,-0.057013724,-0.08687717,-4.2338943,21.661533,-75.66635,
11447,-1.3762027,0.90752685,8.046212,-0.11425994,0.16669162,-0.05278873,-3.6230183,24.190723,-74.75185,
11467,-1.1989374,0.68953836,8.83193,-0.08603046,0.119287394,0.13789342,-2.700037,23.481583,-73.7921,
11487,-0.2575143,0.7733801,8.348043,0.10624961,-0.1337127,0.2263103,-4.3913937,23.589413,-74.76399,
11507,0.15929896,1.1015606,7.320382,0.10891276,-0.19869375,0.16345975,-2.239254,23.642944,-73.31821,
11527,-0.029943839,1.3818316,8.089332,-0.08283467,0.06123053,0.107533425,-4.700821,24.62124,-74.47412,
11547,-0.17367256,1.1327019,9.289466,-0.13449994,0.20291059,0.0819671,-4.0844707,23.893534,-74.45036,
11567,-0.073062465,0.86440825,9.6487875,0.005582201,0.06922001,0.027638663,-4.084261,24.614365,-75.54205,
11587,-0.27907363,1.0392781,9.7278385,0.16643701,-0.15821375,0.0042028637,-4.546665,24.764036,-74.93623,
11607,-0.044316724,1.5375378,9.8404255,0.27349597,-0.3717991,0.022844978,-2.5478687,24.953377,-74.11488,
11627,0.655163,1.7004303,9.459545,0.26497388,-0.35582012,-0.049592942,-5.006792,23.870262,-75.09209,
11647,0.47071117,1.8729048,9.083455,0.11370645,0.030870518,-0.14333615,-3.777485,24.77571,-74.91724,
11667,-0.08024889,1.5135831,9.562551,-0.096150465,0.394658,-0.13055299,-4.2388744,25.056574,-75.396255,
11687,-0.6192316,0.9650184,10.618957,-0.28523475,0.39838642,-0.12948771,-3.6227531,24.621368,-75.530655,
11707,-0.9210619,0.77817106,12.528152,-0.36033583,0.08626422,-0.12203088,-5.6246185,25.051777,-74.34732,
11727,-0.22397761,0.3158437,13.426456,-0.16699049,-0.27965382,-0.07302874,-5.6256256,25.788822,-74.35588,
11747,0.5665303,0.13618281,12.571272,0.19679701,-0.29616538,-0.024559248,-4.395075,26.532963,-75.10771,
11767,0.83482385,0.4931091,11.232199,0.32835704,-0.10814637,0.019649185,-4.3942127,25.653141,-74.787964,
11787,1.4552529,0.4499905,10.044042,0.13927278,0.002108403,0.036160767,-4.702286,25.94329,-74.79898,
11807,1.7091734,0.35656685,10.544697,-0.2058726,0.13047267,-0.06716979,-5.318144,26.80914,-75.44339,
11827,0.6695359,-0.14887914,12.132899,-0.36939058,0.19705163,-0.27170038,-5.9330025,26.069706,-74.98584,
11847,-0.5018531,-0.42675462,12.420356,-0.1052052,0.05963263,-0.34626883,-5.4733353,27.548485,-75.146286,
11867,-0.49945763,0.2679341,10.755499,0.32196546,-0.050622143,-0.15239088,-5.4733353,27.548485,-75.146286,
11887,0.6336037,0.68953836,8.793602,0.49507076,0.11502634,0.07930394,-5.935108,27.110834,-74.378876,
11907,1.6301228,1.0440692,7.437761,0.29107282,0.28813165,0.051074456,-5.779888,26.226398,-74.51955,
11927,1.6037725,1.0488601,7.397038,-0.16272941,0.28759903,-0.18221825,-5.623556,26.77436,-77.462524,
11947,0.7964963,0.45717692,8.383975,-0.55368114,0.079872645,-0.43362042,-5.626549,26.090588,-73.895096,
11967,-0.5449717,0.39489448,9.241556,-0.64955485,-0.014935814,-0.54174465,-7.009736,26.341232,-75.48006,
11987,-1.3067338,0.36614874,9.804494,-0.52598435,0.12727687,-0.38408566,-6.094282,29.639933,-72.70973,
12007,-1.1366549,0.30147082,9.4044485,-0.29056108,0.22368322,-0.13960773,-6.706916,28.14724,-73.32672,
12027,-0.64797735,0.76858914,8.503749,-0.15207678,0.15816951,-0.00591714,-4.7034397,26.537558,-74.49638,
12047,-0.3245877,0.89554954,8.570823,-0.19521996,0.05590421,0.0366934,-5.0138416,29.02958,-75.15201,
12067,-0.43957067,0.9338771,9.332584,-0.17284943,-0.050622143,0.053737618,-7.0153027,29.165169,-73.965256,
12087,-0.35572892,1.118329,9.414031,0.036474843,-0.11453795,0.12937132,-8.7063465,28.54522,-74.30966,
12107,0.44915187,1.3027809,8.484585,0.27030018,-0.048491616,0.23802818,-6.706623,28.432793,-73.9491,
12127,0.9018972,1.7076168,7.7707324,0.26337597,0.04365368,0.18902607,-6.7083807,29.469288,-73.65161,
12147,0.54976195,1.8249952,8.496562,0.071095906,0.08200317,0.052139726,-9.169355,29.137115,-73.70897,
12167,0.33656436,1.7267805,9.857194,-0.020516755,-0.021860026,-0.03947294,-6.5541067,29.899952,-74.581345,
12187,0.14253059,1.2093571,10.233285,0.09453171,-0.06766636,-0.090605594,-8.861217,29.425022,-74.47847,
12207,-0.27667814,0.86440825,10.132674,0.13501173,-0.090036884,-0.10179085,-8.091148,28.411781,-73.98329,
12227,-0.64797735,0.5506006,11.239386,0.027952734,-0.18005165,-0.046397153,-7.781599,27.667824,-74.7408,
12247,-0.5018531,0.13139185,12.473057,0.09399907,-0.2945675,0.05693341,-9.012919,28.236465,-74.93277,
12267,-0.27667814,-0.048269033,12.298187,0.3965339,-0.2913717,0.15333974,-8.862032,29.146418,-73.39191,
12287,-0.40363848,0.68474734,11.725668,0.58668345,-0.14809375,0.25720295,-9.324125,28.568308,-72.158585,
12307,0.03233859,1.3842272,11.325623,0.5648455,0.030337887,0.38663247,-10.091741,28.53579,-73.57019,
12327,0.9066882,1.6621027,10.487205,0.44287285,0.2801422,0.4372325,-9.934398,28.346704,-76.50461,
12347,1.1390496,1.3315266,10.005713,0.20958017,0.45963907,0.28703034,-9.473796,27.642143,-74.78259,
12367,0.935434,0.7494253,10.154234,-0.09135678,0.29186007,0.005800759,-8.7041855,27.213903,-74.60373,
12387,0.15690348,0.20804717,10.980674,-0.40454426,0.016489461,-0.31857195,-9.784261,29.556107,-74.657715,
12407,-0.92585284,-0.42435917,11.622662,-0.46952534,-0.010674759,-0.47623095,-8.706466,28.257349,-73.84204,
12427,-1.9990273,-0.5632969,11.526843,-0.31186634,0.05057789,-0.4213699,-10.243983,28.367516,-74.81015,
12447,-2.423027,-0.66869795,10.947137,,,,-9.785479,29.57232,-73.574585,
12467,-1.5319089,-0.6447432,10.360245,-0.0849652,0.038859993,-0.16836983,-8.707821,28.999027,-73.54114,
12487,-0.13534491,-0.5153874,9.936245,0.05458432,-0.16993164,0.14375237,-9.939597,30.152674,-74.04942,
12507,0.374892,-0.42915013,9.430799,0.06363907,-0.37233174,0.2364303,-9.480059,30.475342,-72.64885,
12527,-0.18325448,-0.06743288,9.021172,0.036474843,-0.32066643,0.114990264,-9.319374,28.215584,-76.0235,
12547,-0.9833443,0.15295115,9.26072,-0.032234654,-0.081514776,-0.044266626,-10.09315,29.567652,-73.582184,
12567,-1.1150956,0.30147082,9.102619,-0.09135678,0.16722426,-0.05864768,-9.0132675,28.241098,-74.62331,
12587,-0.6791185,0.48831815,8.309715,0.013571678,0.22634637,0.0702492,-9.017048,29.883446,-73.24954,
12607,-0.28865552,0.9338771,7.5551395,0.18774228,0.14059266,0.19009133,-9.936713,28.667002,-74.80597,1191.0
12627,-0.33177415,1.1422838,7.3108006,0.22129808,-0.012272654,0.19808082,-9.321288,28.241062,-74.32144,
12647,-0.7006779,1.0201144,7.679704,0.09666224,-0.105483204,0.10487026,-10.09153,29.25662,-74.661896,
12667,-0.6168361,0.9362726,8.23306,-0.022647282,-0.10495058,0.054270253,-9.320646,28.521982,-75.25325,
12687,0.03233859,0.8787811,8.558845,-0.049278874,-0.13051689,0.10487026,-8.089875,28.105381,-74.753525,
12707,0.22637233,1.0608375,8.817556,0.014104309,-0.1539527,0.17784081,-10.246053,30.13179,-75.14015,
12727,0.14971703,1.3003854,9.229579,0.080683276,-0.09749374,0.12830606,-9.936448,29.097649,-75.58478,
12747,0.374892,1.5279559,9.08585,0.12915279,-0.09536321,0.04521551,-10.244121,29.09298,-75.59238,
12767,0.3820784,1.5016056,8.946913,0.16217594,-0.1976285,-0.0048518754,-9.322907,28.552094,-73.24173,
12787,0.16169444,1.3411086,9.354144,0.087607495,-0.14756112,-0.07888769,-10.553688,28.100456,-72.64804,
12807,0.09701651,1.4105774,10.465646,-0.07591046,0.01009788,-0.1076498,-11.166679,28.493967,-75.29884,
12827,0.34854174,1.3435041,11.066911,-0.17338206,0.074013695,-0.055984523,-9.32235,29.268293,-74.6429,
12847,0.4659202,1.2165437,10.3554535,-0.041289393,0.032468412,-0.018700302,-8.397603,28.390898,-75.07402,
12867,0.22637233,1.4393232,9.821261,0.18507911,-0.015468445,-0.09220348,-10.24499,29.10456,-74.81871,
12887,0.0107792765,1.3027809,10.532719,0.1445991,-0.10335268,-0.21257827,-9.936559,29.678019,-76.210556,
12907,0.1329487,0.94585454,11.821486,-0.11852099,-0.18378007,-0.25305825,-11.013356,29.37149,-75.924255,
12927,0.5066433,0.35177588,12.446707,-0.33104107,-0.24716325,-0.22749196,-11.474297,28.199112,-74.99356,
12947,0.79170537,-0.0985741,11.723271,-0.3161274,-0.159279,-0.20938249,-12.398348,29.067244,-75.181366,
12967,0.33656436,-0.10096955,11.447792,-0.21066628,0.007967353,-0.19926247,-10.547875,26.720499,-76.19151,
12987,-0.3677063,-0.32374904,12.334119,-0.29322422,0.1160916,-0.24187301,-10.089424,28.215492,-75.26883,
13007,-0.7126552,-0.388427,12.657509,-0.37258634,0.15923479,-0.21524143,-10.5496235,28.625237,-76.98744,
13027,-0.31740126,-0.050664514,11.014211,-0.12651047,0.12887478,-0.05332136,-11.781099,28.182861,-75.774826,
13047,0.26949096,0.4931091,8.870256,0.32569388,0.042588413,0.14321975,-10.088087,28.487146,-76.81958,
13067,0.91147923,0.81889415,8.151613,0.49666864,-0.03730635,0.22417977,-10.553259,30.410358,-75.92485,
13087,1.2516371,0.71109766,8.851093,0.22875491,-0.013337918,0.19009133,-8.856539,27.626001,-76.46945,
13107,0.91866565,0.42124474,9.552969,-0.16326205,0.09478633,0.06279235,-9.781633,28.50803,-75.72885,
13127,0.14253059,0.51706386,10.113511,-0.3315737,0.23114006,-0.08101822,-8.391945,25.999924,-77.21289,
13147,-0.33177415,0.51227295,10.048833,-0.29908317,0.24711902,-0.17156562,-8.704084,28.515106,-76.3212,
13167,-0.5761129,0.6991203,9.021172,-0.11745573,0.13739689,-0.1779572,-10.39435,27.450615,-76.8152,
13187,-0.56653106,0.85961735,8.249828,0.08334644,-0.02345792,-0.13215087,-9.47364,28.65316,-76.18718,
13207,-0.4946667,0.90034044,8.455839,0.101988554,-0.06553583,-0.056517158,-10.088902,28.208542,-75.73303,
13227,-0.38207918,1.1374928,8.855884,0.00824536,0.0255442,0.043617614,-8.24036,26.900612,-76.29097,
13247,0.2647,1.3219447,8.621127,-0.005070434,0.08093791,0.16186185,-11.162376,26.844673,-77.136826,
13267,0.6695359,1.5902383,8.1588,0.0977275,0.03832736,0.25187665,-11.162376,26.844673,-77.136826,
13287,0.68869966,1.6764755,8.292947,0.16270858,-0.018131604,0.22844082,-8.697969,25.539131,-78.14375,
13307,0.51382977,1.8106223,8.597173,0.14353384,-0.014403181,0.1623945,-8.697969,25.539131,-78.14375,
13327,0.34135532,1.8657182,9.102619,0.11317382,0.007434721,0.11818606,-8.08246,24.677912,-77.18988,
13347,0.51382977,1.6860574,9.5362,0.09985802,-0.008544232,0.09155447,-7.623991,27.909384,-78.454025,
13367,0.5329936,1.3722497,9.943432,0.12329382,-0.03251266,0.10700079,-6.3877726,24.380978,-79.001465,
13387,0.19762662,1.0584421,10.451273,0.16324121,-0.009609495,0.091021836,-8.08387,25.709774,-77.20186,
13407,0.11138937,0.7374479,10.915996,0.20052543,-0.08790636,0.050009195,-8.389317,24.951847,-78.28404,
13427,0.40124232,0.42364025,10.753103,0.2628433,-0.2844475,0.0484113,-7.7743206,24.965816,-77.959366,
13447,0.26949096,0.727866,10.549488,0.34220546,-0.36434224,0.0601292,-7.6184063,24.072117,-78.71896,
13467,-0.06348054,1.2979898,10.245262,0.3709676,-0.12678847,0.08463026,-7.926894,23.788843,-77.640015,
13487,-0.26470074,2.0884976,10.645307,0.3294223,0.17042005,0.17890607,-7.1587934,25.84108,-79.19232,
13507,0.38926488,2.284927,11.064516,0.23195072,0.33500323,0.28756297,-7.6163187,24.044321,-80.57576,
13527,1.4025522,1.7100123,10.228494,0.21011281,0.28493586,0.3264451,-5.9257774,23.657887,-78.5173,
13547,0.83721936,1.233312,9.909895,0.13128331,0.083601065,0.1576008,-5.618456,23.667187,-78.20024,
13567,-0.80847436,0.2152336,11.11003,-0.23410209,0.039392624,-0.18488142,-6.8465986,23.035713,-79.77112,
13587,-2.1762927,-0.35728577,12.674277,-0.6527507,0.23753165,-0.37662882,-5.618355,24.96839,-79.917725,
13607,-2.3607445,-0.2207435,12.676673,-0.6996223,0.38347274,-0.25092775,-4.6930313,23.793861,-80.50015,
13627,-1.7235471,0.047550112,11.354368,-0.35927054,0.22102007,0.0063333907,-5.3101234,22.939444,-77.8746,
13647,-0.5258079,0.25835222,10.252448,0.017300101,-0.11453795,0.17997134,-5.770075,24.793167,-81.62187,
13667,0.7006771,0.05473654,9.564946,0.13501173,-0.45861807,0.2497461,-5.3099136,23.660275,-78.96631,
13687,0.26230454,-0.0027549267,9.20802,0.022093786,-0.52306646,0.1826345,-5.4620743,23.056725,-79.73692,
13707,-0.74140096,-3.594756E-4,9.5960865,-0.1925568,-0.2194664,0.0031376001,-5.0026703,24.104855,-79.11859,
13727,-0.7821241,0.10025062,9.782935,-0.33796528,0.16722426,-0.0011234536,-5.4621086,25.08339,-82.23663,
13747,-0.19523187,0.4044764,9.140945,-0.27511474,0.23114006,0.16878606,-4.6943035,24.10026,-79.729904,
13767,0.12576225,0.8811766,7.751569,-0.070051506,0.003173667,0.2396261,-6.0797806,24.526108,-79.45978,
13787,-0.291051,1.348295,7.504834,0.07322644,-0.1507569,0.17304713,-4.6952553,24.54712,-79.42558,
13807,-0.6359999,1.2428938,8.278574,-0.033299915,-0.061807405,0.110196576,-6.3874807,24.666533,-79.623825,
13827,,,,-0.12597784,0.022348411,0.17091659,-4.8478374,25.251719,-81.44948,
13847,-0.22876856,1.1327019,8.436675,0.0029190425,-0.056481093,0.27584508,-5.004547,24.853481,-78.353485,
13867,0.32219148,1.3746452,8.204314,0.14193594,-0.23704325,0.28596509,-3.4629726,24.399857,-80.63135,
13887,0.87794244,1.5111876,8.278574,0.14353384,-0.40269175,0.17091659,-4.077183,24.809582,-82.19902,
13907,1.5822133,1.559097,7.6365857,0.04233379,-0.525197,-0.08208348,-3.3074093,23.510788,-81.08147,
13927,0.935434,1.7627128,7.8258286,-0.20320943,-0.50762016,-0.40698883,-3.7722664,24.70622,-79.559235,
13947,0.11857581,1.5423288,9.466731,-0.27511474,-0.306818,-0.46078464,-4.8490562,25.267933,-80.36635,
13967,0.20241755,1.2045662,9.972177,-0.1052052,-0.10654847,-0.30845195,-5.0011063,24.08401,-80.51117,
13987,0.47789764,1.0823969,10.889646,0.0742917,0.15603898,-0.1662393,-5.3086586,24.36721,-80.98639,
14007,0.5042479,0.99376416,11.275318,0.32835704,0.38080958,-0.08687717,-3.3099174,24.846735,-80.477936,
14027,0.48268855,1.0967697,10.197351,0.5765634,0.46762854,-0.0623761,-4.3840046,23.056852,-80.79346,
14047,0.47789764,1.0440692,9.112201,0.47270024,0.36216745,-0.13161825,-3.767414,22.904882,-81.70494,
14067,0.03712955,1.0704194,9.766166,-0.015190437,0.06549159,-0.32016987,-2.3863316,23.695366,-79.51306,
14087,-0.7078643,0.74702984,11.665781,-0.40614215,-0.10495058,-0.4229678,-4.2289867,22.319824,-80.93584,
14107,-0.9785533,0.5817418,12.568876,-0.3901632,0.027674727,-0.30152774,-3.6144772,23.063892,-81.08394,
14127,-0.17846352,0.13857828,12.015521,-0.26073366,0.20184532,-0.14386877,-1.4631882,24.865486,-81.051285,
14147,0.23355877,-0.13929722,12.255068,-0.33050847,0.16775689,-0.07302874,-1.4617233,23.543436,-80.72641,
14167,0.38926488,-0.28063044,13.268355,-0.35767266,-0.065003194,-0.0772898,-0.38386345,22.822733,-80.69125,
14187,0.4874795,-0.24709377,13.103067,-0.15687047,-0.28178433,-0.13907509,-1.4613113,24.11686,-81.81639,
14207,0.26230454,0.29188892,11.454979,0.10571697,-0.19390006,-0.121498235,-0.23235321,25.026937,-81.33208,
14227,0.07066625,0.5961147,9.845217,0.24526651,0.2082369,0.091021836,-0.9993725,23.68395,-81.64511,
14247,0.17606732,0.94825006,9.18646,0.23674439,0.4500517,0.3232493,-1.4627857,24.570667,-81.04787,
14267,1.2612191,1.0344872,8.482189,0.19466649,0.2902622,0.378643,-1.0009384,23.704796,-80.25253,
14287,2.0660996,1.1207244,7.0544844,-0.035430446,-0.015468445,0.07664078,-2.0762253,23.667608,-81.67171,
14307,0.99532104,1.0201144,6.9490833,-0.43170846,0.007434721,-0.34147513,-2.0773888,23.393639,-80.275696,
14327,-0.35093796,0.64641976,8.338461,-0.67884964,0.18054006,-0.45226255,-1.1558094,24.584602,-80.421326,
14347,-1.3235023,0.4595724,9.025963,-0.58084536,0.20291059,-0.3175067,-0.84420776,23.0897,-82.09868,
14367,-1.1630051,0.4188493,8.83193,-0.3480853,0.06975264,-0.05278873,-1.1552048,24.142374,-80.41618,
14387,-0.22637309,0.42124474,8.846302,-0.2143947,-0.06287266,0.0904892,-0.23135567,23.421654,-80.2301,
14407,0.6048579,0.6631881,9.090641,-0.12224942,-0.057013724,0.053204987,-0.38586807,25.165064,-81.80179,
14427,0.4132197,1.0440692,9.121782,0.017832732,0.038859993,-0.01763504,0.22966766,24.158752,-80.69147,
14447,-0.15929969,1.3363175,8.573217,0.19200332,0.14165793,-0.010710826,0.69319916,23.559906,-81.75635,
14467,-0.15690422,1.4728599,8.266597,0.22662438,0.13686424,0.097946055,1.1536732,24.449047,-81.90996,
14487,0.34854174,1.5998201,8.920562,0.15045805,-0.005348441,0.18849345,0.99959755,23.870975,-80.978516,
14507,0.88033795,1.5423288,9.102619,0.15684964,-0.119331636,0.14162184,1.3087368,22.553596,-80.64604,
14527,0.6863043,1.3986,8.800788,0.1078475,0.0063694576,-0.003253981,1.6154099,24.163551,-81.7404,
14547,-0.19283639,1.0991652,9.993737,-0.08283467,0.24285798,-0.054386627,3.0028381,21.685556,-81.212906,
14567,-0.65037274,0.43322214,11.953238,-0.10307467,0.19705163,0.020714449,1.9231663,23.73294,-81.26347,
14587,-0.4802938,-0.09378314,12.473057,0.15791489,-0.15821375,0.07823867,1.001934,22.537346,-81.42731,
14607,-0.039525762,-0.26865306,11.53882,0.4450034,-0.37606016,0.10700079,1.1554317,23.412552,-82.20744,
14627,-0.54257625,0.30865726,10.899228,0.38215286,-0.22372745,0.12670816,1.923357,22.717293,-80.16835,
14647,-1.1055137,0.7614027,11.991566,0.18188332,0.09052528,0.30141142,1.9278431,21.933922,-83.254456,
14667,-0.20720926,1.0057415,11.924492,0.22129808,0.11023265,0.5171273,0.6946659,22.237858,-81.43147,
14687,1.1198859,0.957832,10.822572,0.16963279,-0.010142127,0.41166618,0.6946659,22.237858,-81.43147,
14707,1.2300779,0.33261204,11.133984,-0.189361,-0.010674759,0.022844978,3.6177788,21.989712,-81.20114,
14727,-0.5689265,-0.5082009,12.944966,-0.47112322,0.09851476,-0.31803933,3.0041294,20.365824,-80.73329,
14747,-2.1547332,-1.0040649,13.668401,-0.32145372,0.009565247,-0.2860814,2.6965485,20.794117,-81.36496,
14767,-2.2649252,-0.8196131,12.698232,0.07322644,-0.18697587,0.05160709,3.770115,22.59095,-80.58525,
14787,-1.1055137,-0.29979423,10.700403,0.43594867,-0.16034427,0.41273144,2.6932049,22.864792,-80.92473,
14807,0.21439496,0.14336924,8.443862,0.47110236,0.037794728,0.52831256,3.771387,22.28455,-81.355484,
14827,0.95938873,0.47873622,7.842597,0.11210856,0.18533374,0.41113356,5.312704,19.518705,-80.51129,
14847,0.8491968,0.3278211,8.391161,-0.23996103,0.12141792,0.17144923,3.1583385,20.218433,-80.88252,
14867,0.33656436,0.07629584,8.934935,-0.30654,-0.012805285,-0.03414662,3.003378,20.665274,-80.42726,
14887,-0.45394355,0.19606978,8.803184,-0.14781573,-0.060742144,-0.10658454,3.773281,20.52259,-80.87074,
14907,-0.7533784,0.20565169,7.631795,-0.025843073,-0.06926425,-0.040538203,3.3107014,20.674576,-80.11018,
14927,-0.7941015,0.30865726,7.5287895,-0.13130416,-0.023990551,0.0702492,2.2348118,21.079615,-81.534515,
14947,-0.4156159,0.34458944,8.249828,-0.2026768,0.061763156,0.15280712,4.3891754,20.379887,-81.1633,
14967,-0.18564996,0.3853126,8.5396805,-0.08549783,0.1043737,0.14321975,3.3110504,20.669943,-80.41966,
14987,-0.346147,0.6991203,8.360021,0.07322644,-0.06393793,0.08782605,5.312704,19.518705,-80.51129,
15007,-0.085039854,0.888363,8.175569,0.16643701,-0.30095908,0.065988146,3.9266949,19.08326,-78.68355,1272.0
15027,0.09462103,0.99376416,7.9767437,0.17336121,-0.30841592,0.043617614,4.234745,18.938206,-78.82898,
15047,-0.37489277,1.1494702,8.25462,0.13927278,-0.02292529,0.046813406,4.697176,18.64344,-79.278366,
15067,-0.6647457,1.3890182,8.18515,0.10997802,0.18959479,0.124577634,4.543871,19.5024,-80.83977,
15087,-0.039525762,1.5327468,8.225874,-0.024245178,0.12354844,0.18902607,5.313511,18.92907,-80.504456,
15107,0.8060781,1.3195492,9.464335,-0.19628522,-0.07618846,0.124577634,5.3108807,19.977146,-79.433304,
15127,0.9450159,1.0512556,10.709985,-0.14941363,-0.15555058,-0.10551928,5.620083,19.23782,-79.88133,
15147,-0.35333344,0.98418224,10.83455,0.071095906,-0.04955688,-0.27436352,5.0080338,18.316233,-81.74306,
15167,-0.9737624,0.85482633,10.398573,0.19839491,-0.046361085,-0.16570668,4.237564,16.874477,-78.80502,
15187,-0.29344648,0.72547054,10.403364,0.1179675,-0.15714848,-0.017102407,5.0081444,17.73586,-81.117294,
15207,0.154508,0.5434141,11.46456,-8.0937985E-4,-0.20188956,-0.02189609,5.4666214,19.08576,-80.03816,
15227,0.0083838105,0.5266458,12.314955,-0.0077335928,-0.23384745,-0.09966033,5.00753,17.309849,-80.02902,
15247,0.40603328,0.46675885,12.192786,0.044464316,-0.25515273,-0.0975298,5.46838,18.049265,-80.33565,
15267,1.0695808,0.5506006,12.008334,-0.011994647,-0.1843127,-0.05332136,3.927391,19.073996,-79.30249,
15287,1.6684504,0.15774211,12.075408,-0.11479258,0.040457886,-0.03787504,5.4681683,17.328434,-79.24396,
15307,1.2013321,-0.23032543,12.535338,-0.14248942,0.176279,-0.11297612,7.6197147,18.692432,-78.8967,
15327,0.324587,0.01640886,12.149667,0.015169572,0.10064528,-0.20725195,5.7741375,18.079414,-78.62598,
15347,-0.21679117,0.3589623,11.059725,0.18348122,0.10171054,-0.19819722,6.697668,17.218231,-77.97398,
15367,-0.21439569,0.48592266,10.149443,0.19892754,0.20770428,-0.08794243,4.3924713,16.717823,-79.573166,
15387,0.10899392,0.44519955,9.493082,0.12755488,0.2923927,-0.005384508,6.3920193,16.607712,-79.05786,
15407,0.30063218,0.48113173,9.0547085,0.04286642,0.24445586,0.0047354954,6.543804,17.36099,-78.13422,
15427,0.58808964,0.59132373,8.163591,-0.083367296,-0.05594846,-0.085811906,7.009533,16.153976,-80.43013,
15447,0.48987502,0.55299604,8.324088,-0.31186634,-0.21200955,-0.20245826,5.3138943,16.89777,-78.31421,
15467,0.046711475,0.33979848,9.0547085,-0.43916532,-0.10495058,-0.2179046,6.852804,16.769073,-78.58397,
15487,-0.34375155,0.44519955,9.279883,-0.35394424,0.08573159,-0.106051914,5.9301624,16.605341,-78.759796,
15507,0.03233859,0.447595,8.927749,-0.16326205,0.22847691,0.100609206,7.1595516,17.07551,-78.1156,
15527,0.43956995,0.5314368,8.522913,-0.021049386,0.24072744,0.14854605,6.8501205,18.107338,-77.825714,
15547,0.36291462,0.71828413,8.33367,0.06683486,0.12727687,0.09528289,7.1595516,17.07551,-78.1156,
15567,0.3102141,1.0392781,7.564721,0.051388532,-0.0751232,0.009529181,7.927725,17.824228,-78.10516,1192.0
15587,0.27428192,1.1710294,7.852179,-0.07058414,-0.02931687,-0.017102407,5.930052,17.18571,-79.385574,
15607,0.42998803,1.12312,8.506145,-0.07910624,0.12141792,0.040421825,4.696068,18.079285,-77.56944,
15627,0.5377846,1.2668487,8.522913,-0.0029399067,0.16083267,0.028703924,6.6964493,17.234446,-76.890854,
15647,0.3772875,1.5135831,8.867862,0.046062212,0.13846214,-0.03095083,7.0053406,17.2229,-77.966385,
15667,0.42519706,1.6908484,8.963681,0.078020126,0.07507896,-0.049592942,8.386679,17.57579,-75.45987,
15687,0.5186207,1.4273458,9.049918,0.05351906,0.06282842,-0.079952955,7.1595516,17.07551,-78.1156,
15707,0.09701651,1.0344872,9.4044485,-0.046615712,0.008499985,-0.13854246,8.69762,16.813303,-77.455246,
15727,-0.7078643,0.73984337,10.520741,-0.18882838,-0.048491616,-0.10658454,9.159393,17.250952,-78.22264,
15747,-0.7006779,0.3158437,12.101758,-0.18243681,-0.08897162,0.052672356,8.235046,17.83353,-77.7881,
15767,-0.06108506,0.04275915,12.767701,0.08973802,-0.159279,0.20553765,9.926001,18.020517,-76.819626,1116.0
15787,0.47550213,0.16971952,12.120922,0.40718654,-0.22639062,0.25560507,7.160963,16.043646,-78.10362,
15807,0.6192308,0.7949394,10.882459,0.4583192,-0.22692324,0.16825344,9.316753,16.048534,-79.90723,
15827,0.32937795,1.3842272,10.769872,0.1813507,-0.081514776,0.059063938,8.239086,15.753588,-78.84726,
15847,-0.22876856,1.2381029,11.191476,-0.089226246,0.19225796,0.028171293,9.00518,17.398344,-78.073425,
15867,-0.50664407,0.6152785,11.239386,-0.2277105,0.33500323,0.013257603,7.9292526,17.080235,-78.56081,
15887,-0.5880903,0.20086074,11.414255,-0.3949569,0.25084743,-0.083681375,9.006508,16.801758,-78.53078,
15907,-0.9210619,-0.5225737,12.082594,-0.54302853,0.20717163,-0.1944688,9.008963,15.755997,-79.447205,
15927,-1.8385302,-0.9130367,12.600017,-0.44395903,0.30357796,-0.1678372,8.3908615,15.638628,-76.830215,
15947,-2.118801,-0.7764945,12.226323,-0.12491258,0.22421585,-0.0011234536,9.159586,16.235304,-77.12755,
15967,-1.3330841,-0.40279987,10.8968315,0.19892754,-0.04103477,0.21725556,9.468475,16.223759,-78.203064,
15987,-0.20720926,-0.20157966,9.306233,0.30651912,-0.26740324,0.3195209,10.23752,16.960896,-78.96629,
16007,0.60964894,-0.14648366,8.525309,0.1414033,-0.33185172,0.20766819,9.00518,17.398344,-78.073425,1046.0
16027,0.7749369,-0.23751184,8.822348,-0.08123677,-0.17206217,0.02444287,10.388491,17.43557,-76.9561,
16047,0.44915187,-0.25428018,9.140945,-0.13982625,0.09372107,-0.0890077,9.160721,16.654367,-78.68001,
16067,-0.23355952,-0.16564748,9.131364,-0.070051506,0.2689569,-0.11404139,9.314877,16.797163,-79.14212,
16087,-0.8108699,-0.09617859,8.712155,0.05937801,0.24126007,-0.06077821,9.314877,16.797163,-79.14212,
16107,-0.6647457,0.13378733,8.000699,0.16750227,5.105081E-4,0.04628077,11.006697,16.972569,-78.947296,
16127,-0.04192123,0.41166285,7.5287895,0.18081805,-0.16833375,0.082499735,11.006697,16.972569,-78.947296,
16147,0.11378488,0.667979,7.5479527,0.12755488,-0.094297945,0.04468288,10.696077,17.875515,-77.41783,
16167,-0.04910767,0.7518208,7.916857,0.08973802,0.04365368,0.026040766,10.696562,17.14542,-76.94508,
16187,-0.2575143,0.8859676,8.163591,0.11636961,0.104906335,0.050009195,10.695467,17.449503,-76.329575,
16207,-0.07545793,1.0416737,8.168382,0.18774228,0.0841337,0.09741342,11.163786,14.471264,-78.75966,
16227,0.38447392,1.3123628,8.086936,0.2250265,-0.043165296,0.069716565,12.23411,16.890162,-75.820526,
16247,0.6527675,1.6213795,8.393557,0.156317,-0.16140953,-0.04266873,10.084246,15.793184,-78.028,
16267,0.655163,1.5399333,8.795997,0.0726938,-0.12519057,-0.14653192,11.004728,17.288233,-77.558136,953.0
16287,0.029943138,1.4057864,9.243952,-0.027440967,-0.010674759,-0.22429617,11.772665,17.461212,-76.61244,
16307,-0.39645207,1.0895833,10.362639,-0.121184155,0.021815779,-0.17902248,10.083151,16.097267,-77.41249,
16327,-0.21679117,0.81649864,11.205849,-0.073779926,-0.050622143,-0.09486665,11.159079,16.415379,-76.925125,
16347,-0.180859,0.86440825,11.277713,0.06790012,-0.088438995,-0.07835506,10.389818,16.838984,-77.41345,
16367,-0.2694917,0.8500354,11.244176,0.16057804,-0.044763193,-0.11137823,11.312284,17.005032,-77.08292,866.0
16387,-0.5952768,1.1494702,11.646617,0.15365383,-0.08311268,-0.14812984,12.234175,17.468216,-76.60104,
16407,-0.26470074,1.2572668,12.202368,0.13980542,-0.23970641,-0.1310856,12.852484,15.556604,-76.87305,
16427,0.6719314,0.99136865,11.7616,0.15684964,-0.3419717,-0.14227088,11.469698,15.51243,-78.454575,
16447,0.87794244,0.6104876,11.344787,0.021561153,-0.2077485,-0.27702668,11.313501,16.98882,-78.16603,
16467,0.22637233,-0.055455476,12.075408,-0.22717786,0.027142096,-0.38568357,11.006292,17.267385,-78.950714,776.0
16487,-0.46352547,-0.57287884,13.263565,-0.29588735,0.18054006,-0.38834673,12.235132,17.889597,-77.99878,
16507,-0.9282483,-0.7213985,13.354593,0.003984306,0.2636306,-0.27649406,11.6163845,19.372879,-76.79323,721.0
16527,-0.65276825,-0.18241584,11.409464,0.45246023,0.27215272,-0.084746644,11.617392,18.635834,-76.78467,
16547,0.075457215,0.4715498,9.131364,0.6042603,0.26469585,0.05959657,12.84865,17.489136,-75.81218,
16567,0.7509821,0.8021258,7.916857,0.40505603,0.2503148,0.09155447,12.387186,19.07352,-77.85394,
16587,1.2228913,0.8835721,7.7611504,0.015169572,0.18693163,-0.018700302,12.695463,18.635962,-77.84122,
16607,1.0647899,0.56976444,7.8761334,-0.38483688,0.1528432,-0.25092775,12.697138,18.034744,-78.60803,638.0
16627,0.08743459,0.29667988,8.467817,-0.662338,0.24392323,-0.42083725,13.00178,19.382309,-77.5327,
16647,-0.8635704,0.15774211,9.385284,-0.6889696,0.3477864,-0.3563888,12.694403,19.663193,-78.16266,
16667,-1.4001575,0.18409237,9.744607,-0.4535464,0.26789165,-0.17742456,15.922697,19.742332,-76.071335,569.0
16687,-1.3929712,0.43561763,9.411634,-0.096150465,0.0255442,0.032432348,14.694082,18.827618,-76.86513,
16707,-0.42280233,0.7518208,8.51333,0.16643701,-0.22159693,0.18849345,14.538519,19.716688,-76.41499,496.0
16727,0.600067,1.0752103,7.7324047,0.18188332,-0.23491272,0.15120922,13.308882,20.552353,-78.46719,
16747,0.1880447,1.2428938,7.9192524,0.06683486,-0.02345792,0.011127076,12.385721,20.395569,-78.17882,
16767,-0.33656508,1.3578769,8.223478,0.06630222,0.04684947,0.024975501,13.463289,19.389313,-77.5213,446.0
16787,-0.113785595,1.7746902,7.9599752,0.075889595,-0.08204742,0.113925,13.460882,22.026463,-78.635254,
16807,0.38926488,1.8513454,8.503749,0.022093786,-0.11560321,0.14321975,13.30958,20.543087,-79.086136,398.0
16827,0.6407901,1.7914585,9.152924,0.009843254,-0.113472685,0.09528289,13.922487,20.584854,-76.90466,
16847,0.9090837,1.7363626,9.50985,0.044996947,-0.0868411,-5.8190548E-5,13.922293,21.600504,-77.99979,
16867,0.49945688,1.3435041,10.075183,-0.005070434,-0.0852432,-0.17156562,13.307608,20.858753,-77.69696,349.0
16887,-0.53299433,0.64402425,11.004629,-0.053539924,-0.10974426,-0.25998247,14.386221,19.8386,-77.96785,
16907,-0.9210619,0.39489448,11.246572,0.04286642,-0.16354007,-0.1342814,14.538885,21.448536,-78.91127,303.0
16927,-0.64797735,0.5314368,11.102843,0.2117107,-0.12146217,0.08889131,13.30876,20.264484,-77.99957,
16947,-0.12815847,0.6104876,11.133984,0.29373598,-0.098559,0.25347453,15.615469,21.034231,-78.105865,
16967,0.09701651,0.91471326,11.304063,0.33368334,-0.12412532,0.2545398,13.46142,21.00618,-77.84961,262.0
16987,0.027547628,1.5926337,10.839341,0.4082518,-0.076721095,0.24441978,15.155172,20.142773,-78.106995,
17007,0.25990906,1.8178087,9.747002,0.3794897,0.047914732,0.24388714,14.846693,20.727741,-78.121445,233.0
17027,0.42759258,1.458487,8.908585,,,,13.616594,21.28017,-79.39656,
17047,0.37010103,0.5817418,9.794911,0.06896538,0.14325583,0.12511027,14.077631,21.003937,-78.60808,
17067,-0.3701018,-0.74295783,12.592831,-0.5238538,0.1411253,-0.0655719,15.001429,20.573402,-78.73488,200.0
17087,-1.4911858,-1.3011042,14.631383,-0.98031914,0.05004526,-0.24080774,15.153231,23.06316,-79.99805,
17107,-1.9056035,-1.1406072,14.121146,-0.8631402,-0.15874638,-0.2839509,14.998903,22.92268,-79.38121,155.0
17127,-1.1630051,-0.76212156,11.692131,-0.24315682,-0.25888115,-0.10072559,15.766981,23.238438,-78.74669,
17147,0.41801065,-0.35489032,9.586505,0.3986644,-0.13424532,0.20926608,14.846098,22.038208,-79.219986,
17167,1.0264621,-0.12731981,9.172088,0.47003707,-0.1608769,0.28703034,14.537821,22.475765,-79.23273,129.0
17187,0.4874795,-0.3477039,9.512245,0.11530435,-0.21786849,0.0366934,14.691034,23.93366,-80.4839,
17207,-0.0682715,-0.15127462,8.855884,-0.12544522,-0.12146217,-0.21470879,14.539389,22.454918,-80.625336,113.0
17227,-0.4946667,0.009222448,8.5396805,-0.16166416,-0.033577926,-0.31218037,13.770208,22.443245,-80.64433,
17247,-0.88752514,0.08587776,8.6714325,-0.20427471,0.10703686,-0.29353827,13.460287,23.33693,-79.733795,
17267,-1.1103047,0.21044263,8.937331,-0.20161155,0.22261797,-0.21364354,14.68841,24.981739,-79.412766,98.0
17287,-1.0480223,0.5410187,8.453444,-0.073779926,0.24285798,-0.10445402,15.766947,25.265102,-81.24638,
17307,-1.016881,1.0823969,7.4305744,0.1781549,0.186399,0.019649185,15.306536,24.954018,-81.87331,86.0
17327,-0.8132653,1.2309165,6.9179425,0.32516125,0.14698425,0.113925,14.538046,24.064838,-81.41783,
17347,-0.2575143,1.4417187,6.8341002,0.29639915,0.19438848,0.21778819,14.538183,23.339375,-80.635605,
17367,0.34854174,1.6141931,7.4305744,0.14832753,0.120352656,0.25400716,14.54067,23.01676,-82.48898,
17387,0.47789764,1.5303513,8.542076,-0.062062036,-0.08204742,0.15600291,16.077528,23.639008,-81.8389,
17407,-0.07066698,1.3219447,9.651183,-0.20853576,-0.15288743,-0.0069824033,14.690897,24.659126,-81.26613,76.0
17427,-0.5593446,1.1973798,10.142256,-0.23356944,-0.043165296,-0.14546667,16.231459,24.074305,-82.45917,
17447,-0.15450874,1.2261256,9.9602,-0.065257825,0.1043737,-0.110845596,15.922571,24.08585,-81.38364,
17467,0.47310662,1.2692441,9.423613,0.15684964,0.11715686,0.024975501,15.771681,23.175896,-82.9245,69.0
17487,0.5090388,1.2189391,10.094347,0.17442648,-0.0735253,0.009529181,15.15217,24.09039,-80.31949,
17507,0.07066625,0.7997304,10.911205,0.014636941,-0.1709969,-0.12362876,15.15217,24.09039,-80.31949,
17527,-0.5018531,0.19606978,11.383114,-0.06845361,-0.10335268,-0.23068775,14.692251,23.917446,-81.56705,
17547,-1.0096946,0.047550112,12.46108,-0.06365992,0.0069020893,-0.24293828,16.231596,23.34884,-81.67694,
17567,-0.62162703,0.282307,13.3402195,-0.004537802,0.007434721,-0.15665194,13.769213,24.048532,-81.74629,63.0
17587,0.7605641,0.3709397,12.552108,0.21117806,-0.18484534,0.007931286,14.999735,24.937767,-82.65457,
17607,2.0900548,0.90752685,11.172312,0.49826658,-0.393637,0.15387239,13.769678,24.331768,-82.52339,
17627,2.6482012,0.82128966,10.017691,0.5217024,-0.36061382,0.12244711,15.15476,25.06898,-83.890335,
17647,1.6133543,0.23200196,9.806889,0.28627914,0.018619988,-0.068235055,13.924971,24.89363,-84.537964,
17667,-0.36531085,-0.21355706,10.863295,-0.072714664,0.38507062,-0.37662882,15.768862,25.239624,-82.948456,
17687,-1.5247225,-0.5465286,11.867001,-0.3864348,0.41383272,-0.6227047,12.690062,26.088968,-82.26106,
17707,-1.6109596,-0.27344403,11.409464,-0.35447687,0.22474849,-0.5758331,13.9236965,25.200027,-83.767715,
17727,-0.81566083,0.37573066,9.476313,0.035409577,0.081470534,-0.30898458,15.000605,24.926186,-83.42824,58.0
17747,0.21679044,0.8356626,7.327569,0.41624126,0.047914732,-0.022428725,15.615168,25.380066,-83.26344,
17767,0.99532104,0.9722048,7.0520887,0.39067495,0.005836825,0.0702492,13.619349,24.138016,-85.46539,
17787,1.1749818,0.49790007,8.331275,-0.08549783,-0.023990551,-0.025624514,13.309515,25.46466,-85.17894,
17807,0.08503914,0.27991152,9.639206,-0.6032159,-0.019196866,-0.26317826,14.847086,25.06431,-83.897934,
17827,-0.94022566,0.27751604,9.984155,-0.7667338,0.16775689,-0.496471,12.845224,25.494717,-82.7146,
17847,-1.3785982,0.35656685,9.627228,-0.57019275,0.38560328,-0.47090462,13.920473,27.558573,-83.79512,
17867,-1.2588243,0.5961147,9.0068,-0.24209155,0.35311273,-0.27702668,13.923559,25.925491,-84.54994,
17887,-0.5401808,0.81410325,8.503749,0.008777991,0.042055782,-0.10232349,14.535379,27.139582,-82.846375,
17907,-0.034734815,1.1398883,7.9575796,0.11477171,-0.26900116,-0.019765563,13.460962,27.090813,-85.039246,
17927,-0.14013585,1.2524759,7.9911165,0.08281381,-0.30894855,-0.02189609,12.075567,27.081383,-84.299774,
17947,-0.13055395,1.3458996,8.551659,-0.01252728,-0.03464319,-0.008047667,14.689707,27.28006,-83.46323,
17967,0.3772875,1.4465095,9.203229,-0.046615712,0.15870215,0.08569552,12.998648,27.673443,-85.05748,
17987,0.79410076,1.4632779,9.823658,-0.01572307,0.019152619,0.11978395,12.38376,27.079102,-84.75636,
18007,1.1653999,1.5135831,10.003319,0.05405169,-0.31587276,0.010594444,12.227461,27.254288,-82.75035,
18027,0.6695359,1.623775,9.605669,0.16270858,-0.44157386,-0.13481404,12.074762,27.671017,-84.30661,61.0
18047,-0.24074596,1.5183738,9.452359,0.23887493,-0.16354007,-0.272233,11.151636,28.237381,-84.9552,
18067,-0.5090395,1.228521,10.204539,0.21224333,0.20610636,-0.26637405,12.076902,27.353037,-85.850525,
18087,-0.029943839,0.8811766,11.160335,0.08494433,0.22421585,-0.1342814,11.4617405,28.209623,-87.11386,
18107,0.3772875,0.6607926,11.366345,0.08281381,0.018619988,-0.024559248,11.613676,29.105677,-86.5014,
18127,-0.056294113,0.7590072,11.634639,0.21011281,-0.14330006,-0.016569776,11.772581,26.145931,-87.391754,
18147,-0.2694917,0.76858914,10.894437,0.3294223,-0.15714848,-0.064506635,12.695169,26.59985,-87.528824,
18167,-0.029943839,1.1327019,10.326708,0.42103496,-0.10122215,-0.040538203,10.3867855,26.43132,-86.655716,67.0
18187,0.3820784,1.3003854,10.379409,0.30172545,-0.018131604,0.03030182,10.231569,27.315756,-86.51506,
18207,0.68869966,0.7614027,10.621352,0.034876946,0.11023265,0.046813406,10.081137,25.8208,-87.73959,
18227,0.46352476,0.22481552,11.567566,-0.20800312,0.23540112,-0.06930032,9.309429,25.408594,-84.96826,
18247,-0.034734815,-0.45310488,12.238299,-0.3997506,0.1832032,-0.2860814,10.231276,27.030205,-85.8927,
18267,-0.9977172,-0.9058503,12.707814,-0.46792743,0.0591,-0.46131727,11.156584,26.869007,-87.72499,71.0
18287,-1.8696713,-1.0352061,12.221532,-0.3997506,0.05963263,-0.49593836,11.153612,28.789957,-87.437775,
18307,-1.9271629,-0.57287884,10.872877,-0.111596785,0.16083267,-0.34360564,9.923197,27.320353,-85.90372,
18327,-0.8827342,-0.15127462,9.55776,0.22129808,0.25830427,-0.030418199,10.998991,28.363926,-86.19858,
18347,0.051502436,0.047550112,8.882235,0.34540123,0.19385585,0.2145924,12.0756855,27.369251,-84.767395,
18367,0.4132197,0.15055569,8.446258,0.29586652,0.0356642,0.21192923,12.384924,27.353073,-86.15239,76.0
18387,0.45394284,0.09066872,7.9743485,0.17762226,-0.17845374,0.039889194,9.923334,26.594889,-85.12149,
18407,,,,-0.010396751,-0.30841592,-0.17689195,9.000851,27.442173,-86.70189,
18427,-0.010780022,0.08348228,8.386371,-0.27032104,-0.15821375,-0.30685407,8.386541,26.550695,-86.55209,
18447,-0.5545536,-0.050664514,9.236765,-0.40560952,0.110765286,-0.26690668,9.001097,26.136337,-85.293884,
18467,-0.8731523,-0.055455476,9.588901,-0.31879053,0.1730832,-0.17050035,9.618666,25.392418,-86.35326,
18487,-0.6647457,0.17451046,9.169692,-0.107335724,0.007967353,-0.04906031,9.308577,27.156656,-86.38139,
18507,0.16169444,0.49071363,8.175569,0.044996947,-0.1459632,0.042552352,11.309885,26.01005,-86.16359,
18527,0.5617394,0.9171088,7.7324047,0.043399055,-0.10015689,0.027638663,9.155712,25.69413,-85.43968,
18547,0.34135532,1.2189391,8.151613,2.5588367E-4,0.044186313,-0.018700302,8.078787,26.981306,-87.02902,
18567,0.31740057,1.2357074,8.345648,0.051388532,0.030337887,-0.020830829,9.615444,27.750961,-86.380646,
18587,0.6264173,1.1422838,8.146823,0.13341384,-0.1406369,-0.058115046,7.6160336,27.135609,-86.11372,
18607,0.7797278,1.1374928,8.194733,0.12329382,-0.28498012,-0.17582668,7.7698975,26.992851,-85.95349,
18627,1.0168803,1.0560466,8.484585,0.027952734,-0.28284958,-0.2860814,8.078054,26.267424,-85.47313,
18647,1.26601,0.95064545,9.126573,-0.13822837,-0.21360745,-0.419772,6.69602,25.923798,-87.3607,
18667,1.2181005,0.4955046,9.945827,-0.24209155,-0.046361085,-0.53801626,7.77071,27.271454,-87.04004,
18687,0.7749369,0.07869133,11.021397,-0.23996103,0.11662423,-0.6099215,6.693741,26.967243,-86.599014,
18707,0.23834974,-0.11294696,11.658594,-0.10254204,0.13313583,-0.6365531,6.69602,25.923798,-87.3607,
18727,0.42998803,-0.060246438,11.622662,0.09985802,0.014358934,-0.5689089,6.846733,26.836067,-85.6651,
18747,1.4576483,-0.25907114,11.126798,0.23780966,-0.06873162,-0.5055257,5.4654408,25.324749,-86.765305,
18767,1.3354789,-0.13450626,11.328018,0.20691702,-0.034110557,-0.5960731,4.3864822,26.349537,-86.18495,
18787,1.1989366,0.20565169,12.267046,0.19413385,-0.048491616,-0.61631316,4.69713,25.301495,-87.55797,
18807,2.281693,0.35177588,12.233509,0.3294223,-0.20082428,-0.5689089,4.6970673,24.723442,-86.777466,
18827,3.6447203,0.43082666,11.71369,0.44234022,-0.33451486,-0.6669131,6.391306,23.129938,-86.5621,70.0
18847,4.569375,-0.13211077,10.79143,0.394936,-0.37446225,-0.9870248,3.4675312,24.110497,-87.11047,
18867,3.9848778,-1.0399971,10.125488,0.09826013,-0.18697587,-1.4967535,2.08329,23.506796,-86.67363,
18887,1.6708459,-1.5789797,11.392695,-0.31399685,0.12674426,-1.901021,2.237568,23.937462,-87.60336,
18907,0.03233859,-1.9263242,12.616786,-0.36939058,0.29452324,-1.8450947,2.237568,23.937462,-87.60336,
18927,-0.00598906,-1.5885618,12.394006,-0.03063676,0.25883693,-1.5430925,0.39058113,24.356304,-87.34462,63.0
18947,1.1725863,-1.0543699,10.530324,0.3177044,0.042588413,-1.3534755,2.3897438,23.52768,-85.582886,
18967,1.9559078,-0.67109346,8.944517,0.30012757,-0.14702848,-1.4131303,1.3143654,23.05753,-86.37802,
18987,1.8696704,-0.39082244,8.570823,0.02955063,-0.13318005,-1.5223197,-0.84015274,22.74624,-85.34465,
19007,1.6468911,-0.43873206,8.834325,-0.14781573,0.09212317,-1.5542778,-2.221838,22.397984,-87.54169,
19027,1.325897,-0.28781685,8.867862,-0.15793574,0.2689569,-1.5782461,-1.3005733,21.566914,-84.87816,
19047,1.0599989,-0.26146665,8.544472,-0.13609785,0.166159,-1.6671956,-2.3777351,22.27835,-85.53224,
19067,0.5305981,-0.26625755,8.463026,-0.19894838,-0.12572321,-1.7960925,0.39237595,21.293142,-85.14241,
19087,0.32937795,-0.26865306,9.004404,-0.2692558,-0.30841592,-1.8418988,-1.7638931,22.88659,-84.90497,
19107,0.21679044,-0.498619,9.406844,-0.22025365,-0.24503271,-1.820061,-2.9935112,22.708923,-85.707306,
19127,-0.17606804,-0.5058055,9.529014,-0.08176941,-0.15555058,-1.7348399,-3.299059,20.649792,-85.07201,
19147,-0.13774037,-0.27104858,9.495477,0.10944539,-0.14489795,-1.5265808,-3.3009892,21.688606,-84.6198,
19167,0.5473665,0.06671393,8.721737,0.24473387,-0.23224956,-1.4062061,-3.454607,20.525528,-83.372025,
19187,0.6719314,0.43082666,8.283365,0.22662438,-0.27166432,-1.4823724,-5.6088524,21.513126,-84.21088,
19207,0.55215746,0.5721599,8.554054,0.14779489,-0.28498012,-1.5681261,-4.2219734,19.187172,-83.375626,
19227,0.52820265,0.56976444,9.052314,0.092401184,-0.3148075,-1.6070082,-5.2976074,19.154617,-84.48535,58.0
19247,0.10899392,0.5721599,9.01159,0.0977275,-0.2109443,-1.6048777,-4.3716908,16.66962,-83.96924,
19267,-0.17127708,0.67277,8.982845,0.095064335,-0.08471057,-1.513265,-4.83523,19.15004,-85.24762,
19287,-0.09701724,0.5002955,9.426008,0.061508533,-0.086308464,-1.4269787,-6.372594,17.521408,-84.18364,
19307,0.09222555,0.282307,9.799703,0.05511695,-0.23917377,-1.4259135,-6.988285,17.516703,-83.88937,
19327,0.45394284,0.17451046,10.056019,0.030615892,-0.46287912,-1.4530777,-6.5294876,19.007061,-83.27615,
19347,0.5305981,0.12660089,10.465646,-0.034897815,-0.53212124,-1.5324398,-8.372728,17.060413,-83.45424,
19367,-0.42998877,0.10264611,11.198662,-0.05407256,-0.32226434,-1.5633324,-7.448494,17.058207,-84.51457,
19387,-1.3714119,0.32063466,11.522052,0.101988554,0.0042389305,-1.3369639,-8.217591,16.611256,-84.064224,
19407,-0.846802,0.6200695,11.246572,0.3209002,0.11555897,-1.0099281,-7.6001787,14.8563175,-83.719025,
19427,0.099411994,0.8452444,10.939951,0.37682652,0.012228407,-0.9422837,-8.831709,14.704128,-82.819305,
19447,0.5305981,0.90273595,10.880064,0.2809528,-0.04423056,-1.0615933,-8.677498,14.55674,-82.96854,
19467,0.7342138,0.3493804,10.058414,0.08973802,-0.010142127,-1.2591997,-9.754213,13.814934,-82.212906,
19487,-0.45394355,-0.13450626,9.979363,-0.25807053,0.099047385,-1.4882313,-8.061376,14.121532,-83.10292,
19507,-2.003818,-0.5561105,11.4118595,-0.46632954,0.18373585,-1.4775788,-9.137165,13.077961,-82.808075,
19527,-2.5619648,-0.62797487,12.271837,-0.23516734,0.12301581,-1.2070017,-6.9831123,13.106012,-83.06435,61.0
19547,-2.1715016,-0.19918418,11.265736,0.25858226,-0.11507058,-0.89328164,-7.4453716,13.3984585,-82.7697,
19567,-0.46112996,0.23439743,9.047523,0.51051706,-0.43624753,-0.7020668,-7.752349,13.384525,-83.39624,
19587,0.8971064,0.39010352,7.8857155,0.22289596,-0.53691494,-0.73935103,-8.982542,13.50399,-84.04727,
19607,0.88033795,0.21044263,8.268992,-0.28789788,-0.316938,-0.93163115,-8.674413,12.923658,-83.72337,
19627,-0.00598906,-0.019523293,9.366121,-0.58244324,0.031935785,-1.0333638,-8.365477,11.753687,-83.39261,
19647,-0.8779433,-0.18241584,10.408154,-0.6159991,0.18746427,-0.98436165,-9.751944,11.903248,-81.88118,
19667,-1.071977,-0.04108259,10.539906,-0.43277374,0.11982002,-0.84907323,-7.599702,13.25798,-82.15286,67.0
19687,-0.9378302,0.4380131,9.481104,-0.23143892,-2.2123684E-5,-0.7723742,-8.982414,11.910288,-82.171646,
19707,-0.9833443,0.95304096,8.573217,-0.21173154,0.055371575,-0.6882184,-9.290837,12.2050705,-81.8732,
19727,-0.62402254,0.842849,8.764855,-0.37738004,0.07561159,-0.55346256,-9.29275,12.230549,-80.17113,
19747,-0.68870044,0.6536062,10.456064,-0.49136323,-0.0735253,-0.47090462,-10.213414,12.6193905,-82.82953,
19767,-0.846802,0.98418224,11.009419,-0.20001365,-0.30735064,-0.36863935,-10.368349,12.921141,-82.217834,74.0
19787,-0.29584196,1.618984,9.23437,0.28148544,-0.30841592,-0.2179046,-9.138227,14.10519,-83.12952,
19807,0.6359992,2.0118425,7.6198173,0.3864139,-0.05594846,-0.15026036,-8.061183,13.105885,-82.00781,
19827,0.6120444,2.028611,7.718032,0.13447909,0.102775805,-0.2381446,-10.062992,13.246105,-80.51158,
19847,-0.291051,1.7507354,8.738506,-0.04501782,0.07827474,-0.3862162,-9.138227,14.10519,-83.12952,
19867,-1.2468469,1.4728599,9.193646,-0.03063676,-0.08790636,-0.4554583,-8.985847,13.548,-81.107346,
19887,-1.4863948,1.4153684,9.28228,-0.056735717,-0.20828113,-0.40272778,-9.291707,12.216652,-81.09953,
19907,-1.1031182,1.3938091,10.341081,-0.18456733,-0.124657944,-0.25678667,-8.675631,12.939873,-82.64023,
19927,-0.5904858,1.0776058,11.86221,-0.15846837,0.0063694576,-0.094334014,-7.5996475,12.967796,-81.839966,
19947,-0.4922712,1.0129279,12.267046,0.11051066,-0.038904242,-0.058115046,-8.677361,13.831276,-82.18631,
19967,-0.3916611,1.3794361,10.5997925,0.3549886,-0.14436533,-0.09113822,-9.749581,10.424524,-82.17352,81.0
19987,-0.16648611,1.3794361,10.508765,0.21597175,-0.09536321,-0.038407672,-8.216145,13.552723,-81.55255,
20007,0.26949096,0.5434141,12.161645,0.018897995,-0.19070429,-0.011243457,-9.290975,12.930534,-82.655426,
20027,0.2215814,0.26314318,13.160559,0.17389384,-0.44849807,-0.10551928,-8.370769,13.126696,-80.31334,
20047,0.6144399,0.22960648,11.6298485,0.5126476,-0.62479913,-0.13694456,-8.214452,11.938175,-81.06952,
20067,1.54149,0.3038663,9.179274,0.39919704,-0.49004334,-0.11617191,-8.673616,11.465782,-82.62311,
20087,2.0086083,0.10504159,9.730234,-0.22238417,0.019152619,-0.16304351,-10.674959,11.88924,-81.90398,
20107,1.3594338,-1.0663474,12.195181,-0.6815128,0.3323401,-0.36331302,-10.369118,11.48411,-79.72496,
20127,-0.046712205,-1.6005391,13.955858,-0.54782224,0.19385585,-0.57157207,-8.677004,11.945068,-80.15251,
20147,-0.78691506,-1.2484037,13.249192,0.05351906,-0.10921163,-0.52470046,-9.446459,13.384323,-81.73596,
20167,-0.5497627,-0.46987328,10.5470915,0.60905397,-0.14702848,-0.2871467,-9.139656,13.400574,-80.9547,
20187,0.47550213,0.08827323,8.091726,0.639414,0.09478633,-0.07462664,-10.215446,12.357002,-80.65985,
20207,1.0576034,0.43561763,7.679704,0.22822228,0.4079738,-0.07196348,-8.373259,13.4493065,-78.45996,
20227,0.92824745,0.37812614,8.391161,-0.12810837,0.5160981,-0.21364354,-9.449644,13.716202,-79.26366,
20247,0.38447392,0.34458944,8.728924,-0.21918839,0.36642852,-0.3729004,-8.985545,11.951981,-79.386444,
20267,-0.48748025,0.5961147,8.776834,-0.189361,0.12567896,-0.44427305,-8.371694,13.428461,-79.85257,88.0
20287,-0.71025974,0.507482,8.357625,-0.11745573,0.018087355,-0.3425404,-8.986139,13.262447,-80.484985,
20307,-0.69109595,0.5458096,8.455839,-0.10946626,-0.005881073,-0.23175302,-8.986139,13.262447,-80.484985,
20327,-0.8348246,0.60809207,9.191251,-0.08389993,-0.07246004,-0.17848983,-7.4468,12.693842,-80.59488,
20347,-1.071977,0.7637982,8.922957,0.092401184,-0.061274774,-0.07089822,-8.82976,12.651983,-82.02167,
20367,-0.7725422,0.95304096,8.230664,0.24313597,0.072948426,0.12990394,-8.677717,12.967667,-80.78343,94.0
20387,0.18325374,0.9650184,8.633105,0.28468123,0.05004526,0.29235667,-9.291652,11.926464,-80.78664,
20407,0.7006771,1.1758205,9.0810585,0.36244547,-0.26420748,0.24708293,-9.29275,12.230549,-80.17113,
20427,0.6048579,1.5998201,8.302529,0.5009297,-0.41654015,0.097946055,-8.833605,13.716276,-79.8674,
20447,0.57371676,2.0477746,7.6557493,0.47802654,-0.15714848,0.058531303,-8.985004,10.9317,-78.600784,
20467,0.62881273,2.0621474,8.776834,0.25165805,0.14272319,0.051074456,-9.138346,11.067507,-79.225235,
20487,0.29584128,1.7722946,10.015296,0.20744964,0.2098348,-0.0069824033,-10.215446,12.357002,-80.65985,
20507,-0.51862144,2.0405881,9.723048,0.34220546,0.06282842,-0.046929784,-9.44395,12.048374,-82.33949,
20527,-0.39884752,1.9184189,9.799703,0.3427381,-0.11400532,0.028703924,-8.368259,11.790747,-80.916855,
20547,0.1449261,1.2764306,11.450188,0.19892754,-0.38777804,0.01219234,-9.29287,11.942678,-79.70351,
20567,0.13534415,0.6320469,12.128108,0.24100545,-0.54756755,-0.12362876,-9.908644,12.373253,-79.878586,
20587,-0.38926563,0.8763857,11.728063,0.3661739,-0.30362222,-0.11883507,-10.0618305,13.520077,-81.90761,
20607,-0.49945763,0.8045213,12.204762,0.3730981,0.176279,0.12244711,-8.984226,13.236969,-82.18706,
20627,-0.22397761,0.68235195,12.429938,0.34540123,0.35311273,0.30727035,-10.37007,11.930969,-79.42064,
20647,0.0083838105,1.1830069,11.869396,0.40878442,0.3206222,0.3083356,-9.139701,11.809185,-78.92433,
20667,0.57850766,1.1710294,11.064516,0.38108757,0.103841074,0.19275449,-8.210762,9.862865,-81.819214,
20687,0.6934907,0.8500354,10.312335,0.18934016,-0.14330006,-0.054919258,-9.90772,12.071484,-80.339355,
20707,-0.14971778,0.6631881,10.338686,-0.13343468,-0.095895834,-0.24826458,-10.521654,11.030283,-80.342575,
20727,-1.1198866,0.32063466,11.095656,-0.40933797,0.17361583,-0.20831722,-10.9823475,11.301882,-81.44052,
20747,-1.7331291,0.25116578,11.596312,-0.31452948,0.42874643,0.021779712,-9.903645,10.714691,-82.33548,
20767,-1.5247225,0.55778706,11.002233,0.07748749,0.384538,0.2662577,-11.135461,11.145191,-81.906815,104.0
20787,-0.28386456,0.68235195,9.0547085,0.40186024,-0.095895834,0.31472722,-8.981215,10.157595,-81.06796,
20807,0.7677505,0.72547054,7.377874,0.28148544,-0.5662097,0.08622815,-9.750277,10.433788,-81.55458,
20827,0.36770558,0.64402425,7.4449472,-0.13769573,-0.4357149,-0.13055299,-12.059008,10.269892,-80.37201,
20847,0.03233859,0.337403,8.510936,-0.4402306,-0.0032179141,-0.12256349,-11.601729,13.372486,-80.39656,
20867,-0.18804543,0.31823918,9.313421,-0.4535464,0.26842427,-0.04586452,-11.444889,12.177017,-81.61693,
20887,-0.31261033,0.5817418,9.598483,-0.24741787,0.22261797,0.020714449,-10.9823475,11.301882,-81.44052,
20907,0.09222555,0.81410325,8.934935,0.048725374,-0.02026213,0.027106028,-9.908781,13.098717,-80.66081,
20927,0.20481306,1.1830069,7.2964277,0.25751704,-0.030914765,-0.018700302,-10.371691,12.2420025,-78.34094,
20947,-0.07545793,1.3650633,6.211276,0.12862015,0.17201795,-0.029352937,-10.673485,11.435432,-82.6725,
20967,-0.8132653,1.5423288,7.361106,-0.16432732,0.27801165,0.008463917,-12.060674,11.739349,-80.69859,
20987,-0.82284725,1.7722946,8.63071,-0.15207678,0.09958002,0.124577634,-10.522058,11.3251,-80.34599,
21007,0.025152147,1.9926786,9.045127,0.10838013,-0.15182216,0.18156922,-11.598817,11.74172,-80.99664,
21027,0.49227053,2.0477746,8.5923815,0.3043886,-0.2748601,0.08090183,-11.598405,12.315144,-82.08664,111.0
21047,0.08983007,2.3136725,7.892902,0.28840965,-0.20561796,-0.04320136,-11.598909,11.308758,-80.37259,
21067,-0.27188718,2.4789608,8.237851,0.10411908,-0.043697927,-0.050658204,-11.753834,12.478746,-80.85428,
21087,-0.2024183,2.1723394,9.545782,-0.06472518,0.083601065,-0.016569776,-13.442625,10.960445,-82.11682,
21107,-0.08264437,1.7363626,10.652493,-0.05886624,0.077742115,-0.033613987,-10.980589,10.265387,-81.73799,
21127,-0.07785343,1.5543061,10.963904,0.02688747,-0.07565583,-0.08048559,-11.599971,12.335991,-80.694046,
21147,-0.073062465,1.4273458,11.107634,0.059910636,-0.23331481,-0.08634454,-15.751604,12.102385,-82.342255,
21167,-0.16409063,1.3123628,11.680154,0.022626417,-0.30202433,-0.08634454,-13.287755,10.080645,-81.94801,
21187,-0.73181903,1.4297413,12.377238,0.034876946,-0.23544535,-0.08421401,-12.82893,11.425911,-81.17836,
21207,-0.291051,1.4249502,12.360469,0.13820751,-0.14809375,0.02391024,-13.599062,11.861095,-80.89302,
21227,0.86836064,1.3099674,11.500493,0.16750227,-0.10601584,0.096880786,-14.057777,9.935459,-81.036896,
21247,1.5917951,1.1494702,11.095656,-0.03170202,-0.07459057,-0.01177609,-14.82649,10.207022,-81.83298,
21267,1.5774223,0.45238596,11.215431,-0.3315737,0.013826301,-0.22589406,-13.901827,9.764904,-82.73346,
21287,0.11618033,-0.08420122,12.482639,-0.49988532,0.1949211,-0.43415305,-14.826555,9.628967,-81.052475,
21307,-1.1965418,-0.43394104,12.988085,-0.30654,0.20450848,-0.38834673,-13.599273,11.1402645,-79.80133,
21327,-1.1127001,-0.26625755,11.663384,0.15045805,0.06868737,-0.09646454,-14.517876,8.896591,-81.036316,
21347,-0.085039854,0.43322214,9.265511,0.42210022,-0.010674759,0.19488502,-15.134575,9.628931,-80.75061,
21367,1.1701909,0.8787811,7.691682,0.22875491,0.1443211,0.26998612,-14.365825,10.080515,-80.89148,
21387,1.486394,1.118329,8.525309,-0.21865577,0.35524327,0.1389587,-14.670064,8.438133,-81.96338,
21407,1.1534225,0.8332671,9.88594,-0.38963056,0.30198008,-0.02775504,-14.824989,9.60812,-82.44507,
21427,0.5809032,0.82368517,9.679929,-0.16592522,0.02501157,-0.16357616,-15.440517,8.732859,-81.21214,
21447,0.24553618,1.1398883,7.9456024,0.05405169,-0.08417794,-0.23175302,-14.6717205,10.775831,-83.38336,
21467,-0.18564996,1.3147583,7.1814446,-0.059398875,0.10703686,-0.22056775,-16.055046,9.002123,-82.31389,
21487,-0.49945763,1.2452893,7.612631,-0.23250419,0.2971864,-0.15026036,-13.136464,10.695778,-80.40373,
21507,-0.57132196,1.2476848,8.221083,-0.25327685,0.27960953,-0.11031297,-14.673552,10.366032,-81.211975,
21527,-0.56653106,1.3003854,8.812766,-0.15154417,0.096916854,-0.0991277,-15.44125,10.768791,-83.09291,
21547,-0.50664407,1.2500803,9.066686,0.079618014,-0.08950426,-0.07888769,-14.672335,10.349817,-82.295105,
21567,-0.22397761,1.508792,8.3743925,0.34220546,-0.22426009,-0.05545189,-13.901423,9.470087,-82.73004,
21587,-0.003593579,2.1004753,7.4545293,,,,-14.670677,8.012117,-80.87511,121.0
21607,0.104202926,2.4813561,7.33236,0.3816202,-0.25515273,-0.03627715,-15.131947,8.580854,-81.82175,
21627,0.31500506,2.4070964,8.074959,0.1430012,-0.17312744,0.0042028637,-14.976381,7.691784,-82.2719,
21647,0.40363777,1.9567466,9.682323,-0.16805574,-0.07139477,0.019649185,-15.901339,7.8483505,-80.74907,
21667,0.015570253,1.3099674,11.816696,-0.39815268,-0.036241084,-0.04906031,-16.053928,7.6847057,-81.67955,
21687,-0.44436163,0.8907585,12.976107,-0.3720537,-0.10921163,-0.14333615,-16.207233,8.543665,-83.24095,
21707,-0.34135604,0.7637982,12.061035,-0.035430446,-0.36114645,-0.13268352,-16.05675,9.748432,-81.70352,
21727,0.30781865,0.9242953,10.293171,0.46471077,-0.52466434,-0.003253981,-17.4383,8.674713,-83.11833,
21747,0.55215746,1.2740351,10.46325,0.65912133,-0.38937595,0.12937132,-18.82231,7.778513,-82.523315,
21767,0.3102141,1.3171538,11.351973,0.37416336,-0.047426354,0.15440501,-18.204311,6.594681,-83.42282,
21787,0.14971703,1.5447241,11.498096,0.09453171,0.20717163,0.12351238,-19.439165,7.499834,-80.83302,
21807,0.33895987,1.288408,10.681239,0.031148523,0.19705163,0.09421763,-16.823109,7.6730328,-81.69855,
21827,0.09701651,0.9674139,10.628538,0.0013211472,0.12248318,-0.0011234536,-18.5132,6.606226,-82.34729,
21847,-0.41082495,0.43561763,11.893351,-0.23143892,0.06762211,-0.18168563,-18.820377,6.7396984,-82.975525,
21867,-0.8683613,-0.15127462,12.271837,-0.48177585,0.040457886,-0.26158038,-18.97687,7.9305363,-82.06464,
21887,-1.2708018,-0.11773792,11.059725,-0.39442426,0.13579898,-0.21311091,-19.131392,8.805706,-82.54289,
21907,-1.3953667,0.20804717,9.792516,-0.15207678,0.21462847,-0.12362876,-17.129683,7.3642826,-82.321655,
21927,-0.98573977,0.227211,9.869172,-0.108400986,0.15763688,-0.008580298,-18.821852,7.193508,-82.207,
21947,-0.28626004,0.10504159,10.259635,-0.2293084,0.019685252,0.10700079,-18.361498,7.7947826,-81.892975,
21967,0.08503914,-0.019523293,9.929059,-0.26179895,-0.092167415,0.15493764,-18.206745,6.6271095,-81.25656,
21987,-0.099412724,0.18409237,8.978054,-0.15580522,-0.04689372,0.124577634,-18.974783,7.9027405,-83.92143,
22007,-0.52341247,0.5649735,8.585196,-0.078573614,0.04365368,0.06545551,-18.512331,6.5946445,-83.12096,
22027,-0.6336044,0.74702984,8.417512,-0.11585784,0.1043737,0.06385762,-19.132143,9.105158,-82.23685,
22047,-0.76296026,0.89554954,8.331275,-0.14355467,0.11875476,0.117120795,-20.666227,7.577608,-84.26926,
22067,-0.8731523,1.0033461,8.369602,-0.12491258,0.052708417,0.14481764,-19.12925,8.487726,-84.08681,
22087,-0.38926563,1.0656285,8.321692,-0.04395255,-0.02931687,0.20500502,-20.360434,8.330906,-83.49655,
22107,0.2814684,1.3075719,8.070168,0.08707486,-0.0852432,0.2950198,-20.516558,8.503777,-81.64528,
22127,0.57371676,1.4776508,8.113286,0.18880753,-0.08950426,0.3094009,-20.515806,8.204323,-81.95131,
22147,0.43956995,1.3147583,8.544472,0.16377385,-0.11507058,0.2231145,-19.440977,8.826517,-80.848434,
22167,-0.13294941,1.2237301,9.203229,0.090270646,-0.15288743,0.050541826,-19.130064,8.20912,-83.000244,
22187,-0.50664407,1.3506904,9.5362,0.07855275,-0.071927406,-0.046929784,-20.669935,7.916437,-81.33276,
22207,-0.104203686,1.4297413,9.380494,0.16696963,0.040457886,0.041487087,-20.516668,9.0841465,-82.27104,
22227,0.57371676,1.4417187,8.901398,0.29746437,0.04099052,0.1661229,-20.82131,7.736582,-83.346375,111.0
22247,0.57371676,1.5111876,9.009194,0.3272918,-0.09642847,0.14108922,-21.739355,6.2091084,-85.98251,
22267,-0.029943839,1.3746452,10.123093,0.15791489,-0.17152955,-0.028820302,-19.745409,8.199781,-83.01544,
22287,-0.47789833,1.1111425,10.132674,0.0013211472,-0.086308464,-0.115639284,-21.284292,8.183384,-82.58925,
22307,-0.04910767,1.0225099,9.723048,0.09666224,0.06282842,-0.023493987,-21.129805,9.334881,-84.61067,
22327,0.70307255,1.0488601,11.126798,0.16590437,0.106504224,0.10700079,-21.127544,6.5549564,-83.18555,
22347,1.0887446,0.85722184,12.659904,0.001853779,-0.07725373,0.07664078,-21.281546,7.423176,-84.12802,
22367,0.82284653,0.7590072,12.5545025,-0.08709572,-0.2897738,-0.07888769,-20.817812,6.676922,-85.19119,
22387,0.47310662,1.063233,11.375928,0.02688747,-0.25515273,-0.20352353,-21.74395,7.5728474,-83.52219,
22407,1.2971512,0.91471326,10.475228,0.10571697,-0.054883197,-0.19766457,-22.356611,6.2252483,-84.29564,
22427,1.3450608,0.49790007,10.944742,-0.023712546,0.13420108,-0.095399275,-22.053846,8.32144,-82.45523,101.0
22447,-0.32937866,-0.09378314,11.991566,-0.29642,0.19119269,-0.22429617,-22.20684,8.452616,-83.38913,
22467,-1.5271178,-0.28781685,11.907723,-0.42478427,0.09585159,-0.47569832,-20.51014,6.681591,-85.18359,
22487,-1.3762027,0.17211498,10.904018,-0.25594002,-0.019729499,-0.39473832,-22.972954,7.8211937,-85.41281,
22507,-0.029943839,0.6703745,9.85959,-0.007200961,0.016489461,-0.019232932,-22.664633,6.225212,-83.99379,
22527,1.5079534,0.9362726,9.215206,0.10092329,0.10543896,0.30567247,-21.282469,7.724947,-83.66724,
22547,1.6995916,1.0320917,8.690597,0.055649586,0.026076833,0.2950198,-22.512892,8.136913,-84.47644,
22567,0.6359992,1.0800014,8.304925,-0.05833361,-0.0634053,0.02124708,-22.820097,8.415483,-85.26112,
22587,-0.18564996,1.1159335,8.556449,-0.20054628,0.031403154,-0.18168563,-22.66791,8.8739395,-84.33406,95.0
22607,-0.23355952,0.9769957,8.951704,-0.31932318,0.15603898,-0.1561193,-22.512545,8.13228,-84.785904,
22627,0.027547628,0.8524308,9.093037,-0.31080106,0.16509373,-0.050125573,-22.052008,9.599476,-85.72003,
22647,-0.116181076,0.8308716,8.975657,-0.19149153,0.14751688,0.0026049684,-23.282686,7.6992283,-83.407166,
22667,-0.45154807,0.9171088,8.63071,-0.05407256,0.15177794,0.0031376001,-22.666288,8.562908,-85.41377,
22687,-0.3701018,1.1925888,8.1588,0.079618014,0.10863476,0.027106028,-21.74298,8.862469,-86.013336,
22707,0.039525032,1.4273458,8.407929,0.14353384,-0.017066339,0.107533425,-22.819805,8.701035,-85.883484,
22727,0.6192308,1.5351423,8.91098,0.112641186,-0.15555058,0.17038396,-21.433844,7.545088,-85.68086,87.0
22747,0.9977164,1.8465545,9.157715,0.1296854,-0.20082428,0.15440501,-23.742794,8.541933,-85.74983,
22767,1.3474562,2.0669384,8.712155,0.21597175,-0.09536321,0.12883869,-22.511538,7.395235,-84.77734,
22787,1.1534225,1.8872776,8.379184,0.27136543,0.07348106,0.10966395,-21.434502,8.277504,-85.998886,
22807,0.2814684,1.5447241,9.682323,0.19200332,0.18533374,0.0047354954,-22.050596,8.567614,-85.70804,
22827,-0.42280233,1.0201144,11.574752,-0.014657805,0.04099052,-0.15345614,-23.743608,8.26333,-84.66327,
22847,-0.42998877,0.68474734,11.953238,-0.088160984,-0.31107906,-0.22855723,-23.434654,8.829838,-86.51933,
22867,-0.07545793,0.7494253,11.133984,0.14832753,-0.41600755,-0.1241614,-23.89707,8.111269,-84.8201,
22887,0.26949096,0.99376416,10.5997925,0.40026233,-0.17898639,0.08622815,-24.358458,8.392138,-85.29912,81.0
22907,0.34135532,1.3075719,11.038165,0.4066539,0.10810213,0.25240928,-24.971504,6.3260193,-84.82616,
22927,0.6934907,1.5878428,10.915996,0.3043886,0.17947479,0.2694535,-24.357763,8.382872,-85.918045,
22947,1.1246767,2.028611,10.096742,0.31823704,0.0069020893,0.24761556,-22.81921,7.390566,-84.78494,
22967,,,,0.2617781,-0.18537796,0.14588289,-23.897408,8.984144,-85.60405,
22987,1.2252868,1.9687239,9.809285,0.00504957,-0.10068952,-0.026157144,-24.35454,6.0243244,-85.890656,
23007,0.44915187,1.4441142,10.276402,-0.31186634,0.16722426,-0.2099151,-22.972607,7.8165607,-85.722275,
23027,-0.23835048,0.64162874,11.845442,-0.49828744,0.30304536,-0.2940709,-23.8949,7.648197,-86.207565,76.0
23047,-0.67432755,0.009222448,12.645531,-0.32145372,0.2417927,-0.29566878,-24.817421,7.772333,-86.85101,
23067,-1.1342595,-0.03868714,11.56038,-0.0040051704,0.020217882,-0.29566878,-24.04738,6.9041843,-86.51227,
23087,-1.522327,0.1816969,10.242866,0.07056327,-0.16460533,-0.21417618,-25.279617,8.642834,-87.33687,
23107,-1.3235023,0.32542562,9.696697,-0.029571494,-0.19975902,-0.0421361,-25.124691,7.472845,-86.85518,
23127,-0.77733314,0.29667988,9.46194,-0.13449994,-0.070862144,0.09528289,-25.124691,7.472845,-86.85518,69.0
23147,-0.4275933,0.2487703,9.497873,-0.18190417,0.11982002,0.15547027,-23.740303,8.219322,-87.60321,
23167,-0.38207918,0.25835222,9.263116,-0.16699049,0.16882215,0.12511027,-23.740303,8.219322,-87.60321,
23187,-0.6288135,0.35417137,9.358934,-0.12651047,0.029272621,0.07184709,-24.355381,8.640629,-88.39722,
23207,-0.7390055,0.4643634,9.1601095,-0.026375704,-0.15661584,0.08622815,-23.588636,8.684729,-86.211945,
23227,-0.56413555,0.787753,8.405535,0.0860096,-0.108679,0.16665554,-25.740658,8.919067,-88.12537,63.0
23247,-0.45154807,0.9674139,7.8258286,0.11583698,0.12301581,0.26465982,-23.588774,9.4101925,-86.99417,
23267,-0.27667814,1.2261256,7.8881106,0.10092329,0.19279057,0.34029353,-24.512917,9.845362,-86.55791,
23287,0.3964513,1.5159785,8.051003,0.104651704,0.005304194,0.3615988,-23.89401,9.373096,-89.168045,
23307,0.9450159,1.7100123,7.9647665,0.10145592,-0.1976285,0.23429976,-24.818565,9.234842,-87.6418,
23327,0.8036827,1.6932439,7.9000883,0.048725374,-0.1944327,0.034030244,-24.97167,9.94639,-89.20149,58.0
23347,0.209604,1.5974247,8.6714325,-0.022647282,-0.060209513,-0.06503927,-24.663347,8.350407,-87.782455,
23367,-0.15211326,1.3890182,9.174483,0.017300101,0.018087355,-0.047462415,-24.50844,8.19375,-88.5506,
23387,-0.05150315,1.4608824,9.291861,0.075889595,0.005836825,0.014855499,-24.508028,8.76717,-89.640594,
23407,0.66234946,1.3626678,9.287071,0.050323267,-0.03464319,0.051074456,-24.045193,8.177591,-90.08653,
23427,0.9378295,1.2237301,10.23568,-0.046615712,-0.035175823,-0.029885568,-25.124187,8.479229,-88.56923,53.0
23447,0.37010103,1.0177189,11.124403,0.021028522,-0.0634053,-0.14599931,-23.89382,8.357447,-88.07292,
23467,-0.22397761,0.9817867,10.45846,0.25964755,-0.092167415,-0.12788983,-26.199108,7.424074,-89.048035,
23487,-0.31261033,1.417764,9.464335,0.31823704,-0.030382134,0.0031376001,-24.663,8.345774,-88.09192,
23507,0.22397688,1.678871,9.830844,0.11477171,0.079872645,0.11285974,-26.659397,7.400856,-90.14256,
23527,0.91866565,1.3530859,11.045352,-0.09828099,0.039925255,0.09368499,-23.891539,7.313999,-88.83461,
23547,1.0887446,1.0704194,11.981984,-0.1472831,-0.16939902,-0.045331888,-24.047737,8.790388,-88.54605,
23567,1.1103039,0.87159467,11.938865,-0.083367296,-0.34410223,-0.14706457,-23.736916,7.740032,-90.07381,
23587,1.2827784,0.6224649,11.227407,-0.083367296,-0.25408748,-0.16410878,-26.968948,8.144815,-89.385056,47.0
23607,0.78930986,0.4619679,11.035769,-0.19948103,0.021283148,-0.19393617,-26.045647,7.5761356,-88.89122,
23627,-0.053898618,0.3829171,11.419045,-0.25221157,0.15177794,-0.20512143,-26.045647,7.5761356,-88.89122,
23647,-0.33656508,0.47634077,11.567566,-0.10627046,0.07614422,-0.08101822,-26.967995,7.697954,-89.68939,
23667,0.0107792765,0.8835721,10.707589,0.13128331,-0.07032951,0.07610814,-26.354134,7.29286,-87.812256,
23687,1.0264621,1.1901934,9.61046,0.15844752,-0.17152955,0.13523026,-24.663,8.345774,-88.09192,44.0
23707,2.0756817,1.0847923,9.037941,-0.029571494,-0.07725373,0.028703924,-25.276934,7.3045692,-88.09514,
23727,1.8984163,1.0225099,9.126573,-0.28257158,0.18160532,-0.19180563,-27.121538,7.9811726,-90.31555,
23747,0.68151325,0.9817867,9.447568,-0.41945794,0.38347274,-0.3515951,-25.739386,8.612667,-88.8956,
23767,-0.12097203,1.0296963,9.493082,-0.37471688,0.43780118,-0.34467092,-26.659517,7.1129875,-89.67494,
23787,-0.45633903,1.0296963,9.174483,-0.20800312,0.33873165,-0.26637405,-24.660152,8.886768,-91.34816,
23807,-0.77014667,1.1638432,8.273783,-0.014657805,0.23433585,-0.20032774,-22.811209,7.2840157,-91.90268,
23827,-0.4587345,1.3986,7.4305744,0.07322644,0.26522848,-0.077822424,-24.351133,7.281517,-90.548065,
23847,-0.04192123,1.4800463,7.1119757,-0.020516755,0.21249795,-0.022961356,-25.275772,7.5785446,-89.491165,
23867,-0.27667814,1.5399333,7.7204275,-0.13077152,0.099047385,-0.050658204,-24.809502,5.3512497,-91.00142,
23887,-0.31979674,1.618984,8.304925,-0.07697572,-0.04103477,-0.0027213492,-23.272524,6.261364,-90.818954,
23907,0.020361215,1.844159,8.266597,0.050323267,-0.12199479,0.06811867,-24.351133,7.281517,-90.548065,
23927,0.48268855,2.0070515,8.13245,0.10731487,-0.04050214,0.10859869,-24.042427,6.404049,-90.37546,
23947,0.6431856,1.9567466,8.496562,0.03221379,0.0473821,0.05640078,-23.425581,5.8144855,-90.97235,
23967,0.33177346,1.8058314,9.337376,-0.09242204,-0.02612108,-0.044266626,-24.504807,6.4086266,-89.61319,
23987,0.051502436,1.3219447,10.345872,-0.1621968,-0.21680324,-0.1076498,-22.809202,4.9416866,-90.792145,
24007,-0.22637309,0.8093122,11.574752,-0.1403589,-0.35102645,-0.11723717,-25.580229,7.096903,-91.81462,
24027,-0.42280233,0.4715498,12.132899,0.03860537,-0.35262436,-0.056517158,-24.501099,6.0698013,-92.54971,
24047,-0.34854248,0.45238596,11.440606,0.31663913,-0.12945163,0.11765343,-24.96366,5.208452,-90.53929,
24067,-0.12336751,0.7901484,10.671657,0.3597823,0.08040527,0.28596509,-25.735064,5.950039,-89.483734,
24087,0.35812366,1.1997752,10.824967,0.23301597,0.11183055,0.3514788,-25.73284,5.1967793,-90.55829,
24107,1.1653999,1.7818766,11.100448,0.16270858,-0.0090768635,0.3264451,-25.582474,6.113682,-88.55324,
24127,1.7738514,1.9112324,10.774663,0.15418647,-0.13584322,0.14961132,-24.654924,4.185892,-90.21025,47.0
24147,1.6349138,1.4920237,10.480019,-0.010396751,-0.31214434,-0.14333615,-24.655529,4.6281204,-90.21539,
24167,0.57132125,0.7733801,11.292086,-0.35447687,-0.4506286,-0.43415305,-26.808748,3.8653393,-89.79581,
24187,-0.76296026,-0.06743288,12.231113,-0.5179948,-0.24929379,-0.49593836,-26.19129,3.701788,-91.48097,
24207,-1.5965867,-0.2399073,12.017916,-0.43277374,0.16136532,-0.21257827,-26.19129,3.701788,-91.48097,
24227,-1.0887454,-0.11773792,11.93647,-0.2793758,0.35524327,0.1607966,-26.657238,6.069544,-90.43663,51.0
24247,0.0011973679,0.05713202,11.074097,-0.08389993,0.16775689,0.2726493,-24.810143,5.070326,-90.06958,
24267,0.48029304,0.30865726,9.945827,0.024224313,-0.07405794,0.13203448,-27.116108,3.1328907,-89.17592,
24287,0.29584128,0.23200196,9.337376,-0.0396915,-0.1843127,-0.075159274,-26.040611,3.8909092,-88.84842,
24307,-0.18325448,0.10983254,8.8894205,-0.159001,-0.0969611,-0.17476141,-25.273556,5.9570427,-89.472336,
24327,-0.6647457,0.09066872,8.65706,-0.2916263,0.1997148,-0.0874098,-25.273958,6.2518616,-89.47575,55.0
24347,-0.80128795,0.07869133,8.6355,-0.37951055,0.46443278,0.07717341,-26.040163,5.187477,-90.87535,
24367,-0.6791185,0.20325622,9.176879,-0.4072074,0.50704336,0.1661229,-25.271734,5.498602,-90.55031,
24387,-0.18804543,0.18409237,9.8931265,-0.30334422,0.24285798,0.1741124,-24.50172,4.775545,-90.36803,59.0
24407,-0.015570968,0.39249903,9.366121,-0.010396751,-0.0064137047,0.101674475,-23.88903,5.978054,-89.43814,
24427,-0.21918665,0.787753,8.060586,0.2351465,0.04365368,0.07983657,-23.733656,6.104637,-90.98338,
24447,-0.37968373,0.9650184,7.317987,0.23567913,0.15923479,0.14055659,-24.654924,4.185892,-90.21025,
24467,-0.09462176,0.8476399,8.18036,0.10039065,0.044718944,0.18316711,-24.50228,4.059347,-88.96686,
24487,0.2862593,0.7566117,9.416426,0.09559697,-0.2881759,0.097946055,-23.272223,4.665346,-89.09805,64.0
24507,0.2215814,0.99855506,8.6355,0.29000756,-0.41281173,-0.0043192445,-24.656052,4.635069,-89.751175,
24527,0.07066625,1.453696,7.866552,0.3193023,-0.18644322,0.010061813,-26.808035,2.842739,-89.1649,
24547,0.20241755,1.3866227,8.245038,0.18614438,0.058034733,0.09315237,-26.808035,2.842739,-89.1649,
24567,0.46112925,1.3147583,9.30863,0.06843275,-0.03730635,0.075575516,-24.50052,3.02285,-89.26434,
24587,0.55215746,1.1590521,9.993737,0.028485365,-0.3132096,-0.0874098,-25.576916,2.421505,-88.974625,
24607,0.33416885,0.9722048,9.81168,0.031681154,-0.30362222,-0.19340353,-25.266853,0.8023567,-89.102936,
24627,0.19762662,0.6991203,9.938641,-0.1068031,-0.09056952,-0.17422879,-26.040474,3.1654453,-88.06619,
24647,0.08743459,0.16732404,11.117216,-0.27404946,0.007967353,-0.14014035,-26.193184,2.713934,-88.52905,
24667,0.0011973679,0.06431845,12.621577,-0.24901576,-0.139039,-0.116704546,-25.886208,2.727869,-87.90253,
24687,0.5018524,0.15534665,12.437125,-0.016788332,-0.40109384,-0.10179085,-26.345116,1.8178787,-89.141525,69.0
24707,1.2348688,0.5050865,10.707589,0.0742917,-0.37073383,-0.12096559,-26.963812,3.0109768,-87.62308,
24727,1.5031624,0.40926737,10.1111145,-0.17284943,0.14751688,-0.1444014,-26.192938,1.4080963,-87.12105,
24747,0.8012872,-0.38124058,11.356764,-0.48976532,0.6034497,-0.21098037,-27.268316,0.93795013,-87.91618,
24767,-0.22876856,-0.8148221,13.210864,-0.4940264,0.48200962,-0.2940709,-25.884853,1.9861908,-88.20343,
24787,-0.47310737,-0.5010145,12.997667,-0.057268348,0.06815474,-0.19074036,-25.73045,0.82315063,-87.25754,74.0
24807,0.154508,0.06671393,10.4369,0.3975992,-0.12625584,-0.0043192445,-24.65596,2.3182144,-86.93858,
24827,0.7126545,0.5865328,8.290551,0.394936,0.0047715623,0.07344499,-25.113457,0.37636185,-88.16559,
24847,1.3067331,0.6272559,7.7922916,-0.022114651,0.22528112,0.047346037,-26.040503,0.56072235,-84.78598,
24867,1.4887896,0.23918839,9.116992,-0.49029797,0.31316534,-0.0772898,-26.036638,1.232914,-89.127075,
24887,0.5617394,-0.014732331,10.3842,-0.6032159,0.15816951,-0.2754288,-23.578238,2.3229752,-87.68565,
24907,-0.38687015,0.16492856,10.070392,-0.40241373,-0.090036884,-0.34040987,-25.116625,2.444725,-87.88011,
24927,-0.72702813,0.24637482,9.507455,-0.20906839,-0.13797374,-0.2466667,-24.347336,1.8760262,-87.23532,
24947,-1.0072991,0.18409237,8.980449,-0.11745573,0.029805256,-0.12788983,-25.26873,1.5509834,-88.33783,84.0
24967,-1.1414459,0.25835222,8.887026,-0.09721573,0.17255057,0.06652078,-22.961254,1.0079498,-87.50032,
24987,-0.57850844,0.24158387,9.471521,-0.05833361,0.061763156,0.2396261,-24.653679,1.2747726,-87.70027,
25007,0.0107792765,0.64402425,9.296652,0.106782235,-0.16140953,0.27744296,-25.57634,-0.6254425,-85.689285,
25027,0.31740057,1.2213346,8.453444,0.2740286,-0.16460533,0.2998135,-26.651873,0.64320374,-88.51648,
25047,0.7677505,1.5159785,8.034235,0.3075844,-0.047426354,0.3349672,-23.57507,0.25461578,-87.97116,
25067,1.0240668,1.7555263,8.039026,0.23727702,0.007434721,0.29022613,-24.346739,0.5655594,-86.13678,
25087,0.9522023,1.8776958,8.204314,0.14566436,0.03406631,0.17837344,-24.959942,0.23823929,-87.69589,88.0
25107,0.6503721,1.6764755,8.563636,0.0508559,0.026076833,0.053204987,-24.037163,-0.32349014,-86.737854,
25127,0.25990906,1.0464647,9.8931265,-0.1068031,-0.10335268,-0.05119084,-22.807564,0.86750793,-87.18535,
25147,-0.38447466,0.32303014,11.905329,-0.13236941,-0.23651062,-0.090605594,-25.577557,-0.6092262,-84.60614,
25167,-0.74140096,-0.057850927,12.463475,0.15951279,-0.31107906,0.027638663,-22.80902,0.3079834,-85.16696,
25187,-0.3605199,-0.017127812,11.117216,0.52809393,-0.2295864,0.25826824,-24.50055,0.41812897,-85.984146,
25207,0.23116332,0.44280407,9.481104,0.5547255,-0.09270005,0.43297145,-24.808321,-0.8877449,-84.27426,
25227,0.83242834,0.74463433,9.471521,0.24579912,0.04152315,0.47291884,-24.038847,-0.59051514,-84.877625,
25247,0.8468013,0.76858914,10.185375,-0.0396915,0.11555897,0.378643,-25.578718,-0.8832054,-83.21013,
25267,0.19283566,0.62965137,10.38899,-0.1755126,0.12940739,0.19009133,-24.808184,-1.6132088,-83.492035,
25287,-0.087435335,0.31105274,10.702798,-0.3438242,0.013826301,0.040954456,-23.884792,-1.7489204,-83.62227,96.0
25307,0.32698244,0.01401341,11.831069,-0.5201254,-0.11507058,-0.005384508,-24.499294,-1.624752,-84.567566,
25327,0.51382977,-0.5465286,12.187995,-0.52971274,-0.02345792,-0.028287672,-25.114931,-1.9196434,-83.96042,
25347,-0.235955,-0.62078834,12.252673,-0.44662216,0.19705163,-0.063974,-25.885439,-1.3347282,-83.52205,
25367,-0.7437964,-0.5417377,11.910119,-0.24848314,0.2923927,0.048943933,-25.734743,0.5908737,-83.07631,
25387,-0.4491526,-0.27344403,11.287294,-0.019451492,0.14538635,0.19381976,-25.271423,-0.72880554,-83.0495,104.0
25407,-0.04910767,-0.060246438,10.285985,0.13980542,-0.08417794,0.1996787,-24.348707,0.8812218,-84.74762,
25427,0.19523114,0.16253307,9.3253975,0.18188332,-0.18484534,0.14162184,-26.194658,0.4179268,-84.32385,
25447,0.40842873,0.29667988,8.625918,0.09879276,-0.16407269,0.061194465,-25.11962,1.760952,-84.31267,
25467,0.5401801,0.31344822,8.472608,-0.04821361,-0.093232684,-0.026689779,-26.34833,-0.45496368,-83.38899,
25487,0.3030277,0.11701898,8.779229,-0.17125154,-0.039436877,-0.11510665,-23.734966,0.18825912,-82.40286,
25507,-0.47550285,-0.03868714,8.913376,-0.2026768,0.04365368,-0.17476141,-24.964209,-0.13913727,-83.358215,
25527,-1.0096946,-0.0027549267,9.093037,-0.14248942,0.16988742,-0.0655719,-23.42169,-1.9078598,-84.847015,
25547,-0.8108699,0.18648785,9.08585,0.013039045,0.18160532,0.09634815,-23.886496,-1.0026093,-83.01189,
25567,-0.37968373,0.47873622,8.712155,0.18028542,0.01009788,0.1623945,-23.733767,-1.5644379,-81.29918,
25587,0.29344577,0.63683784,8.53489,0.2921381,-0.20348744,0.16559027,-22.80707,-1.7441597,-84.36934,
25607,0.56413484,0.99376416,8.130054,0.33687913,-0.22266218,0.07237973,-22.656446,-1.2648544,-82.04967,
25627,0.099411994,1.3698543,8.070168,0.25538647,-0.0074789682,-0.0037866128,-23.579939,0.31947327,-83.638626,
25647,0.03233859,1.3698543,8.403139,0.15525174,0.1714853,0.027106028,-24.348526,-1.0026665,-82.55908,
25667,0.14971703,1.3842272,8.53489,0.092401184,0.1645611,0.014322867,-23.576113,-2.4812965,-83.60611,
25687,0.20241755,1.2237301,9.315816,0.023691682,0.027142096,-0.06716979,-23.422853,-2.1818314,-83.45099,
25707,0.11857581,0.8260807,10.281194,0.04766011,-0.17152955,-0.17476141,-22.810503,-0.10644913,-83.30502,
25727,-0.38687015,0.4044764,11.148356,0.14726226,-0.3148075,-0.25998247,-24.500916,-1.3137169,-83.487854,
25747,-0.78451955,0.31105274,11.248967,0.28840965,-0.31107906,-0.1795551,-21.883862,-2.7458038,-83.25142,
25767,-0.42519778,0.5506006,10.858504,0.39174023,-0.123060055,0.06758604,-22.193045,-3.0198174,-81.55353,
25787,0.31260955,0.8356626,10.501577,0.32888967,0.020750513,0.21086398,-22.654232,-2.8863564,-82.03084,
25807,0.6455811,0.99136865,10.918391,0.14992541,0.020217882,0.14268711,-21.888924,-1.6652985,-80.01401,
25827,0.6647449,0.893154,11.740041,0.051388532,-0.047958985,0.016453395,-22.19385,-2.4301758,-81.56038,
25847,0.6048579,0.68714285,11.610684,0.10731487,-0.10601584,-0.060245577,-22.80738,-3.766201,-81.560165,
25867,0.92824745,0.51227295,11.004629,0.07322644,-0.20188956,-0.08155085,-22.501238,-3.0175362,-81.096924,
25887,1.6588686,0.14576472,10.848923,-0.14834836,-0.12146217,-0.11191086,-24.653534,-4.082081,-81.13812,
25907,1.1917503,-0.27104858,11.711295,-0.32358423,0.26150006,-0.20405616,-21.423698,-3.8786926,-80.595856,
25927,-0.039525762,-0.53694665,12.144876,-0.23037367,0.48254225,-0.23761196,-22.653032,-4.6390495,-80.927155,
25947,-0.6839095,-0.3668677,11.431024,0.092401184,0.3824075,-0.08794243,-21.727526,-4.9476547,-82.75774,
25967,-0.04192123,0.028386295,9.677534,0.3762939,0.09212317,0.124577634,-20.651598,-4.629547,-82.27037,
25987,1.2684056,0.28709796,8.027049,0.31184545,-0.11027689,0.15333974,-22.19332,-4.318699,-79.68132,
26007,1.7379192,0.4619679,7.9456024,-0.053007293,-0.03251266,-0.016037142,-22.345709,-4.6297455,-80.61009,
26027,1.0599989,0.4404086,8.757669,-0.35714,0.15763688,-0.19659932,-20.192232,-4.3045654,-80.71506,
26047,0.027547628,0.5745554,9.311025,-0.39921793,0.30677378,-0.23281828,-20.498339,-4.330078,-82.11525,
26067,-0.33177415,0.6607926,9.136155,-0.30227897,0.34352535,-0.13161825,-19.576504,-3.5767097,-81.94629,
26087,-0.20481378,0.63923335,9.023568,-0.21173154,0.29665375,-0.029352937,-20.037554,-4.1687164,-81.64137,
26107,-0.24314144,0.7901484,9.078664,-0.14675048,0.15337582,0.0026049684,-18.189955,-4.1615486,-82.98839,
26127,-0.12336751,0.98418224,9.1074095,-0.013592543,0.04365368,0.059063938,-19.266562,-5.4837265,-81.606964,
26147,0.12576225,1.2021707,8.2881565,0.16430646,0.0015757716,0.11232711,-19.11537,-3.419979,-81.78186,115.0
26167,0.2862593,1.5207694,7.5216026,,,,-18.96267,-3.836708,-80.225586,
26187,0.5545529,1.4465095,8.079749,0.15205595,-0.001620019,0.13469765,-19.421833,-4.309105,-81.77919,
26207,0.66234946,1.2261256,9.162506,0.0029190425,-0.038904242,0.14002395,-19.268988,-4.5830536,-80.5341,
26227,0.5401801,1.1303064,9.406844,-0.04022413,-0.1374411,0.07983657,-18.501125,-3.106556,-81.15117,
26247,0.20241755,1.403391,8.939726,0.0726938,-0.23491272,0.0026049684,-19.581163,-2.7910233,-78.705444,
26267,0.14732155,1.3506904,9.823658,0.1179675,-0.108679,-0.0016560858,-18.346006,-5.2921944,-79.574356,
26287,0.41801065,0.7901484,11.251363,0.022626417,0.15018004,0.10220711,-20.653173,-5.47694,-79.78436,
26307,0.3557282,0.37573066,12.005939,2.5588367E-4,0.1379295,0.12990394,-18.195301,-2.4983559,-80.222,
26327,0.30542314,0.22002456,11.3328085,0.20904754,-0.124657944,0.046813406,-18.34544,-3.7077599,-82.06891,
26347,0.08024815,0.4955046,10.592606,0.52010447,-0.37233174,-0.012841353,-19.425076,-3.6870422,-79.61978,
26367,-0.17367256,0.7973349,10.18777,0.6058582,-0.36380962,-0.020298198,-17.730059,-5.725086,-79.554016,
26387,-0.1688816,1.1830069,9.830844,0.47483078,-0.092167415,0.043084983,-18.194569,-4.5342865,-78.34125,
26407,0.45873374,1.504001,10.147047,0.25591913,0.25990215,0.20393977,-19.270864,-3.8344269,-79.769,
26427,1.1917503,1.1973798,10.491996,-0.04235466,0.39092958,0.29022613,-17.114943,-5.4232445,-79.696976,
26447,0.45154732,0.64162874,11.035769,-0.2910937,0.3579064,0.11818606,-17.732128,-3.9608116,-79.88403,
26467,-1.0839543,-0.17283392,12.058639,-0.50041795,0.2705548,-0.22003512,-16.809889,-3.5022583,-79.711624,
26487,-2.1164055,-0.43633655,12.451498,-0.5781822,0.121950544,-0.44587094,-17.886898,-4.5296173,-78.33365,125.0
26507,-1.7594794,-0.24948928,11.208243,-0.37418425,-0.03783898,-0.34413826,-16.65557,-4.2300224,-79.23508,
26527,-0.77014667,0.28949344,9.802098,-0.046615712,-0.1709969,-0.034679253,-16.346972,-4.527115,-79.68825,
26547,0.041920513,0.13378733,9.75898,0.019963259,-0.2077485,0.17517765,-17.117313,-4.812763,-78.31123,
26567,0.101807475,-0.057850927,10.259635,-0.13929363,-0.16886638,0.18369976,-17.428467,-2.0212936,-78.66081,
26587,-0.04910767,-0.077014774,9.943432,-0.20800312,-0.16780111,0.06705341,-17.272121,-3.3549042,-79.260544,
26607,-0.056294113,0.081086814,8.8894205,-0.12171678,-0.1827148,-0.0123087205,-15.580776,-1.5811615,-80.6319,
26627,-0.18325448,0.39489448,8.6187315,-0.04235466,-0.06819899,-0.026157144,-16.65522,-4.2346535,-79.54454,
26647,-0.42040685,0.49790007,9.061895,-0.09135678,0.14059266,-0.005384508,-15.735143,-2.44479,-79.078094,
26667,-0.5305989,0.7206795,8.575613,-0.09295467,0.23380323,0.03882393,-16.963488,-2.9288597,-80.65068,
26687,-0.235955,1.0392781,7.5958624,0.058845375,0.109700024,0.07184709,-15.580721,-1.8713455,-80.319,
26707,0.046711475,0.94345903,7.4305744,0.1280875,-0.033577926,0.09261973,-14.965614,-2.437748,-79.368546,
26727,-0.19523187,0.90992236,8.137241,0.034876946,0.0047715623,0.075575516,-14.654509,-4.0707893,-80.42525,
26747,-0.33416963,0.8500354,8.896607,-0.04608308,0.06975264,0.03296498,-16.349388,-2.7582092,-79.708786,
26767,0.0035928488,0.77577555,8.855884,-0.011462016,-0.02292529,0.041487087,-15.732113,-3.7876816,-80.1458,
26787,0.20241755,1.0033461,8.731319,0.09453171,-0.17738849,0.046813406,-15.735143,-2.44479,-79.078094,
26807,0.29584128,1.1039561,8.714551,0.12542436,-0.15288743,0.034562875,-16.657976,-1.5928688,-80.34903,
26827,0.24074522,1.0464647,9.114595,0.07748749,0.012761039,0.039356563,-16.198032,-1.5650177,-78.94502,
26847,0.19044018,0.90992236,9.488291,-0.0040051704,0.09958002,0.014855499,-14.658291,-2.4284477,-79.0515,
26867,-0.04910767,0.8021258,10.41534,-0.07750835,-0.05222004,-0.075159274,-16.041248,-2.4703026,-80.47829,
26887,-0.07066698,0.5745554,11.193871,-0.13130416,-0.2546201,-0.16464141,-14.3498125,-3.0134125,-79.03705,
26907,-0.2814691,0.5889282,10.880064,-0.044485185,-0.3419717,-0.19074036,-15.426665,-3.0297546,-79.063644,
26927,-0.28626004,0.8452444,10.3554535,0.14353384,-0.20295481,-0.14919509,-16.966171,-1.5905914,-79.892426,
26947,0.17606732,1.0488601,10.801013,0.16057804,0.031403154,0.0031376001,-14.658291,-2.4284477,-79.0515,115.0
26967,0.885129,0.94825006,11.414255,-0.016255701,0.12621161,0.094750255,-16.19405,-3.3547745,-80.31708,
26987,1.4073433,0.7614027,11.878978,-0.107335724,0.08892738,0.07131446,-14.6588955,-1.9862213,-79.056625,
27007,1.5870041,0.07150489,11.680154,-0.15260942,-0.045828454,-0.09966033,-16.047062,-1.0903473,-76.93483,
27027,1.0192758,-0.5609014,10.978278,-0.16485997,-0.08204742,-0.31484354,-14.04323,-1.8364182,-79.50734,
27047,-0.30063292,-0.92980504,10.683634,-0.20214418,0.06549159,-0.46291515,-13.428636,-1.5276299,-79.1861,
27067,-1.6109596,-0.97052824,11.299272,-0.35287896,0.27108744,-0.5444078,-14.662539,-1.0693359,-76.900635,
27087,-1.6061687,-0.74295783,11.9268875,-0.46686217,0.39306012,-0.40112987,-15.737404,0.33514023,-80.503204,
27107,0.16648537,-0.38603148,11.021397,-0.28683263,0.2971864,-0.008580298,-14.505196,-1.2584229,-79.83505,
27127,1.6468911,0.09785515,9.200832,0.10838013,0.019152619,0.33123878,-13.429351,-0.5050354,-79.81702,
27147,1.9487214,0.4643634,7.3706875,0.33741176,-0.20029165,0.29022613,-13.889961,-0.6687126,-80.44563,
27167,1.1486316,0.71828413,7.3754783,0.18348122,-0.2327822,0.013257603,-15.123396,0.072818756,-78.937256,
27187,0.05868885,0.37573066,9.7278385,-0.34275898,-0.055415828,-0.23228563,-13.891114,-0.07444,-80.143005,
27207,-0.5018531,0.124205425,10.980674,-0.7470265,0.18213794,-0.28980985,-14.042607,-0.54216766,-81.68901,
27227,-0.51143503,0.2607477,10.702798,-0.60534644,0.18852952,-0.21843722,-14.507494,0.7983589,-80.32323,
27247,-0.28865552,0.43322214,9.227184,-0.1472831,0.009565247,-0.12682456,-15.586626,1.8254585,-79.588135,
27267,-0.2503279,0.82368517,7.7587547,0.25591913,-0.1827148,-0.08314874,-14.353685,0.9457855,-80.47586,
27287,-0.17367256,1.0871878,7.7539644,0.35711917,-0.20828113,-0.060245577,-14.351176,-0.3901596,-81.07939,
27307,0.05629337,1.2045662,8.453444,0.19413385,-0.054350566,0.024975501,-14.044979,0.0683136,-80.30327,
27327,0.3102141,1.2548712,9.057105,0.075889595,0.106504224,0.12244711,-13.12297,0.81937027,-80.28903,
27347,0.6216263,1.2908034,9.0810585,0.121695936,0.13153793,0.17144923,-14.353228,0.36078262,-80.159546,
27367,0.73900473,1.4704643,8.946913,0.24047282,-0.019196866,0.13309973,-14.353228,0.36078262,-80.159546,
27387,0.6934907,1.4081819,8.949307,0.3075844,-0.16993164,0.014322867,-13.890766,-0.079071045,-80.452484,
27407,0.25990906,1.0895833,9.478709,0.2687023,-0.20348744,-0.08954033,-13.890766,-0.079071045,-80.452484,
27427,-0.29823744,0.68474734,10.700403,0.12915279,-0.10015689,-0.15718456,-15.43008,0.34444046,-80.18614,
27447,-0.56174004,0.24158387,12.015521,-0.0040051704,0.018087355,-0.13055299,-13.891114,-0.07444,-80.143005,
27467,-0.4587345,0.011617929,11.668176,0.060975906,0.052708417,-0.01763504,-16.660604,-0.544796,-79.27788,
27487,-0.10659915,0.33500752,10.125488,0.38108757,-0.0074789682,0.11072921,-15.431288,1.2288933,-80.19641,
27507,0.15929896,0.68474734,9.629623,0.57762873,-0.07778636,0.20713556,-15.734639,-1.4384079,-80.79213,
27527,0.06827077,0.838058,10.465646,0.38694653,-0.0080116,0.22151661,-14.969185,-0.0745697,-79.08649,
27547,,,,0.03221379,0.19012743,0.20180924,-15.891478,-0.24293518,-79.57176,
27567,-0.23355952,0.87159467,11.766391,-0.18403469,0.31689376,0.20820081,-16.203325,2.5577984,-79.30243,
27587,-0.27428266,0.7590072,12.029893,-0.15953363,0.14858215,0.1863629,-16.20056,0.7842598,-79.591354,
27607,0.47789764,0.68474734,11.052538,-0.11798836,-0.1843127,0.12351238,-17.280333,1.5304413,-77.92444,
27627,0.56413484,0.3853126,10.650098,-0.2506137,-0.15022427,-0.030418199,-16.662014,0.48706818,-79.289856,
27647,-0.9234573,-0.09617859,11.0884695,-0.4072074,0.1528432,-0.1358793,-15.430941,1.2242622,-80.50589,
27667,-1.6468918,-0.18960229,11.763995,-0.40827268,0.21942216,0.05959657,-15.739079,0.9363556,-79.73639,
27687,-0.4275933,-0.12971532,11.641826,-0.21492735,-0.005348441,0.33709773,-17.278355,2.0830154,-80.40703,
27707,0.92106116,0.028386295,10.731544,0.001853779,-0.20295481,0.34561986,-16.817478,2.6773415,-80.557205,
27727,1.2228913,0.11701898,9.8667755,0.093466446,-0.2844475,0.12937132,-16.204533,3.442255,-79.3127,
27747,0.7342138,-0.081805766,8.956493,0.049790636,-0.2913717,-0.13694456,-17.895603,2.9673977,-79.81355,
27767,0.044315994,-0.14408818,8.63071,-0.10893363,-0.14170216,-0.24613407,-18.507917,1.6151619,-80.896484,
27787,-0.41801137,-0.27583948,8.70976,-0.23250419,0.17521372,-0.16251089,-18.510235,1.935463,-79.197845,105.0
27807,-0.8348246,-0.15127462,8.784019,-0.19521996,0.38560328,-0.008047667,-17.280636,3.126461,-79.64534,
27827,-0.52341247,0.33021656,8.470212,-0.07644309,0.24605376,0.14694816,-17.281296,3.8588734,-79.96336,
27847,0.18085825,0.7422389,8.070168,0.05511695,0.06922001,0.1576008,-18.047443,2.5043068,-81.05008,
27867,0.17367181,0.95304096,7.2868457,0.1110433,0.07934001,0.028703924,-18.049257,3.830986,-81.06549,
27887,-0.39884752,0.90034044,7.011366,0.017300101,0.17042005,-0.049592942,-18.817375,2.7920837,-80.76305,
27907,-0.83722013,0.9242953,7.9240427,-0.1542073,0.15923479,-0.0037866128,-15.892513,3.389017,-83.17343,
27927,-0.5521581,0.838058,9.433195,-0.13876098,0.099047385,0.103805,-19.126457,3.8192768,-80.78262,
27947,-0.07545793,0.81649864,9.605669,0.103053816,0.01009788,0.13469765,-17.74011,3.3818493,-81.826416,
27967,0.1449261,1.0776058,9.114595,0.27136543,-0.04103477,0.06279235,-18.510674,4.2569447,-81.70096,
27987,0.1449261,1.12312,9.018777,0.22236334,-0.07991689,-0.05545189,-17.896355,3.2668476,-79.50751,
28007,-0.26230526,0.99136865,9.9194765,0.06044327,-0.06819899,-0.12788983,-18.202003,2.65633,-80.5914,
28027,-0.4347797,0.48592266,11.181894,0.052986424,-0.059676882,-0.08634454,-17.282045,4.158327,-79.65732,
28047,-0.31021482,0.27512056,11.351973,0.22822228,-0.10068952,-0.024559248,-18.356737,2.810669,-79.97798,
28067,-0.09462176,0.33979848,10.731544,0.36777177,-0.0751232,0.011659708,-18.970232,2.1977959,-80.91472,
28087,-0.08024889,0.50269103,10.3818035,0.34327072,0.05004526,0.020714449,-17.431606,2.6517887,-81.65553,
28107,-0.113785595,0.7637982,11.057329,0.2031886,0.10810213,0.047878668,-19.281136,3.6834316,-79.85631,
28127,0.27907288,0.54820514,11.529238,0.19040543,0.048979998,0.08463026,-20.357988,3.6670895,-79.882904,
28147,0.55694836,0.64162874,10.700403,0.22768965,-0.05168741,0.038291298,-19.586271,2.1977234,-80.31099,
28167,0.9785526,0.7614027,10.206934,0.024756946,-0.12678847,-0.06716979,-20.045866,2.1652412,-82.02446,
28187,1.4744166,0.20565169,10.726753,-0.29642,-0.014935814,-0.19766457,-20.049309,2.9347134,-79.866745,98.0
28207,0.5593439,-0.278235,11.864605,-0.48017794,0.19705163,-0.34520355,-20.35505,1.8912315,-80.32655,
28227,-0.68870044,-0.4626868,11.98917,-0.40081584,0.257239,-0.32123512,-20.046278,1.591816,-80.93448,
28247,-0.7461919,-0.2087661,11.4118595,-0.19149153,0.23912954,-0.06290874,-19.125607,2.0712166,-79.36948,
28267,0.24553618,0.16492856,10.460855,0.00504957,0.24126007,0.19808082,-18.512459,2.6887226,-78.12326,
28287,1.4696257,0.53383225,9.373308,0.06896538,0.12088528,0.22577767,-19.123638,1.7555504,-80.75867,
28307,2.046936,0.8284761,8.664246,-0.019984122,-0.054350566,0.013790234,-18.969013,2.1815834,-81.99786,
28327,1.4839987,0.68474734,8.304925,-0.21226418,-0.0532853,-0.27170038,-18.822979,4.892872,-78.31128,
28347,0.25990906,0.2942844,8.70976,-0.40667477,0.1512453,-0.41870672,-20.20246,2.0548744,-79.39607,
28367,-0.9641805,0.112228036,9.380494,-0.4375674,0.36163482,-0.32869196,-19.1247,2.7827816,-81.08009,
28387,-1.3258977,0.10983254,9.399658,-0.24795051,0.33873165,-0.107117176,-18.512642,4.572609,-80.31178,
28407,-0.8611749,0.45717692,8.91098,-0.013592543,0.058034733,0.04468288,-19.43326,3.8030262,-81.56389,
28427,-0.21679117,0.8859676,8.338461,0.13075067,-0.19975902,0.07397762,-18.97037,2.9232597,-81.696945,
28447,-0.05150315,1.2189391,7.7419868,0.15791489,-0.20561796,0.043084983,-19.280266,3.6718502,-80.629974,
28467,0.075457215,1.3554814,8.051003,0.06630222,-0.08577583,0.081434466,-20.04875,3.6509132,-81.267914,
28487,0.6455811,1.2979898,8.822348,0.010375887,-0.050622143,0.12084922,-18.51048,3.2412949,-80.605835,
28507,0.8491968,1.403391,9.392472,0.07322644,-0.07246004,0.037758667,-20.662428,2.1721153,-80.95651,
28527,0.57371676,1.4441142,9.500268,0.16856754,-0.08098215,-0.0874098,-18.820158,2.8291435,-78.28731,
28547,-0.001198113,1.3147583,9.5362,0.19040543,-0.094297945,-0.15239088,-19.125797,3.0868645,-80.4646,
28567,-0.4156159,0.9266907,10.23568,0.1296854,-0.16673586,-0.13002035,-20.2019,2.7710724,-80.79724,
28587,-0.21679117,0.22960648,11.325623,0.12702225,-0.24822852,-0.06983296,-22.359076,3.652954,-78.84917,
28607,-0.39884752,-0.11294696,11.907723,0.2303528,-0.21840113,-0.056517158,-20.664497,3.9363918,-81.28653,
28627,-0.83003366,-0.20637062,11.890956,0.38694653,-0.08311268,0.039889194,-21.893034,1.7181587,-80.51758,
28647,-0.6791185,0.0020360053,11.428628,0.5067887,0.010630512,0.23323451,-21.737816,0.833725,-80.65823,
28667,-0.235955,0.34458944,11.351973,0.5408771,-5.5475545E-4,0.3738493,-20.511084,2.4970627,-79.099335,
28687,0.5401801,0.7542163,10.880064,0.52915925,-0.12838636,0.4239167,-22.662453,1.1307487,-79.60132,
28707,1.1917503,1.3051764,9.620042,0.37256548,-0.09749374,0.28862825,-23.279783,2.450409,-79.4772,
28727,0.6407901,1.1638432,9.215206,-0.051409397,0.13739689,0.009529181,-22.200762,2.0036774,-80.83807,
28747,-0.681514,0.33261204,10.1638155,-0.51000535,0.2923927,-0.17902248,-22.664467,2.6048412,-79.61844,
28767,-1.6492873,-0.34051743,11.922097,-0.68311065,0.20450848,-0.17050035,-23.279125,1.7179947,-79.159164,
28787,-1.3426661,-0.5561105,12.511385,-0.45035058,-0.016533708,0.0015397047,-23.279125,1.7179947,-79.159164,
28807,-0.18564996,-0.43873206,11.766391,-0.111596785,-0.24450009,0.15120922,-22.356657,1.8840446,-78.82861,
28827,0.54976195,-0.1416927,10.396177,0.058845375,-0.3148075,0.14002395,-22.203737,3.056385,-79.45746,
28847,0.57850766,0.15774211,9.196042,-0.011994647,-0.124657944,0.06705341,-21.588797,3.3605442,-79.44568,87.0
28867,0.5545529,0.27512056,8.570823,-0.24315682,0.106504224,0.027638663,-21.896816,3.360508,-79.143814,
28887,0.32698244,0.20325622,8.791205,-0.47325376,0.27641377,-0.046397153,-23.58861,3.0400066,-79.182175,
28907,-0.07785343,0.08587776,9.519432,-0.52065796,0.2838706,-0.10924771,-22.512682,3.358118,-78.69481,
28927,-0.31979674,0.033177227,9.854799,-0.35074845,0.10224317,-0.13907509,-23.744286,4.509447,-79.357834,
28947,-0.32698318,0.17930141,9.116992,-0.04555045,0.008499985,-0.11244349,-22.204744,3.7934303,-79.46602,
28967,-0.31500578,0.5218549,7.4449472,0.13554436,0.10916739,-0.045331888,-23.587446,3.313982,-80.5782,
28987,-0.24074596,0.7973349,6.719117,-0.0082662245,0.1645611,-0.016037142,-22.97441,4.511854,-79.95776,
29007,-0.42040685,0.7805666,7.7587547,-0.22451471,0.11555897,-0.047995046,-23.279217,4.034849,-81.971756,81.0
29027,-0.7246326,0.6536062,8.798393,-0.16006628,-0.011740022,-0.057049785,-22.82009,3.784092,-79.48122,
29047,-0.60006773,0.82128966,8.522913,0.08228118,-0.15288743,-0.0123087205,-23.897345,4.0625706,-79.51123,
29067,-0.30781937,1.2261256,8.082145,0.20744964,-0.12785374,0.040954456,-23.438957,4.9795074,-77.808044,
29087,0.05868885,1.4944191,7.8114552,0.1376749,-0.054350566,0.047878668,-22.667845,3.9523678,-78.24126,
29107,0.06827077,1.5471196,8.386371,-0.0716494,-0.02026213,-0.044799257,-22.050468,4.2240963,-80.39574,76.0
29127,-0.12336751,1.1590521,9.5697365,-0.18776311,0.0063694576,-0.15824983,-22.669447,5.99988,-79.34836,
29147,-0.78451955,0.85961735,10.233285,-0.16166416,0.039392624,-0.23228563,-22.821499,4.815958,-79.493195,
29167,-1.021672,0.8021258,10.863295,-0.083367296,0.054838944,-0.12948771,-22.973951,3.9268513,-79.64145,
29187,-0.16409063,0.51706386,10.990256,0.076954864,-0.05168741,0.010061813,-23.282814,3.7933025,-78.40947,
29207,0.30063218,0.22002456,11.131589,0.156317,-0.21627061,-0.08261611,-22.665337,2.6164227,-78.84477,70.0
29227,-0.55694914,0.06671393,11.581939,0.13075067,-0.27912116,-0.23761196,-24.512661,3.9081383,-79.369995,
29247,-1.0144855,-0.218348,11.450188,0.14353384,-0.18164954,-0.16996774,-21.587332,2.038494,-79.120804,
29267,-0.4922712,-0.13211077,11.275318,0.10411908,-0.046361085,0.048943933,-22.206366,4.1044655,-78.38631,
29287,0.61683536,-0.0027549267,11.684945,0.013039045,-0.02931687,0.21192923,-22.821653,3.8049393,-78.08861,
29307,1.6780324,-0.108155996,11.668176,-0.04555045,-0.15821375,0.11818606,-24.666927,4.3457146,-79.533646,63.0
29327,1.7858288,-0.31656262,11.019001,-0.13290204,-0.1976285,-0.17902248,-24.51278,3.6202698,-78.90236,
29347,0.18564922,-0.44831392,11.093261,-0.28896317,0.021815779,-0.40272778,-24.669098,4.80879,-78.14618,
29367,-0.8348246,-0.7285849,11.737645,-0.29588735,0.23806429,-0.2594498,-24.357388,2.7335167,-79.197754,
29387,-0.3581244,-0.5417377,11.526843,-0.1068031,0.19438848,0.015920762,-23.74491,3.2151928,-77.17616,
29407,0.5258072,0.03796819,10.156629,0.06949801,0.055371575,0.10966395,-21.899443,4.4085846,-78.07266,56.0
29427,1.1318632,0.447595,8.894212,0.014104309,0.007967353,0.020181816,-21.746157,4.5629597,-77.76111,
29447,1.1869593,0.53383225,8.738506,-0.25594002,0.03513157,-0.15824983,-22.66346,1.867794,-79.60988,
29467,0.32219148,0.23918839,9.449963,-0.4610032,0.14219056,-0.30472353,-25.12893,4.2005672,-78.92439,
29487,-0.30063292,0.093064204,9.850008,-0.43170846,0.16189793,-0.31324562,-22.515043,4.8368416,-78.402466,
29507,-0.83003366,0.22960648,9.253534,-0.30920315,0.11768949,-0.26317826,-22.82246,4.394577,-78.09546,50.0
29527,-1.2492424,0.38052163,8.851093,-0.27511474,0.18533374,-0.15398878,-23.284033,3.809517,-77.32634,
29547,-1.021672,0.33979848,9.3780985,-0.2644621,0.21409586,0.0063333907,-21.59189,4.1253853,-77.59744,
29567,-0.68870044,0.43561763,9.897918,-0.08762835,0.08466633,0.11605553,-22.822716,4.8321724,-78.410065,
29587,-0.034734815,0.74702984,9.5170355,0.22396122,-0.14969164,0.19541766,-22.36042,5.262871,-79.64166,
29607,0.7821233,1.0776058,8.309715,0.42742655,-0.32332963,0.19488502,-22.20772,4.8461437,-78.08539,44.0
29627,1.0192758,1.3099674,7.689286,0.39067495,-0.19603059,0.10859869,-23.284216,5.693407,-79.51486,
29647,0.6575585,1.2860125,8.189941,0.24047282,0.09212317,0.051074456,-22.51444,4.3946133,-78.39732,
29667,0.20481306,1.0057415,9.095432,0.17922017,0.15710425,0.019649185,-21.1317,5.5972157,-78.22209,
29687,-0.027548373,0.787753,9.871567,0.22982019,-0.06234004,-0.03627715,-22.20631,3.8142776,-78.07341,
29707,-0.116181076,0.53383225,10.927973,0.29639915,-0.31427488,-0.091670856,-20.052038,2.6815891,-77.078125,40.0
29727,-0.55694914,0.09545967,11.826278,0.4098497,-0.32918856,-0.12629193,-22.510311,2.747635,-80.08057,
