Timestamp,acc_x,acc_y,acc_z,gyro_x,gyro_y,gyro_z,mag_x,mag_y,mag_z,light
6557,-0.19403413,0.35177588,9.881149,0.16563806,-0.12146216,-0.05039189,-4.254511,27.00152,-63.657074,
6607,0.10021049,0.5833388,10.054421,-0.13663049,-0.044496864,-0.018167667,-3.6392546,27.012016,-63.564507,
6657,-0.20720926,0.39609224,9.980561,0.108912766,0.06300596,0.021424623,-3.27812,26.023542,-64.29211,
6707,0.038726542,0.69592625,9.591296,-0.07910624,0.14538634,0.09927763,-2.7149973,26.430597,-63.92169,
6757,0.06587529,0.31823918,10.426121,-0.06614555,0.097804576,0.05142954,-1.8435472,26.7371,-64.006744,
6807,-0.13774039,0.50828046,9.536999,0.04499695,-0.14250112,-0.051723473,-3.6375198,26.554733,-64.56514,
6857,0.2551181,0.34458944,10.566256,0.029550629,0.12319335,0.05870885,-2.6628513,27.046988,-65.47518,
6907,-0.29823744,0.71109766,8.93254,0.19226964,-0.21999902,-0.058647685,-1.7132101,26.27636,-65.36525,
6957,0.52101624,0.6524085,10.662075,-0.14035888,0.11857722,0.121204294,-2.613868,27.560745,-64.035446,
7007,0.0634798,0.6356401,10.211725,0.16510542,-0.1824485,-0.110845596,-2.7129555,26.186321,-65.46646,
7057,-0.35173646,0.8644083,9.699093,-0.08034905,0.18568881,0.05480288,-2.3549812,26.614832,-65.1014,
7107,0.15690348,0.57096213,10.525533,0.10678224,-0.05541582,0.09155447,-2.3308392,26.876345,-64.07207,189.0
7157,-0.13853888,0.7677906,9.884343,0.2974644,0.033178587,-0.0016560853,-2.6119022,26.039062,-63.914597,
7207,-0.64677954,1.0596397,9.5302105,0.14486541,0.11396108,0.10513657,-2.4055777,25.905437,-64.8365,175.0
7257,-0.30143142,1.0720164,9.772553,0.005404657,-0.04085723,0.17393483,-2.0484562,26.875992,-64.374565,
7307,-0.6084519,1.081199,9.744607,0.029017996,-0.08471057,0.25001243,-3.406394,25.97439,-64.16576,
7357,0.035532568,1.108747,9.993737,0.09506434,-0.18040675,0.21246189,-2.303346,26.562613,-65.35745,
7407,0.13773966,1.5028033,9.393669,0.19413385,-0.25568536,0.03616077,-2.8671684,26.333714,-65.31724,
7457,-0.033936318,1.6253719,8.879041,0.06186362,0.18533373,0.07841622,-1.5847054,26.033007,-65.33344,
7507,-0.112587854,1.9327917,9.685918,-0.25088,0.2785443,-0.01736872,-1.0227509,27.10688,-64.73864,189.0
7557,-0.7477889,2.0869007,8.507741,-0.3113337,8.655985E-4,-0.116349466,-1.7382921,26.847464,-66.58481,207.0
7607,-0.49945766,1.4680688,9.912291,-0.58297586,0.09691686,0.1408229,-2.0981293,26.636728,-65.53376,242.0
7657,-0.2567158,1.4457111,9.701488,-0.4855043,-0.023102833,0.024620412,-1.0736771,27.077286,-65.02329,282.0
7707,-0.2850623,1.3339221,10.131475,-0.1771105,-0.05142109,0.020181818,-2.0995064,27.957619,-65.93601,322.0
7757,-0.26310375,1.445711,9.738217,-0.057445887,-0.040147047,-0.025446972,-1.382749,28.056116,-64.99073,352.0
7807,-0.51383054,1.4968145,10.224901,-0.09987888,-0.049556877,0.004735495,-1.3319645,29.293657,-66.08715,383.0
7857,-0.16089667,1.6357523,9.662362,0.13820751,-0.16726848,-0.022695038,-3.1259441,28.074163,-65.34383,415.0
7907,0.13175096,1.4884305,10.530323,-0.057268348,0.003173669,0.07699587,-1.4063025,28.027931,-66.84817,451.0
7957,0.11697885,0.98977166,10.399371,0.09666223,-0.34143907,-0.107117176,-1.3310446,28.244173,-65.61068,492.0
8007,-0.29584196,-0.02790746,12.047859,-0.18989365,0.03584176,-0.062198564,-1.407258,28.040672,-65.99713,544.0
8057,0.40283927,-0.20397514,11.0549345,0.21250963,-0.090036884,0.020980764,-1.5871874,28.140467,-65.719025,590.0
8107,0.6120444,0.27152735,10.593804,0.04144607,-0.15927902,-0.017635038,-2.5596657,28.149723,-67.41993,631.0
8157,1.5973846,-0.18241584,10.553479,0.09186855,0.04099052,0.08969025,-2.0989788,28.071196,-66.55637,680.0
8207,0.7437957,0.016408883,8.02106,0.23053034,0.0063694664,-0.3077418,-3.0988874,28.224522,-66.81516,
8257,-0.29025254,-0.1520731,9.92267,-0.2495484,0.29958326,-0.28288564,-3.5322773,27.34065,-67.97643,758.0
8307,-0.28027135,0.5961147,9.209217,0.018897995,0.065846674,-0.1209656,-1.7890806,26.695414,-66.842255,
8357,0.4770991,1.1374928,8.537285,0.063372746,0.111564234,0.123778686,-2.7121284,27.164276,-67.43812,834.0
8407,0.2706887,1.4285434,8.102507,0.0100208,-0.0012649322,-0.02953048,-1.8658562,27.77781,-68.32696,
8457,0.22078289,1.275632,9.086648,-0.10680309,0.02181578,-0.010178194,-2.968928,27.165789,-67.0834,899.0
8507,-0.21559346,1.2632555,9.671545,-0.040756762,-0.042277563,0.013790235,-2.5575533,27.542717,-68.573586,
8557,0.22078289,0.5402202,11.167521,-0.029837811,-0.04822529,0.18103659,-2.5067093,27.69399,-68.36772,
8607,-0.091028556,-0.006348163,11.551995,0.21863489,-0.369491,0.091199376,-4.0947437,27.286674,-69.38268,975.0
8657,0.211201,0.7430374,11.605893,0.26843596,0.01169578,0.3972851,-3.1212533,27.432795,-68.79269,
8707,0.8108691,0.38171935,9.712267,0.2772244,0.16331828,0.19541766,-1.9415741,27.398855,-68.943504,
8757,-1.1941463,0.07709434,10.952727,-0.21705787,0.043653682,-0.15398878,-1.7360731,27.348585,-69.22156,
8807,-0.4910735,0.5266458,9.041534,0.18951772,-0.006768793,0.26075384,-2.4024782,26.949623,-68.949776,
8857,0.54018,0.2463748,9.371711,-0.054605186,-0.24583167,0.1610629,-1.1195532,26.956339,-69.76915,1049.0
8907,-0.028746098,0.21283811,8.9002,-0.04217711,0.10668179,-0.014084161,-2.6345816,26.747013,-67.48294,
8957,-0.6080527,0.4955046,8.509338,-0.034897808,-0.07831898,-0.034679253,-2.0457592,27.9014,-68.100716,
9007,-0.7078643,0.6476175,8.703772,-0.13449995,0.13420106,0.061016917,-1.7110023,27.911339,-69.40801,
9057,-0.37888524,0.9490485,8.9157715,-0.09242204,-0.19176954,0.09847868,-0.8660132,27.673616,-68.06874,
9107,-0.011977762,1.3842272,8.315704,0.0080678165,-0.0071238815,0.14197694,-0.7887516,28.297344,-69.157394,
9157,0.4132197,1.3690557,10.12948,-0.20320943,-0.12812005,0.045215506,-1.4277573,27.006983,-69.36469,
9207,-0.26949167,1.0512557,10.777058,0.019785723,-0.0151133565,-0.059357863,-2.2516575,28.222307,-67.800026,
9257,0.0203612,1.0476625,10.739928,0.09879276,0.011429455,0.024975501,-1.5307941,27.397745,-69.42336,
9307,0.0035928588,-0.04587357,11.981983,0.018897993,-0.115070574,-0.0769347,-1.4806376,28.137112,-69.32751,
9357,0.52460945,-0.7824832,12.190391,-0.070850454,0.34352535,0.0870271,-2.147586,28.324316,-69.294685,
9407,0.5353891,-0.610408,11.850232,0.09133592,0.01666701,-0.03130592,-1.3271961,27.927599,-68.70221,
9457,1.2468462,0.03796819,9.9853525,0.49453813,0.09824844,0.24601768,-0.6581249,26.77143,-69.44599,
9507,2.380706,0.69991875,7.7076516,0.14637454,0.2615001,-0.053498905,-1.4036465,28.20967,-69.4812,
9557,-0.087435335,0.40926737,8.933737,-0.4442253,0.32461694,-0.5254994,-0.606486,27.008623,-70.06652,
9607,-0.92824835,0.5402202,8.9269495,-0.21386206,0.042588424,-0.23867722,-1.0950861,27.189423,-68.99741,
9657,-0.28985327,1.205764,8.925353,0.0010548308,-0.0125389695,0.032432348,-0.35005888,26.529646,-69.48712,
9707,0.52820265,1.730773,7.7403903,0.08015065,0.012583494,0.03172217,-0.5568619,27.345003,-68.985825,
9757,-0.27907363,1.2488825,10.100335,-0.3576727,0.10091159,-0.08714348,-0.40228334,27.554552,-69.913,
9807,-0.1497178,0.6464197,11.032575,0.26408616,-0.3201338,0.037403576,-0.86433125,28.567833,-70.71005,
9857,0.2647,0.64402425,10.424923,0.23834229,-0.0820474,0.14614922,-0.86379814,27.885328,-70.34102,
9907,0.6974831,0.5418172,11.741638,0.11903277,0.059455093,0.17073905,-1.3258047,27.90907,-69.94007,
9957,0.25990903,-0.0075459033,11.0752945,0.15951279,0.10543896,-0.17609298,0.4191214,26.541319,-69.468124,
10007,-1.6804285,-0.1768264,11.701713,-0.27884316,0.29114988,-0.16517402,-0.17076492,27.186058,-70.13512,
10057,-1.5235248,0.20086074,9.749397,0.32196546,-0.35661906,0.0635913,-0.24652481,27.483046,-71.55911,
10107,-0.24633543,-0.09458163,9.204825,0.013394144,-0.26651555,0.0674085,-1.3237982,26.941645,-70.54789,
10157,-0.5090396,0.19008107,8.91098,0.030882213,-0.013337918,-0.0013897698,-0.81066704,26.65538,-70.48021,
10207,-0.50265163,0.7677906,7.72442,0.095064335,0.13899477,0.024975503,0.36797333,26.46645,-69.49432,
10257,-0.9438189,0.9147133,8.224676,-0.07768589,0.06744457,0.02763866,-0.6047872,25.9729,-70.312416,
10307,-0.39884755,0.9618244,8.787213,-0.07750835,-0.19390008,0.05693341,-0.016274452,26.02186,-69.266594,
10357,-0.55335593,1.2728374,9.065489,0.0904482,-0.025410904,0.10025412,0.77859944,26.20204,-69.50684,
10407,0.17367184,1.280423,9.972976,0.03674116,-0.20987903,0.109930255,-0.86091805,26.568544,-71.30586,
10457,0.02275668,1.1818092,10.045239,-9.869231E-4,-0.09021443,0.013257604,-0.6049951,25.25207,-69.22074,
10507,0.1321502,0.7222765,11.962821,-0.19868207,-0.0018863343,-0.03308136,-0.5522289,25.329502,-70.66479,1117.0
10557,1.1330609,0.5146684,11.5304365,-0.04022413,-0.0035730004,0.0775285,-0.50078267,24.749138,-70.08932,
10607,1.3314863,-0.30298826,11.950044,-0.08123677,0.017554723,-0.1377435,-1.1668644,25.238352,-71.220695,
10657,0.39166036,0.061922982,10.980674,0.19999278,0.11112037,-0.21417613,-1.7306188,24.815607,-70.99767,
10707,1.4967746,0.8548264,7.8146496,0.41118124,0.3712222,0.034829192,-1.0897675,24.296417,-70.20189,
10757,-0.27667812,0.37213743,9.040337,-0.57019275,0.1990046,-0.4980689,-0.4988791,23.855417,-70.697975,
10807,-1.0368434,0.58094335,9.473119,-0.41226742,0.32168743,-0.19074036,-1.7813787,24.060163,-70.525894,
10857,0.54976195,1.3207469,7.833015,0.05103345,-0.17330499,0.051252004,-0.85850906,25.306303,-71.910255,
10907,0.11458335,1.4976133,8.55565,-0.045284133,-0.0048158057,-0.028820306,-1.6272316,24.709625,-71.61293,
10957,0.6683381,1.7124077,9.236765,0.16910017,-0.013337915,0.059774112,-1.0119578,24.47869,-71.23383,
11007,-0.2806706,1.34031,10.028072,0.0961296,-0.16833375,-0.13854246,-1.0882015,24.27557,-71.5945,
11057,-0.16289291,0.3745329,12.1975765,0.11512681,-0.12075198,0.08374254,-1.0611273,23.726194,-72.20651,
11107,-0.097815745,0.50588495,11.300869,0.5030603,-0.20668325,0.11738711,-2.2420826,24.838432,-72.24877,
11157,0.010779284,0.35776457,11.14716,0.042156238,0.36216748,0.19914609,-2.699028,23.03395,-74.148,
11207,-0.7853181,-0.37325564,11.653005,-0.3350358,-0.08550951,-0.15478772,-1.8556471,23.806614,-72.61412,
11257,-0.9078867,0.34339172,10.615363,0.0014986992,-0.04955687,0.10859869,-1.5717659,23.062653,-73.34647,
11307,0.78292185,0.5346307,8.886228,0.025289584,-0.33398223,0.028171293,-2.470337,24.00565,-73.48292,
11357,-0.9234573,0.15414889,9.814075,-0.13893856,0.09283335,-0.13339366,-2.7521992,24.167944,-73.852936,
11407,-0.623224,0.666382,7.720427,0.19546542,-0.108679,-0.023493987,-3.8526049,23.520407,-74.98195,
11457,-0.7282258,0.73145926,8.589987,-0.031346936,0.050755437,0.103805,-3.571483,23.753906,-74.43598,
11507,0.06467756,1.2416961,7.704857,0.013039045,-0.06873161,0.13549659,-3.4700375,24.132092,-73.896164,
11557,-0.17526954,1.0121294,9.555364,0.012506425,0.037972286,0.037936207,-4.238466,24.423979,-74.97622,
11607,0.30542314,1.618984,9.649985,0.26923493,-0.36380962,-0.013373982,-3.7773304,24.41182,-74.603485,
11657,-0.07625643,1.450502,9.754987,-0.08922625,0.27463832,-0.13445894,-3.8797042,24.817884,-75.28138,
11707,-0.5725197,0.5470074,12.977304,-0.26366317,-0.0966948,-0.09752981,-5.625122,25.4203,-74.3516,
11757,0.9522023,0.3597608,11.282504,0.2214756,-0.13406779,0.010416902,-4.497191,26.04313,-74.89822,
11807,1.1893547,0.10384385,11.3387985,-0.28763157,0.16376215,-0.16943508,-5.625573,26.439423,-75.214615,
11857,-0.122569,0.17690594,10.656486,0.23727699,0.041345607,-0.13978526,-5.6272597,27.402601,-74.89048,
11907,1.6169477,1.0464647,7.4173994,0.0641717,0.28786534,-0.0655719,-5.701722,26.50038,-75.991035,
11957,-0.35173643,0.40607336,9.143341,-0.5764068,0.06407123,-0.45315024,-6.2435226,27.357252,-74.0283,
12007,-0.8923161,0.53503,8.954099,-0.22131893,0.19092637,-0.07276244,-5.705178,27.3424,-73.91155,
12057,-0.37329578,0.98258525,9.105813,-0.11053152,-0.036418628,0.073267445,-6.9118304,28.913322,-74.47564,
12107,0.67552453,1.5051988,8.127659,0.26683807,-0.0024189688,0.21352713,-6.707502,28.95104,-73.800354,
12157,0.34295228,1.5870442,9.529014,0.048370287,-0.0025077388,-0.025979603,-8.194893,29.487364,-74.25626,
12207,-0.46232775,0.7075044,10.686029,0.08148223,-0.13504428,-0.074094005,-7.9363737,28.039803,-74.362045,
12257,-0.39405656,0.25595674,12.165637,0.35907212,-0.24467765,0.15582536,-9.066359,28.650396,-73.49442,
12307,0.46951342,1.523165,10.906414,0.50385916,0.15524004,0.41193247,-10.013069,28.441246,-75.0374,
12357,0.7437957,0.7629997,10.380207,-0.09544029,0.2559962,-0.008580287,-9.320747,28.137384,-74.68134,
12407,-1.46244,-0.49382806,11.574753,-0.39069584,0.019951565,-0.44880044,-9.4752245,28.312431,-74.326096,
12457,-1.363427,-0.60960954,10.414542,-0.015190439,-0.06553582,-0.012308732,-9.477632,29.574675,-73.72172,
12507,0.09581876,-0.2482915,9.225985,0.02262642,-0.258171,0.10238465,-9.399716,29.345463,-74.336174,
12557,-0.9258528,0.31424668,8.891018,-0.03889255,0.19678532,0.0058007594,-9.374489,29.230734,-73.818344,
12607,-0.31021482,1.0380805,7.43297,0.16856754,0.007612268,0.16434747,-9.629001,28.454033,-74.563705,1191.0
12657,-0.42839178,0.945056,8.157203,-0.035963077,-0.11773373,0.079570256,-9.167351,28.627996,-74.88956,
12707,0.18804468,1.1806114,9.023567,0.07464679,-0.11560321,0.117120795,-10.09125,29.61472,-75.362465,
12757,0.3062216,1.4568901,9.128968,0.12489171,-0.17259482,-0.041869786,-10.040238,28.581842,-73.827385,
12807,0.22277912,1.3770407,10.766278,-0.09686064,0.038859993,-0.06077821,-10.244514,28.88113,-74.97087,
12857,0.23435728,1.3195492,10.236478,0.1648391,-0.059410565,-0.15239087,-9.526383,29.057825,-75.36776,
12907,0.319796,0.6488152,12.134096,-0.25522983,-0.19674076,-0.22997756,-11.243826,28.785301,-75.45891,
12957,0.2535211,-0.17443089,11.83506,-0.25194526,0.062029477,-0.22056773,-11.011883,28.001078,-75.54723,
13007,-0.51502824,-0.21954575,11.835859,-0.05780098,0.11023266,-0.041781012,-11.165361,28.404049,-76.381134,
13057,0.81086904,0.67436695,8.624321,0.3627118,-0.025322134,0.20713556,-9.832628,28.84117,-76.404625,
13107,0.5305981,0.4691543,9.8332405,-0.26463965,0.19101514,-0.063263826,-9.086789,27.253977,-76.47087,
13157,-0.49147272,0.6903369,9.10661,-0.017054643,0.056969482,-0.15505403,-9.524025,28.206293,-76.44119,
13207,-0.43837294,1.0189166,8.655861,0.035054494,0.01364876,0.0496541,-9.164631,27.554577,-76.012,
13257,0.5409785,1.5295528,8.357624,0.13021804,0.010097877,0.24015874,-10.340907,26.409492,-77.472466,
13307,0.42759255,1.8381703,8.8498955,0.11885523,-0.005170897,0.12404501,-8.390215,25.10852,-77.66682,
13357,0.41481665,1.3722497,9.976968,0.14326751,-0.021061078,0.09901132,-7.3652115,26.000046,-78.21912,
13407,0.25631583,0.5805441,10.834549,0.26852474,-0.24556537,0.0528499,-8.081819,24.958832,-78.121704,
13457,-0.019563442,1.371451,10.480019,0.35019493,0.021815792,0.13176817,-7.5680313,24.567347,-78.5171,
13507,0.8959086,1.9974697,10.646505,0.19111562,0.23451339,0.25720295,-6.771048,23.851105,-79.54653,
13557,-0.7158492,0.3637533,11.2314005,-0.44342637,0.13846214,-0.2807551,-6.027803,23.890429,-79.296364,
13607,-2.0421457,-0.0865967,12.01552,-0.34719756,0.16331828,-0.021541005,-5.0015774,23.366653,-79.18738,
13657,0.14572458,0.10344461,9.6751375,0.07855276,-0.49084228,0.21619031,-5.514021,23.836721,-80.10837,
13707,-0.7617625,0.04994557,9.68951,-0.26854563,0.05963264,0.056933403,-5.2323895,24.594122,-80.67761,
13757,-0.120173536,0.8779826,8.132449,0.0015874654,-0.073791616,0.20633662,-5.1564465,24.391161,-79.53842,
13807,-0.43238425,1.1877978,8.357624,-0.05211957,-0.031980027,0.18565273,-5.617659,24.959126,-80.53665,
13857,0.60006696,1.4429164,8.241444,0.14273489,-0.3198675,0.22844084,-4.1815677,24.68764,-80.394615,
13907,0.878741,1.6213795,8.309715,-0.14533013,-0.44654503,-0.316619,-3.5398378,24.108505,-80.32035,
13957,0.3401576,1.1434815,10.430911,-0.015456751,0.024745256,-0.23734564,-5.0529404,24.573051,-80.6213,
14007,0.48827803,1.0448676,10.194957,0.4592069,0.40353522,-0.09362384,-3.846961,23.951794,-80.6357,
14057,-0.33536738,0.90872467,10.715973,-0.2106663,-0.019729495,-0.37156883,-3.4609108,22.973358,-80.71795,
14107,-0.30781934,0.19367428,12.27982,-0.32713512,0.13242565,-0.17280841,-2.5388327,23.96469,-81.06761,
14157,0.4383722,-0.2638621,13.185711,-0.25727156,-0.17339376,-0.108182445,-1.1022993,23.494345,-81.07802,
14207,0.16967936,0.61208457,10.162219,0.1959093,0.15479618,0.097590975,-0.61586285,24.355444,-81.488594,
14257,1.6636593,1.0776058,7.768337,0.07961802,0.13739687,0.2276419,-1.5133165,23.981024,-80.9907,
14307,-0.22637308,0.70870215,8.104503,-0.5638011,0.13029511,-0.37041476,-1.6165991,23.98912,-80.34851,
14357,-0.6946891,0.42004701,8.839116,-0.28124002,0.003439989,0.018850235,-0.7435894,23.551245,-80.914986,
14407,0.28625932,1.0145249,8.928547,0.029195547,0.041168068,0.008286374,-0.078100204,24.661907,-81.24663,
14457,0.09581876,1.53634,8.593579,0.18854122,0.0657579,0.14321975,0.9488233,23.959976,-81.54827,
14507,0.4579353,1.3466982,9.299048,0.060620826,0.043298602,0.027993744,1.4620733,23.358574,-81.19322,
14557,-0.56533325,0.1697195,12.213147,0.027420111,0.01941894,0.04947656,1.9759794,22.651947,-81.30123,
14607,-0.56253856,0.26713565,11.476539,0.3363465,-0.1697541,0.17837346,1.5393944,23.064922,-81.1879,
14657,0.45633835,0.9817867,11.373531,0.19546545,0.050045263,0.46439672,1.1057249,22.136545,-82.03913,
14707,-0.49786058,-0.39321792,12.58245,-0.3302421,0.04392,-0.14759718,3.310954,21.177769,-80.96722,
14757,-1.6852195,-0.55970365,11.699318,0.0625738,-0.11258497,0.05941904,3.0532894,22.083288,-80.95831,
14807,0.67432684,0.3166422,8.225873,0.29160547,0.111564234,0.46972305,4.5420456,20.901627,-80.93339,
14857,-0.058689594,0.13618281,8.869059,-0.23143892,0.01595683,0.010239355,3.3116658,20.468765,-80.726845,
14907,-0.65436524,0.28629947,7.8034706,-0.078573614,-0.0466274,0.014855498,2.7727566,20.877094,-80.82235,
14957,-0.26589847,0.5422164,8.44985,-0.071649395,0.03406631,0.12795098,4.337643,20.189512,-80.69808,
15007,-0.12177053,1.0105325,8.135644,0.1698991,-0.3046875,0.05480288,4.08072,19.010733,-78.75626,1272.0
15057,-0.35213572,1.4608824,8.205512,0.07500187,0.096739314,0.12013904,4.851519,19.02497,-80.20753,
15107,0.46592018,1.118329,10.336289,-0.17284942,-0.11586952,0.009529177,5.4654818,19.607483,-79.65732,
15157,-0.6336044,0.79014844,10.400969,0.12915277,-0.08435548,-0.15239088,4.7512474,17.64219,-80.55512,
15207,0.1896417,0.5122729,11.9907675,-0.0042714863,-0.2178685,-0.060778208,5.237076,18.197803,-80.03359,
15257,1.3690156,0.35417134,12.041871,-0.02744097,-0.13300252,-0.06290873,4.9546466,18.150564,-79.627365,
15307,0.43637598,0.048348576,11.914909,-0.06365992,0.13846214,-0.16011404,6.696926,18.385923,-78.76134,
15357,-0.052700885,0.4655611,9.821262,0.16998787,0.20060249,-0.09717471,5.8273864,16.847921,-78.86834,
15407,0.45953226,0.5418171,8.51413,-0.020250438,0.094253704,-0.040538207,6.7766685,16.757484,-79.28217,
15457,-0.14852004,0.39249903,9.167295,-0.36832532,-0.077076174,-0.17547159,6.032287,16.757395,-78.55266,
15507,0.2782744,0.565772,8.594777,-0.09215572,0.23460218,0.12457763,7.004836,17.591423,-77.97066,
15557,0.292248,1.1051538,7.7084503,0.01587975,0.007612266,0.029236555,7.005776,17.361816,-78.535446,1192.0
15607,0.44835338,1.3011838,8.632306,-0.041023076,0.14112529,0.034562875,5.6962585,17.656864,-77.23015,
15657,0.4719089,1.559097,9.0068,0.059200466,0.09212317,-0.05349891,7.5171905,17.291399,-77.18062,
15707,-0.43717518,0.6967247,10.675649,-0.11772205,-0.019995816,-0.122563496,8.928507,17.032127,-77.83894,
15757,0.20720854,0.106239334,12.444311,0.10482925,-0.15821375,0.17127168,8.44067,17.299232,-77.57045,1116.0
15807,0.23994672,1.1390898,10.947936,0.31983495,-0.154219,0.11365869,8.77792,15.901061,-79.37724,
15857,-0.5473672,0.4080696,11.32682,-0.23729788,0.25936952,-0.014084159,8.64698,17.093445,-78.388336,
15907,-1.626131,-0.7373683,12.302978,-0.4934938,0.2553748,-0.181153,8.699912,15.697312,-78.13871,
15957,-0.77014667,-0.30218977,10.101532,0.12684469,-0.028074056,0.178551,9.6218605,16.473318,-78.09897,
16007,0.61124593,-0.21275856,8.829534,0.030083265,-0.25195694,0.116055526,9.6968355,17.416958,-77.51476,1046.0
16057,-0.5222147,-0.13091303,8.92176,-0.05016658,0.20131268,-0.08794243,9.263492,16.749565,-78.98808,
16107,-0.35333347,0.2727251,7.7647443,0.17416015,-0.08391162,0.06439026,11.006697,16.972569,-78.947296,
16157,-0.06427903,0.7685892,7.8761334,0.11122084,0.018087355,0.04024428,10.696034,17.490145,-76.8975,
16207,0.154508,1.1770182,8.127659,0.20638439,0.020484202,0.083565,11.698948,15.680713,-77.29009,
16257,0.44595787,1.5223664,8.811168,0.06718994,-0.09909162,-0.13783227,10.95388,16.847544,-77.39953,953.0
16307,-0.3066216,0.95304096,10.784245,-0.09748204,-0.014403182,-0.13694456,10.621115,16.256323,-77.16881,
16357,-0.34854248,0.954638,11.389503,0.12737733,-0.07210496,-0.11262105,11.312093,17.104078,-77.03247,866.0
16407,0.20361532,1.1243176,11.981983,0.14832753,-0.29083905,-0.13667825,12.161091,15.534517,-77.66381,
16457,0.21359645,-0.005948901,12.227921,-0.16716802,-2.211829E-5,-0.35035232,11.518308,17.381933,-78.37184,776.0
16507,-0.7905083,-0.45190716,12.382029,0.22822227,0.26789165,-0.18062034,11.616888,19.004356,-76.78895,721.0
16557,0.68311024,0.7190826,8.269791,0.3414953,0.23398076,0.044150244,12.643765,18.399538,-77.16911,
16607,0.5761123,0.43322217,8.171975,-0.52358747,0.19838321,-0.33588248,12.849459,18.708527,-78.070366,638.0
16657,-1.2188997,0.2591507,9.513842,-0.41288885,0.21374077,-0.16712701,14.43706,19.411047,-77.03304,569.0
16707,0.088632345,0.91351557,8.122868,0.17416017,-0.22825482,0.16985133,13.9237,20.134521,-77.44109,496.0
16757,-0.08743533,1.4584869,8.034236,0.06967556,-0.019551955,0.05000919,13.103297,20.60378,-78.11179,446.0
16807,0.5150275,1.821402,8.828337,0.01596852,-0.11453795,0.119251326,13.616034,20.56397,-77.9954,398.0
16857,0.29184875,1.2412969,10.196554,-0.0045378036,-0.09394285,-0.14386876,13.87204,20.765953,-77.8882,349.0
16907,-0.7845196,0.46316564,11.174707,0.12728857,-0.14250112,-0.022695042,13.923822,20.85651,-78.45542,303.0
16957,-0.001198108,1.0392781,11.092462,0.3452237,-0.09980181,0.25081137,14.744021,20.727728,-78.02082,262.0
17007,0.34375083,1.6381478,9.327793,0.22422753,0.09558528,0.1844987,14.231644,21.003956,-78.759,233.0
17057,-0.4970622,-0.48744008,12.339707,-0.75208646,0.09558529,-0.15318982,14.744098,21.546835,-79.11367,200.0
17107,-1.5343044,-0.9513644,12.906639,-0.23587753,-0.18395762,-0.058470134,15.382942,23.080559,-79.06395,155.0
17157,0.6439841,-0.276638,9.423613,0.29267073,-0.18937269,0.16186187,14.69165,22.815878,-79.64554,129.0
17207,-0.2814691,-0.07102609,8.6977825,-0.1637947,-0.016001076,-0.2734758,14.1547985,22.449081,-80.634834,113.0
17257,-1.0152841,0.27911302,8.687403,-0.13769573,0.23273797,-0.15904878,14.638547,24.527924,-80.13098,98.0
17307,-0.91507316,1.1566567,7.174258,0.26657176,0.1759239,0.117120795,14.922291,24.509428,-81.64557,86.0
17357,0.1896417,1.5287544,7.6022506,0.043132745,0.019152619,0.20500503,15.052127,23.331713,-81.654495,
17407,-0.31500578,1.2596623,9.896719,-0.16912101,-0.030559676,-0.08776489,15.461178,24.366714,-81.86265,76.0
17457,0.2758789,1.2381029,9.826053,0.16563806,0.02181578,0.01725234,15.615474,23.784044,-81.54254,69.0
17507,-0.21559343,0.4979001,11.14716,-0.039158862,-0.089149155,-0.19908492,14.922211,24.003918,-80.94327,
17557,-0.29025254,0.23359895,12.78447,0.10332013,-0.08870531,-0.074360326,15.00018,24.111715,-82.02593,63.0
17607,2.369128,0.86440825,10.595001,0.43541607,-0.24521028,0.069361486,14.462219,24.700375,-83.20686,
17657,-0.092226304,-0.1760279,10.845729,-0.22957473,0.39945167,-0.49966675,14.127965,25.407408,-83.24916,
17707,-1.2133102,0.05114332,10.442888,0.03239132,0.11804459,-0.30241546,14.462151,25.063107,-83.59798,58.0
17757,0.79569775,0.7685892,7.570311,0.15258856,-0.0090768635,0.022312343,14.181343,24.994247,-84.635925,
17807,-0.42759326,0.27871376,9.81168,-0.64671415,0.17805444,-0.41018462,13.846155,25.279514,-83.30627,
17857,-1.0592011,0.5889283,9.045925,-0.11665678,0.19758426,-0.1896751,14.12647,26.874548,-83.73048,
17907,-0.087435335,1.196182,7.974348,0.06168608,-0.20419763,-0.016569773,12.768265,27.086098,-84.66951,
17957,0.34694478,1.4185623,9.192848,-0.031169392,0.08892739,0.10273974,13.357371,27.344202,-84.42569,
18007,0.9174679,1.5686791,9.804494,0.1518784,-0.30699557,-0.13215087,12.151112,27.462652,-83.52848,61.0
18057,-0.25990978,1.2093571,10.272411,0.14859383,0.21516111,-0.20032772,11.563426,27.933348,-85.9732,
18107,0.1604967,0.7098999,11.500492,0.20744963,-0.09394285,-0.035211887,11.693129,27.625805,-86.94658,
18157,0.027547618,1.0672255,10.533519,0.36138022,-0.05967688,-0.0051181912,11.104507,26.782309,-86.899864,67.0
18207,0.5761122,0.4931091,11.09446,-0.19095892,0.176279,-0.10285611,9.695283,25.614697,-86.35393,
18257,-0.9673745,-0.79805374,12.3892145,-0.43383902,0.059366316,-0.4786278,10.8471575,27.563057,-87.01849,71.0
18307,-1.4049485,-0.36207673,10.215319,0.15170084,0.20433092,-0.05314381,10.461094,27.84214,-86.05115,
18357,0.30622163,0.09625817,8.434279,0.23674439,-0.07139477,0.12590921,11.461314,27.105738,-85.347084,76.0
18407,-0.28266683,0.016408883,8.811567,-0.22877578,-0.11862147,-0.25021756,8.693696,26.996433,-86.62699,
18457,-0.76894903,0.059527494,9.379296,-0.21306312,0.09052528,-0.109780334,9.309446,26.22847,-86.009514,
18507,0.35492972,0.87558717,8.019862,0.029550627,-0.067311265,0.01716357,10.232799,25.852089,-85.801636,
18557,0.47190893,1.1889956,8.246235,0.092401184,-0.05514951,-0.039472938,8.436755,27.289291,-86.50779,
18607,1.0208727,1.0480616,8.601963,0.004339392,-0.26047906,-0.29389337,7.923976,26.630138,-85.71331,
18657,0.99651873,0.28709796,10.483612,-0.24102628,0.035131574,-0.5739689,7.05349,26.72083,-86.999916,
18707,0.70866203,-0.14408818,11.469352,0.07837521,0.02625438,-0.57032925,6.7713766,26.379932,-86.5129,
18757,1.2672077,0.035572715,11.797532,0.20052543,-0.041301087,-0.6061931,4.8496842,25.658594,-86.83608,
18807,3.4985962,0.2168306,11.579543,0.38889948,-0.30326712,-0.7409489,5.5441866,23.92669,-86.669785,70.0
18857,2.8278618,-1.3094884,10.759092,-0.10786836,-0.030115806,-1.6988872,2.5961297,23.851585,-87.12915,
18907,0.3996453,-1.5230852,11.847038,-0.027440974,0.19864953,-1.5805541,1.3140745,24.146883,-87.47399,63.0
18957,1.9127891,-0.53095794,8.757669,0.1648391,-0.14010426,-1.467725,0.95465213,23.110483,-85.76852,
19007,1.3442622,-0.32933852,8.748886,-0.1472831,0.17574637,-1.5999066,-1.7612057,21.982449,-86.20992,
19057,0.42998803,-0.2674553,8.733715,-0.23410209,-0.21706957,-1.8189957,-1.2497507,22.152695,-85.19321,
19107,-0.032339323,-0.42515767,9.477112,-0.064192556,-0.18182708,-1.6938273,-3.146285,21.679358,-85.389656,
19157,0.60964894,0.2487703,8.502551,0.23567912,-0.25195694,-1.4442892,-4.121483,21.24242,-84.067566,
19207,0.39645135,0.5713614,8.872653,0.11264119,-0.27024397,-1.5933374,-4.7597904,19.170895,-83.93049,58.0
19257,-0.13414717,0.5865328,9.204427,0.07828643,-0.08550952,-1.4701219,-5.1931715,17.780355,-84.466835,
19307,0.35892215,0.19447279,10.107121,0.042866424,-0.35102645,-1.4394956,-6.7588863,18.261883,-83.58276,
19357,-0.90070033,0.21164039,11.360357,0.004339392,-0.28338224,-1.4775788,-8.0129385,16.90996,-84.01101,
19407,-0.07226398,0.78935,11.022197,0.34886336,0.06389369,-0.9761059,-8.215944,14.780223,-83.269165,
19457,0.14013514,0.107437074,10.018888,0.037540097,0.014891565,-1.2696748,-8.831029,14.164402,-82.76145,
19507,-2.2457614,-0.46108985,11.649811,-0.35074845,0.15337583,-1.3422902,-8.060139,13.091987,-82.93621,61.0
19557,0.21798822,0.31225047,8.4666195,0.3306651,-0.36274433,-0.7782331,-8.060088,13.42899,-83.4044,
19607,-0.0011981329,0.0028344989,9.347755,-0.43517056,-0.14250112,-0.98249745,-8.519945,12.338673,-83.55799,
19657,-1.0049036,0.19846526,10.010505,-0.42673722,0.102420725,-0.868603,-8.77802,12.357173,-82.068565,67.0
19707,-0.76535577,0.81649876,9.264712,-0.29455578,0.06549159,-0.6208405,-9.291794,12.21781,-81.02216,
19757,-0.57132196,1.301583,10.121895,-0.13663048,-0.22976394,-0.35248283,-9.906664,13.2152405,-82.725624,74.0
19807,0.3189975,1.9303962,8.025452,0.2604465,0.023413673,-0.19420248,-9.062088,13.175995,-81.2597,
19857,-1.3666208,1.4441142,9.237963,-0.044130098,-0.07263758,-0.41480076,-9.138595,13.2899475,-81.7788,
19907,-0.72862506,1.1614476,11.490112,-0.17151785,-0.059144244,-0.17556034,-8.137639,12.953835,-82.2401,
19957,-0.2790736,1.3794361,10.554279,0.22715701,-0.09287759,-0.062553644,-8.881028,12.602841,-81.970795,81.0
20007,0.36850408,0.34538794,12.317351,0.09639592,-0.31960118,-0.058381367,-8.830872,13.028615,-81.48438,
20057,1.7750492,0.20445395,9.454754,0.22982018,-0.36522993,-0.13871999,-9.187676,11.7644,-81.86553,
20107,0.17526884,-1.3050966,13.13341,-0.61466753,0.26309797,-0.46744254,-9.523061,11.714589,-79.938736,
20157,-0.037130296,-0.19080003,9.319408,0.4339957,-0.053817924,-0.29549125,-9.60052,13.047299,-81.11684,
20207,0.7901082,0.38611105,8.266597,0.050056957,0.46203595,-0.1428035,-8.911451,13.582754,-78.86181,
20257,-0.59887,0.55179834,8.567229,-0.17533505,0.17006494,-0.3865713,-8.781126,12.880963,-79.908,88.0
20307,-0.86596584,0.6392333,8.856683,-0.0966831,-0.039170556,-0.20512143,-8.21647,12.978145,-80.53993,
20357,-0.29464424,0.9590297,8.431885,0.20673947,0.02057297,0.1171208,-8.9330435,12.51537,-81.19724,94.0
20407,0.6264173,1.6078049,8.346446,0.4316876,-0.3403738,0.1725145,-9.063177,12.9734125,-80.019264,
20457,0.462327,1.9172211,9.396065,0.31237808,0.0651365,0.034207787,-9.446265,11.452069,-79.49529,
20507,-0.25751427,1.7451458,10.324313,0.34247178,-0.02558845,-0.00911293,-8.906105,11.91956,-81.628174,
20557,-0.12696074,0.7542163,11.928085,0.2687023,-0.41298926,-0.07675716,-9.754448,12.612002,-80.49657,
20607,-0.23835047,0.88996005,12.168033,0.35924965,0.26469585,0.21485873,-9.677149,12.583969,-80.80385,
20657,0.6359992,1.0105324,10.688425,0.32640406,0.09372107,0.14872362,-9.086061,11.247845,-80.36097,
20707,-0.6348022,0.49191138,10.717171,-0.27138633,0.038859997,-0.2282909,-10.752001,11.166082,-80.89155,
20757,-1.180572,0.49710158,10.5510845,0.05493942,0.23912953,0.20092154,-10.006773,10.672493,-81.77009,104.0
20807,0.56772804,0.6847474,7.4114103,0.071894854,-0.50096226,-0.022162423,-10.904642,10.35184,-80.963295,
20857,-0.15610571,0.4124613,9.140946,-0.38039827,0.1626081,-0.04923785,-11.34299,12.283795,-81.15134,
20907,0.1485193,0.99855506,8.115681,0.1531212,-0.025588447,0.004202863,-10.140236,12.67036,-79.50088,
20957,-0.5705235,1.5598955,7.40103,-0.06259465,0.18320322,0.03456287,-11.085404,11.499961,-81.23903,
21007,0.25871134,2.0202265,8.818754,0.20638438,-0.21334115,0.13123553,-11.598611,12.028432,-81.54164,111.0
21057,-0.12815847,2.3216574,8.558845,0.10926784,-0.055238277,-0.036809783,-12.265122,11.582649,-81.11456,
21107,-0.0802489,1.6453344,10.808199,-0.015989386,0.0010431409,-0.05704979,-11.290279,11.300689,-81.21602,
21157,-0.32299072,1.3898166,11.721676,0.039138,-0.25692818,-0.08563436,-13.956097,11.20298,-81.822876,
21207,0.2886548,1.3674588,11.930481,0.15285489,-0.1270548,0.060395513,-13.82842,10.898277,-80.96496,
21257,1.0951326,0.505885,11.597909,-0.28772035,0.044718947,-0.22394107,-14.5182905,9.866964,-81.87297,
21307,-1.1546209,-0.3500993,12.325735,-0.07804098,0.13659793,-0.24240564,-14.058575,10.018428,-80.41882,
21357,0.8571817,0.81011075,8.494166,0.14406645,0.1629632,0.20127662,-14.723488,9.382526,-81.20182,
21407,0.8671628,0.82847613,9.782934,-0.27777788,0.16349582,-0.0956656,-15.132753,9.170489,-81.828606,
21457,-0.1465238,1.233312,7.5798926,-0.079283796,0.10668177,-0.20086038,-14.621078,10.15791,-82.03366,
21507,-0.5689265,1.2740351,8.516924,-0.20241052,0.1882632,-0.10472034,-15.057401,10.567411,-82.15244,
21557,-0.24473841,1.6197826,8.298535,0.21091174,-0.15688217,-0.06716979,-14.414811,9.277341,-81.96675,121.0
21607,0.209604,2.4442263,7.703659,0.11885521,-0.16655831,-0.0041416995,-15.054164,8.136319,-82.04682,
21657,-0.008384536,1.3858242,11.49171,-0.3851032,-0.072726354,-0.09619823,-16.054167,8.025574,-81.889854,
21707,-0.016768694,0.8440467,11.177103,0.36280057,-0.42506227,-0.0021887273,-16.747524,9.211573,-82.41093,
21757,0.33736286,1.3786377,11.10444,0.23434754,0.07987264,0.1389587,-18.821928,7.2910094,-82.25972,
21807,0.2179882,1.127911,10.654888,-0.06632308,0.1290523,-0.029530482,-17.668156,7.1396294,-82.02292,
21857,-0.84999603,0.05553503,11.741638,-0.43810004,0.08812843,-0.23734564,-18.976213,7.8253136,-82.52769,
21907,-1.1905532,0.21762908,9.830844,-0.16326205,0.13065019,-0.008402757,-17.975767,7.2788954,-82.26433,
21957,-0.1002112,0.08987022,9.722249,-0.20880207,-0.06953057,0.13975763,-18.514343,7.441544,-82.35699,
22007,-0.57850844,0.6560017,8.501354,-0.11266204,0.08892738,0.08214465,-18.822237,7.849901,-82.6789,
22057,-0.6751261,0.98817474,8.3408575,-0.084432565,0.011695773,0.17491132,-20.051971,8.13208,-83.950874,
22107,0.42759258,1.3926113,8.091726,0.14655209,-0.096606016,0.27584505,-20.516182,8.35405,-81.798294,
22157,-0.06667451,1.2963929,9.094633,0.084411696,-0.112407416,0.0018060207,-19.746992,8.317358,-81.72715,
22207,0.23475653,1.43573,9.140945,0.2639086,-0.0049933544,0.11623307,-20.66899,8.410364,-82.80871,111.0
22257,0.021958202,1.3323251,9.754987,0.07961802,-0.128919,-0.072229795,-20.92302,7.530758,-83.862404,
22307,0.32698244,1.0356851,10.424923,0.08814013,0.030692974,0.053382527,-21.128674,7.9449186,-83.89811,
22357,0.7948993,0.89315397,12.196777,-0.030104127,-0.27246326,-0.14120561,-21.281103,7.224315,-84.280464,
22407,1.321106,0.7063067,10.709986,-0.07147186,0.09017018,-0.17245334,-22.205229,7.273344,-83.375435,101.0
22457,-1.0775665,-0.06982834,11.601102,-0.34036213,0.038061045,-0.43521833,-21.896645,7.6518,-84.66184,
22507,0.7390048,0.80332357,9.537397,0.04979064,0.04933509,0.19381978,-21.97355,6.9750795,-83.83051,
22557,0.71664697,1.0760088,8.5173235,-0.12943995,-0.016001072,-0.080219276,-22.666967,8.475446,-84.690544,95.0
22607,-0.103005946,0.91471326,9.02237,-0.27387193,0.15621653,-0.06787997,-22.282276,8.865878,-85.25297,
22657,-0.3126103,0.98018974,8.588389,0.012772728,0.13020635,0.015121814,-22.563986,8.374868,-84.944756,
22707,0.32937792,1.4812441,8.659454,0.12862015,-0.124480404,0.14410746,-22.126823,8.123061,-85.78217,87.0
22757,1.1661984,1.9335903,8.749684,0.24366859,-0.010941073,0.11925132,-22.562944,8.071557,-85.50869,
22807,-0.07066697,1.2824192,10.628538,0.029728176,-0.028251598,-0.12575929,-22.897102,8.415472,-85.18565,
22857,-0.078651905,0.8093123,11.229004,0.2742949,-0.29749697,-0.018966626,-23.896729,8.444415,-85.54618,81.0
22907,0.51742303,1.4477074,10.97708,0.3430932,0.09815967,0.25649276,-24.664635,7.3544455,-85.3721,
22957,1.1749818,1.9986675,9.953013,0.13341382,-0.14303374,0.059862874,-23.690386,7.466345,-85.42655,
23007,-0.15450872,0.6983218,11.589126,-0.3772025,0.2373541,-0.26655158,-23.433754,7.732379,-85.96492,76.0
23057,-1.3282932,0.07150488,10.901623,0.03327905,-0.07219373,-0.25492248,-24.714806,7.773117,-86.90005,
23107,-0.8428095,0.29029194,9.552171,-0.11532519,-0.050267052,0.06953902,-25.124691,7.472845,-86.85518,69.0
23157,-0.5054463,0.30626178,9.311026,-0.14675048,0.099047385,0.098478675,-23.945328,8.359757,-87.86788,
23207,-0.5848964,0.7398434,8.463824,0.05849029,-0.047426343,0.1725145,-24.664646,8.801898,-87.168655,63.0
23257,0.059886575,1.371052,7.969557,0.102787495,0.09904738,0.35094616,-23.998568,9.542884,-87.57337,
23307,0.65276754,1.6668936,8.178762,0.04251134,-0.15075691,0.067763574,-24.895119,9.590616,-88.421646,58.0
23357,-0.101808205,1.4249504,9.233171,0.046594847,0.01196209,-0.016303457,-24.559938,8.437109,-88.657875,
23407,0.65676,1.2013723,10.215718,0.008245359,-0.0444081,-0.041603476,-24.58469,8.32841,-89.32788,53.0
23457,-0.26829398,1.1997753,9.961397,0.28894228,-0.061274774,-0.06237611,-24.918642,8.042432,-88.4043,
23507,0.7437957,1.3674588,10.952727,-0.04359746,-0.016533708,0.05373761,-25.275467,7.3574276,-89.48859,
23557,1.1965411,0.7470298,11.583136,-0.083367296,-0.29909486,-0.15558667,-24.917868,8.225079,-89.33497,47.0
23607,0.13294871,0.4404086,11.340794,-0.18598767,0.08306844,-0.16002527,-26.045647,7.5761356,-88.89122,
23657,0.51862067,1.0368828,10.159025,0.14486542,-0.120929524,0.1056692,-25.995043,7.7788625,-88.53119,44.0
23707,1.5518703,1.0296963,9.204026,-0.243867,0.1626081,-0.1715656,-26.199236,7.642871,-89.205345,
23757,-0.28865552,1.0296963,9.333782,-0.29136,0.3882664,-0.3055225,-25.68635,8.204141,-89.9729,
23807,-0.4236008,1.3474965,7.6054444,0.012683961,0.2373541,-0.100370504,-23.581171,7.2827663,-91.22537,
23857,-0.29823744,1.5794587,8.012676,-0.10387362,0.029006308,-0.026689777,-24.452599,6.397053,-90.43717,
23907,0.38207844,1.9359857,8.298537,0.07881907,-0.08124846,0.08835868,-24.196781,6.842783,-90.46176,
23957,0.19163795,1.5638881,9.841623,-0.07413501,-0.06518074,-0.03183855,-23.579865,5.7215996,-90.45923,
24007,-0.3325726,0.5777493,11.716086,-0.050876763,-0.35182542,-0.08687717,-25.040665,6.583352,-92.18217,
24057,0.11737807,0.9949618,10.748312,0.3031458,0.020928062,0.2516991,-25.477188,5.451757,-90.19376,
24107,1.5247217,1.7283777,10.785043,0.15844753,-0.07246004,0.23802821,-25.118698,5.149787,-89.381744,47.0
24157,-0.0958195,0.3529736,11.7616,-0.29428947,-0.33735558,-0.3578092,-25.885191,4.0650826,-90.4974,
24207,-0.89471155,-0.10017107,11.67616,-0.35607475,0.2583043,-0.025890835,-26.424263,4.885666,-90.9588,51.0
24257,0.38806716,0.2703296,9.641602,-0.033122372,-0.030204585,0.109841496,-25.988953,4.0313754,-89.36465,
24307,-0.5497627,0.0930642,8.727326,-0.22531365,0.051376846,-0.1310856,-25.273758,6.104452,-89.474045,55.0
24357,-0.43358198,0.1936743,9.535003,-0.36335406,0.40477803,0.13913624,-25.271204,5.153875,-90.5979,59.0
24407,-0.20481378,0.7150901,8.248232,0.11237487,0.018619986,0.09075552,-23.811344,6.0413456,-90.21076,
24457,0.095818765,0.8021258,8.798393,0.14388892,-0.028074056,0.14055659,-24.143143,4.3035283,-89.42505,64.0
24507,0.1648884,1.2796246,8.24903,0.30465493,-0.29962748,0.002871284,-25.732044,3.738904,-89.45804,
24557,0.50664335,1.2369052,9.651184,0.09435416,-0.09749374,0.027106024,-25.628489,2.7623646,-89.13462,
24607,0.20641004,0.61288303,10.289179,-0.03756097,-0.19709587,-0.18381616,-25.653664,1.983901,-88.584564,
24657,0.25152487,0.10983255,12.529351,-0.17995118,-0.17738849,-0.11954525,-26.141502,2.419894,-88.524376,69.0
24707,1.1797727,0.17770441,10.725156,-0.049278866,-0.111608475,-0.1326835,-26.578375,2.2095366,-87.37206,
24757,-0.35093796,-0.6579183,13.104265,-0.34702003,0.38453802,-0.23193054,-26.29454,1.2490972,-87.79238,74.0
24807,0.72463185,0.4268342,8.839914,0.3962676,-0.06074214,0.034562875,-24.884708,1.3472881,-87.552086,
24857,1.0252645,0.11222803,9.750596,-0.37187615,0.23220532,-0.10179085,-25.21846,1.3722038,-87.19956,
24907,-0.70706576,0.19846524,9.519432,-0.30574107,-0.11400531,-0.29353827,-24.73198,2.1603756,-87.55772,84.0
24957,-0.8599771,0.24996805,9.179274,-0.09100169,0.08803967,0.059419017,-24.294556,1.277902,-87.84614,
25007,0.3653101,1.1271124,8.594777,0.19040541,-0.16300744,0.28862822,-26.114105,0.008880615,-87.10288,
25057,0.98813456,1.816611,8.12167,0.23017526,-0.001975108,0.2678556,-24.293915,0.3528048,-87.267944,88.0
25107,0.17526884,1.0153235,10.120697,-0.027973598,-0.038637925,0.0010070745,-23.422363,0.2720089,-86.9616,
25157,-0.5509604,-0.03748937,11.790346,0.1850791,-0.25905868,0.06510044,-24.295708,0.038962048,-85.25242,
25207,0.63679767,0.6520092,9.7126665,0.40026233,-0.02558845,0.45294514,-24.423584,-0.73913,-84.57594,
25257,0.052700162,0.47035205,10.545895,-0.18634276,0.08626422,0.2032296,-24.757233,-1.4151115,-83.441475,96.0
25307,0.4204061,-0.26625758,12.009532,-0.52491903,-0.06926425,-0.01683609,-24.807114,-1.7721977,-84.26399,
25357,-0.47630134,-0.47865668,11.816696,-0.2381856,0.21161021,0.059596565,-25.630533,-0.4908867,-83.21595,104.0
25407,0.073061734,0.05114332,9.805691,0.16084437,-0.13451165,0.17065027,-25.271683,0.6495743,-84.535736,
25457,0.41721216,0.24238236,8.625918,-0.040224127,-0.09891409,-0.02686732,-25.067636,0.4980825,-83.36817,
25507,-0.7425987,-0.020721033,9.003206,-0.1725831,0.10677055,-0.12016666,-24.19295,-1.0234985,-84.102615,
25557,-0.29903597,0.43402064,8.777631,0.16182086,-0.00392808,0.14144431,-23.475777,-1.4370689,-82.89347,
25607,0.3317734,1.1818092,8.100111,0.2961328,-0.115070574,0.034296557,-23.118193,-0.47269058,-82.84415,
25657,0.12815772,1.3259372,8.751282,0.0904482,0.12106284,-0.0085803,-23.782495,-1.8885981,-83.20539,
25707,-0.13414717,0.61527854,10.714775,0.09746119,-0.24316853,-0.21737194,-23.655708,-0.710083,-83.39644,
25757,-0.2990359,0.565772,10.869682,0.33634654,-0.1377962,0.03296497,-22.243713,-2.8839924,-82.278595,
25807,0.65516305,0.94226134,11.329216,0.10065697,-0.013870551,0.079570256,-22.041386,-2.0477371,-80.78719,
25857,1.0639913,0.4483935,11.154746,0.010730982,-0.14312252,-0.0845691,-23.320717,-3.6219394,-81.26507,
25907,0.5761123,-0.4039976,11.928085,-0.27697894,0.37202114,-0.22083406,-22.038364,-4.258871,-80.761505,
25957,0.1808583,-0.017127812,9.711869,0.26018018,0.12141792,0.06332498,-21.524147,-4.631967,-81.56981,
26007,1.398959,0.45118824,8.351636,-0.20507365,0.06256211,-0.10631823,-21.26897,-4.4671555,-80.662575,
26057,-0.1696801,0.62486047,9.156917,-0.30440947,0.31565097,-0.13126315,-20.037466,-4.025168,-81.90097,
26107,-0.18325448,0.8871653,9.093037,-0.08017151,0.09851475,0.030834453,-18.728258,-4.8226376,-82.297676,115.0
26157,0.32219148,1.3898164,7.963169,0.1581812,-2.2123684E-5,0.12351237,-19.166624,-3.855264,-81.262215,
26207,0.6012648,1.178216,9.284676,0.011796239,-0.13708602,0.07415516,-18.885056,-3.8448048,-80.842636,
26257,0.2559166,1.1814098,10.004916,0.07029696,0.020750523,0.050275512,-19.526781,-4.5200524,-79.35472,
26307,0.33057567,0.2978776,11.6693735,0.24313597,-0.11968672,0.05462533,-18.27037,-3.1030579,-81.145454,
26357,-0.087435335,0.8252821,10.20374,0.5403445,-0.22798851,0.011393392,-18.449902,-4.648805,-79.171684,
26407,0.82524204,1.3506904,10.319521,-0.025843078,0.336246,0.20411731,-18.192904,-4.6288357,-79.73299,
26457,-0.9162708,0.010819425,11.848636,-0.5393001,0.19625267,-0.33295304,-17.476305,-3.9975624,-79.30977,125.0
26507,-1.2648131,0.020002082,10.505171,-0.13361223,-0.13886146,-0.06787996,-16.50127,-4.3785686,-79.46166,
26557,0.031540107,-3.5945573E-4,9.9873495,-0.17364837,-0.16833374,0.12537658,-17.272635,-3.3963203,-78.744194,
26607,-0.1197743,0.23799065,8.754076,-0.08514274,-0.03677371,-0.014616791,-16.117998,-2.9079075,-80.08822,
26657,-0.39565358,0.75261927,8.411124,-0.01705465,0.17175162,0.055335507,-16.093117,-2.4149983,-80.01592,
26707,-0.0742602,0.9266907,7.783908,0.038960457,0.013648759,0.06705341,-14.810061,-3.2542686,-79.8969,
26757,-0.04271974,0.8763857,8.827937,0.041534845,-0.10015689,0.04415025,-15.938881,-2.9968936,-79.644226,
26807,0.26829326,1.0752103,8.914574,0.06630223,-0.0135154575,0.029591644,-16.428005,-1.5789433,-79.647026,
26857,0.023555174,0.76220113,10.365834,-0.10440625,-0.15342008,-0.119900346,-15.01645,-2.6373875,-79.52228,
26907,-0.28386456,0.7170863,10.617759,0.08654223,-0.17117445,-0.11226595,-16.196419,-2.310173,-79.478035,115.0
26957,0.8228466,0.91950434,11.364749,-0.06179571,0.1075695,0.083032355,-15.170413,-2.5898144,-79.47507,
27007,1.3031399,-0.24469826,11.329216,-0.17320453,-0.020794759,-0.292473,-15.045146,-1.4633827,-78.221085,
27057,-1.172587,-0.881097,11.303265,-0.40987056,0.33207378,-0.47276884,-14.609527,-0.75394183,-78.86331,
27107,0.9066882,-0.14408816,10.1111145,0.052986424,0.038682457,0.20429488,-13.967274,-0.8817291,-79.826035,
27157,1.052014,0.51945937,8.158002,-0.07963888,-0.14409901,-0.10951401,-14.301491,-0.22344463,-79.841965,
27207,-0.50664407,0.19247657,10.841736,-0.49988532,0.12674423,-0.21169055,-14.275051,0.12809563,-81.00612,
27257,-0.23755199,0.7813651,8.2466345,0.30651915,-0.19549796,-0.07169716,-14.763829,0.7936948,-80.38113,
27307,0.18325374,1.2297187,8.755274,0.13057312,0.06123053,0.106290616,-13.583975,0.44384193,-80.29615,
27357,0.6847072,1.3898166,8.992427,0.2740286,-0.09456425,0.0737113,-14.199074,0.21416473,-80.257195,
27407,-0.01916419,0.8871653,10.089556,0.13128331,-0.09518566,-0.12575929,-14.660423,0.13268471,-80.31931,
27457,-0.37569126,0.19606976,11.269729,0.22103174,0.022614725,0.046547085,-15.32767,0.2032191,-79.87243,
27507,0.113784865,0.76140267,10.047634,0.33226302,0.03477649,0.2101538,-15.351912,-0.7564888,-79.93931,
27557,-0.2539211,0.81530094,11.898142,-0.17178416,0.23273796,0.19728187,-16.098455,1.033041,-79.48852,
27607,0.03952505,0.3246271,10.930369,-0.25860313,-0.06056459,-0.014261703,-16.971172,1.0087547,-78.60715,
27657,-1.0372425,-0.1596588,11.70291,-0.31160003,0.10703686,0.19834715,-16.149458,1.4145445,-80.21644,
27707,0.95938873,0.021199837,9.851604,0.048370287,-0.25959134,0.1126822,-16.511005,3.0597982,-79.93495,
27757,-0.18684769,-0.20996383,8.670235,-0.17071891,0.016755782,-0.20432249,-18.304585,2.1726742,-79.96929,105.0
27807,-0.3924596,0.30706027,8.441466,-0.07218204,0.23362567,0.09883376,-17.280966,3.4926672,-79.80435,
27857,-0.112587854,0.9266907,7.149106,0.0641717,0.12488003,-0.010444509,-18.304693,3.0424588,-80.95954,
27907,-0.48827875,0.8596173,8.987636,-0.06330482,0.08946002,0.07823867,-17.509485,3.604147,-81.97803,
27957,0.1449261,1.1003629,9.066687,0.24686438,-0.060475826,0.0036702324,-18.049047,3.6352139,-81.01163,
28007,-0.33576658,0.58413726,10.817782,0.113883995,-0.07618847,-0.07959787,-17.742023,3.4073286,-80.12436,
28057,-0.08743533,0.42124474,10.556673,0.35552126,-0.0125389695,0.01618708,-18.25286,2.553418,-80.84941,
28107,0.24074523,0.6512107,11.095657,0.20709455,0.035131574,0.056933414,-19.819561,3.6752605,-79.869606,
28157,1.2264845,0.4835272,10.466844,-0.13583153,-0.070862144,-0.13241719,-19.893816,2.4325593,-80.73406,98.0
28207,-0.2918495,-0.31656262,11.755211,-0.3574951,0.23114006,-0.24311583,-20.200665,1.7415237,-80.630516,
28257,0.85758096,0.3493804,9.917082,0.037007477,0.18107268,0.21192925,-18.920568,2.17183,-79.41714,
28307,1.2636147,0.6025026,8.559643,-0.21297435,0.014536475,-0.22553897,-18.895996,3.5372276,-80.15457,
28357,-1.1450391,0.11103029,9.390076,-0.34275895,0.35018325,-0.21790457,-19.279934,3.136755,-80.26265,
28407,-0.37648976,0.8540279,8.330476,0.09169101,-0.11578075,0.053915158,-19.201815,3.363143,-81.63042,
28457,0.36051917,1.3267356,8.436676,0.038339052,-0.06819899,0.10114184,-19.279833,3.5213528,-80.83457,
28507,0.47390518,1.3874211,9.476314,0.12089699,-0.076721095,-0.024825567,-19.741293,2.5006294,-79.62191,
28557,-0.31620353,0.5781486,10.780651,0.1490377,-0.1697541,-0.11741472,-20.562258,3.170297,-80.037,
28607,-0.63599986,-0.10576052,11.742435,0.30864966,-0.15075691,-0.008313982,-21.278767,2.8272753,-80.902054,
28657,0.15211254,0.5494029,11.116018,0.52560836,-0.03943687,0.34366682,-21.637117,1.4871788,-79.78629,
28707,0.38367546,0.93387717,9.666354,0.16057804,0.019951575,0.14907871,-22.740273,2.2270432,-80.15764,
28757,-1.4959767,-0.44831395,12.216742,-0.5478222,0.1601225,-0.11599437,-23.07424,2.0136101,-79.312256,
28807,0.31420657,-0.14089422,10.452869,-0.026375705,-0.2796538,0.14561659,-22.280197,2.4702148,-79.143036,
28857,0.44076768,0.23918839,8.681014,-0.24280174,0.08608668,0.016098304,-22.358072,3.2536862,-79.257225,87.0
28907,-0.24154444,0.09945214,9.497074,-0.43570322,0.19305688,-0.12416139,-23.128483,3.9337826,-79.02632,
28957,-0.27787587,0.6595949,7.082032,0.027242562,0.09407616,-0.057937503,-22.922201,3.8730888,-80.00066,
29007,-0.5817024,0.7518208,8.360021,-0.19229048,0.051909473,-0.052522413,-23.049652,3.9094706,-80.72649,81.0
29057,-0.12456526,1.3602724,7.9468,0.14246857,-0.111697234,0.025508136,-23.334717,4.331482,-78.52018,
29107,-0.2798721,1.1885964,9.396464,-0.12970626,-0.006946336,-0.10152454,-22.359959,5.111988,-79.87205,76.0
29157,-0.5928813,0.65959483,10.926775,-0.056025524,0.014181387,-0.11723718,-23.026087,4.178704,-79.18137,
29207,-0.42360082,0.02279683,11.387905,0.14353383,-0.2476959,-0.16011404,-23.588999,3.2622805,-79.10738,70.0
29257,0.06228207,-0.06743285,11.480131,0.08689732,-0.08577583,0.03030181,-22.205116,3.3159664,-78.531906,
29307,1.2165035,-0.29101086,11.260146,-0.089226246,-0.17792112,-0.03041821,-24.589853,3.9829922,-79.218,63.0
29357,-0.5964745,-0.6351613,11.632244,-0.23055123,0.15142284,-0.21541893,-24.257132,3.5858333,-78.17336,
29407,0.94820994,0.33979848,9.263116,0.04180116,0.031669464,0.064922884,-21.8228,4.485772,-77.916885,56.0
29457,0.0107792765,0.1661263,9.649985,-0.3828839,0.11307335,-0.25873968,-23.435812,3.6350677,-78.97891,
29507,-1.0336493,0.3166422,9.160909,-0.29215896,0.15151161,-0.20858352,-23.053246,4.102047,-77.7109,50.0
29557,-0.36171764,0.59132373,9.707477,-0.042709753,0.049690187,0.10593552,-22.25834,4.740143,-78.54972,
29607,0.81965256,1.2245287,8.062981,0.40905076,-0.2596801,0.15174185,-22.745968,5.2697754,-78.800125,44.0
29657,0.088632345,0.89674723,9.4835,0.2165044,0.0622958,0.011482163,-21.950815,4.6020355,-78.23094,
29707,-0.5234124,0.20006223,11.2577505,0.35312444,-0.32173172,-0.10898139,-21.281174,2.714612,-78.579346,40.0
29757,-0.23715274,0.21523361,9.699093,0.60976416,0.048269827,0.17109413,-22.25715,3.035813,-77.49819,
29807,0.66115177,0.9506455,10.58542,0.3075844,-0.052220035,0.29981348,-23.205704,2.778822,-77.31245,
29857,0.15131402,0.74702984,10.274806,-0.20232172,0.056791935,-0.20565404,-22.718225,1.9617068,-76.56864,38.0
29907,-2.3116372,-0.84716105,12.6599045,-0.510538,0.13366845,-0.23841089,-21.742472,2.0535336,-77.96411,
29957,-0.51462895,-0.049067516,9.685517,0.044109236,-0.31036893,0.2000338,-21.53936,2.7104714,-76.960686,32.0
30007,0.48628175,0.11941445,8.926552,-0.5888349,0.27162006,0.063591294,-22.129171,2.6547031,-76.81995,30.0
30057,-0.77094525,-0.26865306,10.048832,-0.11745574,-0.02842915,-0.03130592,-21.589926,2.6037025,-77.4766,27.0
30107,-0.6084519,0.3889058,7.355117,0.042333804,0.08519895,0.24415347,-21.82129,3.380206,-77.904045,24.0
30157,-0.021958908,0.41964778,8.998015,0.121695936,-0.09358778,0.25223175,-21.23355,4.283644,-77.22924,
30207,0.015570253,0.92429525,8.000698,0.31078017,-0.25195694,0.12111552,-21.901823,4.1508274,-75.593506,22.0
30257,0.6272158,0.6072936,10.116705,-0.10999888,0.08431124,0.0876485,-22.61439,1.6085001,-77.2842,
30307,-0.47550285,0.08587777,10.562663,0.45911813,-0.11693479,-0.1611793,-22.360695,2.589079,-76.051125,20.0
30357,0.2639015,0.15135418,10.760289,0.06967556,-0.06890917,0.06882885,-21.230751,1.7378203,-76.58063,
30407,1.8481114,0.46675885,10.721962,-0.060730454,-0.017865289,-0.059446633,-21.589596,1.6344852,-76.56257,
30457,-0.09542024,-0.53055865,12.187196,-0.4576299,0.21338566,-0.39012218,-21.844957,1.5203552,-77.36721,18.0
30507,0.15211254,0.09545967,9.792517,0.06443801,0.07934,0.03216603,-20.820068,1.6415272,-76.85304,
30557,0.38447392,-0.09378312,10.09275,-0.35074845,0.09958002,-0.16393124,-20.768171,1.8752466,-77.70565,16.0
30607,-0.37129954,0.05234106,9.094234,0.012240097,0.05324105,-0.12203087,-20.20585,2.1000404,-76.37877,
30657,-0.19603038,0.5122729,8.827937,0.019075543,0.029805256,0.06474534,-19.845602,1.5092901,-76.801476,15.0
30707,0.2946435,1.0548489,8.261806,0.24233702,-0.04929056,0.16399239,-19.510162,0.9794998,-78.0509,
30757,1.4121342,1.409779,8.6450815,0.1363433,-0.07192741,0.1591987,-19.895872,1.0608801,-77.158646,
30807,0.1628922,1.0177188,9.720652,0.13909523,-0.017776517,-0.13445894,-20.27749,-0.5764942,-77.819824,
30857,-0.2135972,0.12580241,11.132386,0.17123069,-0.15155585,0.0060670767,-19.892645,-1.0082537,-77.49573,14.0
30907,0.44316316,0.4859227,10.03925,0.43115497,-0.10068953,0.17961626,-20.971922,-0.12392616,-76.449455,
30957,0.27108797,0.7661936,10.718768,0.031414844,0.29186007,0.15547028,-20.713217,-1.6463509,-76.631744,
31007,-0.9725647,-0.23391864,11.189081,-0.38039827,0.08661931,-0.22252071,-19.43,-1.9570885,-77.31846,
31057,-1.2684063,-0.8252025,11.974797,-0.33636737,0.024212621,-0.023760308,-18.971214,-0.24947865,-76.965706,
31107,0.20840624,-0.15247236,9.448765,0.022271335,-0.042632665,0.27176157,-19.27605,-2.1010056,-77.23558,12.0
31157,0.083442144,-0.29899576,9.23437,-0.1371631,-0.08497689,0.0058007594,-19.431871,-1.0879415,-76.70951,
31207,-0.6467796,0.09785515,8.377987,-0.022292195,0.051820707,0.0423748,-19.123268,-1.5781097,-76.92832,
31257,0.42918953,0.5873313,8.439071,0.03807274,-0.10628216,0.17943871,-19.17526,-0.70099384,-77.37826,
31307,0.22517464,1.0332896,8.557648,0.18934016,-0.018486692,0.036338314,-19.202845,-0.82022667,-75.4688,
31357,0.51382977,1.1478733,8.375192,0.30864966,-0.18511164,-0.056783475,-19.174553,-2.3024228,-76.01841,
31407,0.043118253,0.5002955,10.902821,-0.0048928857,-0.07015197,-0.2491523,-18.739143,-1.8555088,-76.141716,
31457,-0.46512246,0.4611694,10.600592,0.25751704,-0.016800024,-0.24000879,-19.479193,-3.3605728,-77.4582,
31507,0.31500506,1.0536511,11.083679,0.15312122,0.00228595,-0.0062722266,-18.50389,-4.0828304,-77.425575,
31557,2.103629,0.8947511,10.726753,-0.046882022,-0.19523166,-0.12096558,-18.609262,-3.5644581,-75.525444,
31607,-0.7929038,-0.6183929,12.325735,-0.49296114,0.1265667,-0.5848878,-19.274864,-3.7811546,-76.21013,
31657,0.8468013,-0.41318026,10.729149,0.07668854,-0.030914765,-0.032016095,-18.095198,-4.2008514,-75.8664,
31707,1.2528348,-0.28781688,8.731319,0.016057292,0.042765964,-0.24613404,-17.812374,-4.713665,-75.93081,
31757,-0.113785595,-0.552118,9.914685,-0.3147958,0.32861167,-0.37103617,-16.812212,-4.6773934,-76.1385,
31807,0.6731291,0.19487202,8.277376,0.21117806,0.052885965,-0.09007296,-16.88736,-5.16041,-77.14074,11.0
31857,1.2564281,0.69432926,7.871343,0.16430648,0.011429461,-0.14253719,-15.678706,-7.385161,-77.575005,
31907,1.1893548,1.1039562,7.896495,0.14974788,0.07774212,-0.2745411,-16.81014,-5.3803577,-77.13627,
31957,0.3980483,1.063233,9.061894,0.014370624,0.032468412,-0.48661727,-15.422829,-6.7954965,-77.83341,
32007,0.50424784,0.34339172,11.386707,-0.028683774,0.044896487,-0.4092969,-15.500612,-7.2675705,-76.46279,
32057,1.108707,0.19127882,11.237788,0.2585823,-0.08337899,-0.41790777,-14.089589,-8.270695,-75.92599,
32107,2.2146194,0.3469849,10.944741,0.10571698,0.1658039,-0.47747377,-14.114823,-8.421192,-76.10542,
32157,1.3187106,-1.1729462,11.990368,-0.39762002,0.12621161,-1.1023396,-13.112129,-9.697078,-76.968506,
32207,0.30063215,-1.3114847,11.625855,0.18028541,0.07916247,-0.81303173,-11.266289,-9.570015,-76.87247,
32257,3.0793872,-1.1238389,9.555365,0.2284886,-0.23224959,-0.89408064,-10.752425,-10.975606,-76.069595,
32307,2.1052258,-1.5294733,9.579319,-0.016078157,-0.04795898,-1.422185,-9.033643,-11.516924,-76.17534,
32357,1.0528125,-1.926324,10.238075,-0.11479257,-0.1909706,-1.7625368,-7.724571,-12.360825,-76.390945,
32407,0.6727298,-1.3514093,9.417225,0.07482433,-0.18164955,-1.7655549,-5.9542155,-13.387705,-76.154465,
32457,1.0983266,-0.7046302,8.798393,-0.07617678,-0.077520035,-1.8344419,-4.5951614,-14.261822,-75.15615,
32507,0.22078289,-0.43873206,8.81596,-0.045372903,-0.16904394,-1.9225038,-2.4914122,-14.802322,-75.58766,
32557,0.044315986,-0.066235125,8.837917,-0.16752313,-0.28711063,-1.9505557,-1.1055216,-15.884948,-75.411674,
32607,-0.44356313,-0.44352296,9.92267,-0.1852775,-0.29438993,-1.9615635,0.7403126,-15.420111,-75.73226,10.0
32657,-0.6910959,-0.6124042,10.759092,-0.16166416,-0.25488642,-1.8123378,3.3558,-14.998136,-76.394325,
32707,-0.8819358,-0.4323441,11.153946,0.20212333,-0.3867128,-1.5683036,4.6648216,-16.034344,-76.323975,
32757,1.3151174,0.11701898,9.834437,0.34460232,0.015424198,-1.1513418,6.279141,-14.911595,-76.7869,
32807,-0.46831644,-0.9226187,10.889646,-0.47946778,-0.11222988,-1.83675,7.5110226,-15.849533,-76.64223,
32857,-2.0517278,0.18289465,10.796222,0.038072743,0.060697895,-1.0354943,9.251409,-14.021103,-76.05264,
32907,1.5374975,1.2884079,8.873451,-0.053184837,-0.14773865,-0.7262128,10.969236,-12.716471,-77.59846,
32957,0.25032717,0.865606,9.049917,-0.27325052,0.035664205,-1.1207154,10.944173,-13.327591,-77.359856,
33007,-0.56014305,1.1151351,9.295055,-0.19575259,-0.1859106,-1.0597291,12.739317,-13.209026,-77.78087,
33057,-0.5749152,1.3914137,9.246347,-0.18669786,0.0031736668,-0.8769476,12.119553,-10.940337,-76.63604,
33107,0.071464755,1.7148032,10.31553,-0.047947288,0.05856737,-0.5345541,13.274378,-10.550972,-78.030495,
33157,0.66354716,1.9220121,8.931341,0.2433135,-0.18857376,-0.47729623,14.120181,-10.968387,-77.205,9.0
33207,-1.1087078,0.70550823,11.858216,-0.12730943,-0.01653371,-0.47702992,14.274267,-10.318151,-78.24046,
33257,0.13534416,0.13378733,11.295679,0.45618868,-0.27024397,-0.10427648,14.173274,-12.004876,-77.5528,
33307,0.36291468,0.36854422,10.0320635,0.24739702,0.18852952,0.0026049651,12.044788,-12.248636,-76.95808,
33357,1.2923603,-0.7082233,11.692131,-0.26659262,0.10419615,-0.1848814,13.352382,-12.156242,-77.004005,
33407,-1.8129784,-0.5648939,11.482127,-0.1571368,0.22394952,-0.3659762,14.197731,-11.409832,-77.223755,
33457,-0.22038439,-0.16564748,9.537397,0.30474368,-0.077608824,0.2421117,13.71019,-11.315479,-77.00483,9.0
33507,-0.5864934,-0.5217753,9.870769,-0.12571152,-0.2277222,-0.10445402,12.506044,-11.369915,-77.807976,
33557,-0.62162703,0.07988906,8.083343,0.17034297,0.06762211,0.10167447,13.914871,-11.161868,-76.795166,
33607,-0.6567607,0.82049114,7.397836,0.123560145,0.06762211,0.095815524,13.736664,-12.363413,-76.45036,
33657,-0.09462176,1.1327019,7.8952975,0.13501173,-0.008189137,0.22275944,13.710155,-11.749214,-76.43234,
33707,0.16888088,1.4489051,8.399146,0.20611808,-0.17472534,0.08356499,12.5826645,-12.088421,-76.63702,
33757,0.19044016,1.2297188,9.942234,0.00362922,0.029272625,0.027993752,12.172963,-12.752971,-76.30418,8.0
33807,-0.054697122,0.782962,10.659679,0.19573173,-0.24396746,-0.080219276,12.428148,-13.094824,-74.77203,
33857,0.324587,0.893154,11.185487,0.09417661,0.036729466,0.1228022,11.505702,-12.754593,-75.753296,
33907,0.96817225,0.25675523,11.649811,-0.024511494,-0.113472685,-0.0037866123,11.968737,-14.070412,-75.4686,
33957,0.5198185,-0.4602914,11.705307,-0.24493228,-0.10512812,-0.17653686,11.455113,-13.343464,-75.644554,
34007,0.21279795,-0.3996059,10.912803,-0.06312729,0.103042126,0.02550812,12.275766,-12.971756,-76.247505,
34057,1.9810604,0.53503,9.362528,-0.021937108,0.119642474,0.20802327,11.097183,-13.844906,-75.95719,
34107,0.37489203,0.62965137,8.756073,-0.11106415,0.20237795,-0.21737194,10.889471,-11.883726,-76.06245,7.0
34157,-0.61204517,0.8859676,8.1061,-0.09774836,0.16083267,-0.14688702,11.45517,-12.717046,-76.47722,
34207,0.20082061,1.063233,8.523711,0.06736749,0.12541266,0.058531307,12.121012,-12.238205,-76.33724,
34257,0.025152162,1.4560915,8.229467,0.09364399,0.18107267,-0.01692486,12.070648,-12.805981,-76.460884,
34307,0.24553616,1.1271124,10.301955,0.121429615,-0.039969496,0.025774451,12.968187,-12.891022,-76.46336,
34357,-0.53538984,0.73026145,9.437985,0.1474398,0.042765945,-0.07586945,12.736058,-13.117427,-74.944664,
34407,-0.6755253,-0.14768139,12.564085,0.027153797,0.01862,0.18343344,12.735838,-13.162701,-74.6862,
34457,0.21359646,0.9666154,10.065601,0.48566094,-0.10086707,0.29501984,11.96709,-13.614288,-74.54534,
34507,0.45394278,0.60809207,10.926775,-0.3898969,0.2284769,0.01938286,12.429384,-14.124371,-74.60531,
34557,-1.2716002,-0.50820094,11.494105,-0.33565724,-0.10264251,-0.20902735,12.069964,-13.47227,-75.00872,
34607,-0.5653333,-0.1991842,10.215319,-0.12571153,-0.06926425,0.20580396,12.350916,-12.802332,-74.85471,
34657,-0.056294113,-0.25747415,9.299847,-0.15278696,-0.12572321,-0.03574452,12.325871,-13.654885,-74.32958,
34707,-0.9414234,0.24996805,8.379184,-0.055137817,0.26842427,0.08383131,11.122351,-13.500563,-75.96055,
34757,-0.58729184,0.5561901,8.157203,-0.0052479785,-0.07956179,0.1851201,11.35183,-13.769489,-74.455666,
34807,-0.15570648,0.99496186,8.560043,0.14087066,0.13020635,0.28037244,10.739187,-14.610809,-75.87984,
34857,0.4427639,1.2684456,8.639492,0.27260825,-0.19532044,0.043617606,11.967288,-12.845092,-75.68918,
34907,0.15331024,1.072815,9.902708,0.030083261,-0.017066333,-0.120699294,10.123291,-14.468107,-75.58728,7.0
34957,-0.29903594,0.22641252,10.632531,-0.01572307,0.08679686,-0.16641684,11.045423,-14.659385,-74.50457,
35007,-0.31380802,-0.05305998,12.808424,0.07935171,-0.408817,-0.09113822,10.968988,-14.160448,-75.56982,
35057,2.2425668,0.170518,10.284389,-0.08585293,0.109522484,-0.013018896,9.763829,-14.828567,-74.68926,
35107,-0.88153636,-1.164562,13.339022,-0.59416115,0.15843582,-0.56012046,10.891241,-14.367672,-74.56337,
35157,0.27747586,-0.26066813,9.651184,0.030615902,0.17113023,-0.012841355,10.94247,-13.787296,-75.23946,
35207,0.086236864,-0.2207435,10.106323,-0.45967168,0.23247164,-0.25438985,10.967579,-13.128584,-75.58179,
35257,-0.6352014,0.29747838,8.834325,-0.21563752,0.15319827,-0.07817752,12.327001,-12.898044,-76.29867,
35307,-0.2850623,0.79973036,9.010393,0.07482433,0.21569373,0.17091659,12.428461,-12.447699,-75.86286,
35357,0.1632914,1.1654401,7.809859,0.3328844,-0.48524964,0.023377609,11.864369,-13.3724785,-74.70545,7.0
35407,0.16528766,1.2740351,8.945715,0.1490377,-0.004993344,0.11463517,11.966938,-13.757061,-74.23415,
35457,0.7254304,0.82288665,10.539906,0.099059075,-0.16407269,-0.013107669,11.711429,-14.448091,-74.180916,
35507,-1.3354796,-0.32854003,11.413057,0.28326088,0.026609471,-0.14830734,10.736961,-13.85755,-74.80527,
35557,-0.27508116,0.51866084,10.666865,0.45805287,0.12115161,0.41273147,11.762572,-14.349041,-74.18079,
35607,0.59288055,0.96980935,9.47272,0.09719485,-0.014758269,0.20749064,12.661793,-15.517784,-74.35124,
35657,-0.8308322,-1.0304152,12.847549,-0.7025517,-0.0034842268,-0.17183195,12.021141,-16.062605,-73.99976,
35707,-0.034734815,-0.27703726,10.199748,0.059378013,-0.22266221,0.14428502,11.738369,-14.296185,-75.549095,
35757,0.30622166,-0.19998269,9.247147,-0.26339683,0.1142274,0.041487083,11.609955,-15.284194,-74.122185,
35807,-1.2420559,-0.0075459033,8.992426,-0.18492241,0.04507403,-0.12788981,12.738867,-14.505596,-75.75394,
35857,-0.124964505,0.44919202,7.9671617,-0.05513782,0.107835814,0.09288605,12.480759,-13.714812,-75.20204,
35907,-0.6731298,0.7482276,9.004404,0.046417296,-0.011740024,0.015743218,11.200199,-14.741949,-75.24779,
35957,0.46352473,1.4241518,8.0965185,0.42263287,0.027941044,0.17517765,11.610103,-15.141416,-74.43336,
36007,0.040722772,1.1003629,9.54698,0.07287135,0.03406631,-0.11350876,11.893181,-15.3199215,-75.146484,
36057,-0.30302843,0.46995282,11.114021,0.16297488,0.0625621,-0.11643823,10.429761,-14.519769,-74.41832,
36107,-0.24553692,0.51586616,10.406956,0.31220052,-0.18804115,-0.12895508,13.047747,-16.76029,-74.01774,
36157,0.035532594,0.3917005,12.066625,-0.01998412,0.16775689,0.08942394,11.969083,-15.61884,-73.85143,
36207,1.7151623,-0.007545896,10.141058,0.044641864,-0.14241235,-0.099482775,12.584051,-15.29089,-73.89152,
36257,-1.2276831,-0.52736473,12.048259,-0.50068426,0.45457906,-0.3678404,13.50589,-14.995822,-73.14977,
36307,1.325897,0.55299604,8.1432295,0.2101128,-0.08115969,0.09812359,11.814962,-14.8695965,-74.534584,
36357,-0.21519418,0.6033011,9.002807,-0.5198591,0.3576401,-0.22642669,12.121666,-14.490228,-74.118645,
36407,-0.5868926,0.8009281,8.303726,-0.10875609,0.086619295,-0.020475741,14.274986,-13.656445,-74.71959,
36457,-0.1249645,1.3067733,8.11089,0.051122215,-0.1941664,0.071580775,13.197782,-13.643973,-74.46279,
36507,0.7809256,1.3914136,8.968472,0.087607495,0.021283144,0.14197694,14.120787,-14.01572,-73.94544,6.0
36557,-0.27348414,1.2045662,9.508253,0.2604465,-0.18058428,-0.08234979,13.96577,-13.423401,-73.62084,
36607,-0.31141257,0.32542562,10.973488,0.17140824,-0.12714356,1.1935396E-4,13.892475,-14.558317,-75.49248,
36657,-0.8935138,0.14217152,11.108831,0.32915598,0.01515788,0.1323008,13.556499,-14.214267,-73.518684,
36707,-0.09701725,0.9873762,10.473631,0.21810228,0.02873999,0.293777,13.197317,-14.385515,-73.11292,
36757,0.209604,0.90632915,10.792629,-0.34888422,-0.07032952,-0.021629777,13.094238,-14.211232,-72.85957,
36807,-1.0376419,-0.29021236,12.326932,-0.3195007,0.085731596,-0.18328351,13.735544,-13.795811,-73.64804,
36857,-0.46592095,0.035572708,10.5530815,-0.04634939,-0.0104084425,0.0952829,13.145917,-13.588668,-74.000435,
36907,-0.41481742,0.04994558,9.148132,0.005937288,-0.09696109,-0.13960771,12.657724,-12.351961,-74.62016,
36957,-1.4384851,0.5805441,8.576811,-0.06099677,0.46416646,0.07903762,12.632179,-12.860176,-74.073235,
37007,-0.7645573,1.0903817,7.960774,0.22076543,-0.26935622,0.20482749,14.194418,-12.234064,-73.19043,
37057,0.08264364,1.4453118,7.3455353,0.17602435,-0.08630847,0.21219555,12.990735,-12.89769,-73.65118,
37107,0.22078289,1.272438,9.596087,7.8345336E-5,-0.03428811,0.114812724,13.119406,-13.722183,-73.04516,
37157,0.19882436,0.83566254,9.307432,0.37363073,-0.3132096,-0.1444014,12.888217,-12.803287,-73.80959,
37207,-0.2231791,0.27432206,10.915996,0.06026573,0.0679772,-0.109425254,12.578115,-12.823891,-71.598755,
37257,0.21559268,0.4715498,11.419046,0.15844752,-0.10921163,-0.063974,13.349246,-13.320568,-72.70877,
37307,0.89870334,0.3853126,10.0624075,-0.15243189,-0.045473363,-0.36331305,13.654594,-12.657824,-71.41915,
37357,-1.1306663,-0.7585284,13.134209,-0.90521806,0.39359272,-0.40672255,12.88546,-11.367523,-73.10404,
37407,-0.041122716,0.4100659,10.031266,0.09257873,0.249072,0.25702545,15.422712,-11.02569,-72.477425,5.0
37457,1.5187331,1.1027584,7.9503937,-0.2844358,-0.11107583,0.05134077,14.577087,-10.176469,-74.00434,
37507,-0.43877217,0.96901083,8.815161,-0.45461163,0.051110525,-0.08883015,14.191298,-9.949224,-73.21696,
37557,-0.06108506,0.9398658,8.869059,-0.14169048,-0.09722742,0.0028712861,14.421295,-8.705483,-74.07684,
37607,0.24473767,1.3946075,8.342453,-0.01891886,-0.09376531,0.06465657,14.264929,-7.733446,-73.00864,
37657,0.36650783,1.4237525,9.638008,0.011973783,-0.0751232,-0.059002776,13.958575,-8.117447,-73.73404,
37707,-0.50265163,0.83486396,10.217315,0.17282858,-0.13930532,-0.076224536,13.959288,-9.284754,-72.9209,
37757,-0.594079,-0.34051743,12.397599,0.15418647,-0.2686461,-0.019410476,13.856692,-8.320953,-74.09534,
37807,-0.078651905,0.2711281,10.41534,0.4298234,0.12807581,0.26945347,14.111677,-7.598795,-73.71045,
37857,0.3677056,-0.106958255,11.839453,-0.21652524,0.09727194,0.042019714,15.033406,-7.495257,-72.631165,
37907,-1.5702366,-0.8771045,11.791144,-0.23064,-0.02106108,-0.18088666,14.112158,-7.3881035,-74.40931,
37957,0.31859827,-0.28302595,10.024878,-0.013592544,0.070462815,0.29963598,14.109998,-6.6839805,-73.334175,
38007,0.10659843,-0.43873203,9.386882,-0.14142415,-0.1709969,-0.026157144,14.032976,-6.418377,-73.57131,
38057,-0.29224876,0.060725227,7.749173,-0.13023889,0.013471216,-0.061843473,12.982895,-6.6182733,-74.39474,
38107,-0.21599269,0.42204323,8.379185,-0.27831054,0.4162296,0.112327114,14.185276,-6.106167,-72.56517,
38157,-0.09102854,0.83206934,7.88332,0.06896538,-0.12501304,0.018583922,13.750226,-6.0030646,-73.454185,
38207,0.045912962,0.89395255,8.686604,0.07056327,-0.049024247,0.05080814,14.570868,-5.8965874,-73.71874,
38257,0.46592018,0.48113173,9.627228,0.0141043095,-0.18022919,-0.113686286,13.441958,-5.6138725,-73.41477,
38307,-0.25112635,-0.43633652,11.664982,-0.046083078,0.011429457,-0.24693301,14.340755,-5.6191673,-74.656265,
38357,0.0059883296,-0.22553444,11.284899,0.28787702,-0.12980671,-0.14528912,13.802142,-5.094175,-75.165825,
38407,0.771743,0.28310546,10.861698,0.08068328,0.03433263,-0.07116453,13.7240715,-4.5252533,-74.839035,
38457,0.6300105,-0.9501667,12.917418,-0.36690494,0.1290523,-0.32194528,13.492726,-4.737905,-74.04272,
38507,-0.8380186,-0.6207884,10.377811,0.19919385,0.17068633,-0.2168393,14.493162,-4.9465446,-74.19597,
38557,1.307931,0.12300768,8.691793,0.089027844,0.12035265,0.1126822,13.389308,-4.7762427,-73.21943,
38607,-0.3014314,0.16732402,9.320607,-0.2575379,-0.056481086,-0.28581512,13.027525,-2.959015,-72.93994,
38657,-0.125763,0.69313157,8.501353,-0.06490273,0.2714425,0.05480288,13.749242,-4.7839217,-74.08738,
38707,-0.37728822,1.1614476,7.8633575,0.12462541,-0.12332637,0.06971657,14.337688,-3.6245136,-74.36991,
38757,0.47669983,1.3183515,8.502551,0.05653731,-0.06890916,0.20855589,13.9541855,-4.489077,-74.29205,
38807,-0.1465238,1.0624346,9.6224375,0.1347454,-0.19975904,0.023377607,12.954588,-4.749935,-74.313896,
38857,-1.0659883,-0.17283395,11.487318,0.06488187,-0.17596813,0.05089691,12.057915,-4.8211837,-74.90284,
38907,-0.2120002,-0.10416353,11.616273,0.37283176,-0.11933163,0.36426196,11.724863,-5.2880173,-74.5704,
38957,0.5880896,1.0368828,9.953013,0.3857037,0.16047758,0.40065846,10.879448,-6.15418,-74.1429,
39007,-0.5186215,0.12779863,11.104041,-0.34542215,0.055637896,-0.11670455,11.186773,-6.6031837,-73.25305,
39057,-1.0344478,-0.72299546,12.084989,-0.08958134,0.061585616,0.12954886,12.05939,-6.1915984,-74.52582,
39107,-0.74020326,-0.22433671,9.203228,0.06550328,0.06948632,0.2761114,11.188219,-6.9118996,-74.17803,
39157,0.038726527,-0.34850237,9.344562,-0.17941855,-0.055238277,0.20695804,11.803978,-6.7874427,-74.68004,
39207,-0.9522031,-0.47945517,9.333782,-0.056469396,-0.03064845,0.010328131,11.264986,-6.1127186,-75.03658,
39257,-0.46592095,0.30626178,8.222679,0.1389177,0.062118262,0.4052746,9.596816,-6.0200524,-73.76365,
39307,0.1425306,0.78176427,8.088134,0.013039045,-0.04236635,0.15839975,10.878424,-6.237015,-73.1102,
39357,-0.6647456,0.7558133,9.408441,0.071095906,-0.022037566,0.21033137,9.085198,-7.008245,-73.61017,
39407,0.682711,0.9326794,9.433195,0.21783596,-0.2812517,0.102473415,9.6513195,-7.3165073,-75.06278,
39457,0.11378487,0.4939076,10.227695,0.10394154,0.062473338,-0.036454696,8.521267,-7.1150756,-73.622955,
39507,-0.709062,0.26074767,12.128107,0.018897997,0.03832737,-0.039206624,9.497003,-7.5295334,-74.36771,
39557,0.47869608,0.6496137,9.568938,0.22129805,-0.18910639,0.045570597,8.829007,-7.1595445,-73.614784,
39607,-0.75936705,-0.28781694,12.675474,-0.64982116,0.12887478,-0.2471993,8.343589,-8.05834,-74.08075,
39657,-1.2332727,0.21842758,10.55827,0.20176823,0.048979998,0.27957347,8.162393,-7.2180266,-73.57911,
39707,0.2706887,0.8224874,8.537285,-0.07697572,-0.03783898,0.29928085,8.653664,-9.7500305,-74.13082,
39757,-1.1462369,0.12899637,10.136666,-0.3734741,0.10668177,0.16505766,8.367696,-7.603369,-73.26,
39807,-1.131864,0.18529011,9.638008,0.033811685,0.009032616,0.505942,8.41988,-8.410639,-73.06881,
39857,-0.6703351,0.6400318,8.289753,0.047660112,0.10410739,0.6249852,8.316522,-6.9301376,-74.19766,
39907,-0.037130296,0.9398658,8.236653,0.027420104,0.027497182,0.72591895,7.190817,-8.306231,-74.72561,6.0
39957,-0.09062929,0.84604293,8.767251,-0.06445887,-0.022392657,0.6369694,6.3701596,-8.340159,-74.539276,
40007,-1.1294684,0.8584196,9.762573,-0.037560966,-0.093232684,0.68206555,6.344617,-9.620272,-73.02903,
40057,-0.89151764,0.5218549,10.974286,-0.08709572,-0.18644322,0.8412337,4.935641,-9.343904,-74.51176,
40107,-1.8133776,0.26553866,11.865803,0.12063065,-0.14454286,0.9412796,3.5741768,-8.268856,-73.57788,7.0
40157,-1.9111929,0.20724869,11.466956,0.3861476,-0.10068953,1.1943685,2.833327,-9.666768,-74.30236,
40207,-2.2565413,-0.7369691,11.855023,0.24491139,-0.1333576,1.3102158,0.49991798,-9.867977,-73.945366,
40257,-1.1015213,-0.9170292,10.989457,0.4889455,0.14352214,1.7845244,-0.39656767,-10.158793,-74.42859,
40307,-0.87674546,-0.3273423,7.6821,0.66906387,0.249072,1.7562062,-2.192318,-10.269249,-73.46601,
40357,-0.5545536,-1.1062721,9.392471,-0.18350208,-0.07911793,1.4550917,-3.6284103,-10.1424675,-73.42581,
40407,-0.95459855,-1.2975111,9.594889,-0.38110843,0.38684607,1.3080853,-5.0393486,-9.285204,-73.85774,
40457,-1.682824,-1.1406072,9.50985,-0.27697894,0.24978217,1.4036927,-5.0158706,-7.1816063,-74.526375,
40507,-0.82644045,-0.46148908,8.435478,-0.16113152,0.30144745,1.6594448,-6.7349277,-7.0225735,-73.69398,7.0
40557,-0.7853181,-3.594756E-4,8.624322,-0.19894838,0.19891582,1.5895813,-7.118397,-6.6815047,-75.15194,7.0
40607,-0.7330168,-0.24948922,9.386483,-0.27422702,-0.0868411,1.39739,-8.12208,-4.6205997,-74.37535,
40657,-0.56174004,-0.120931864,9.458747,-0.06765466,0.09665054,1.4159434,-9.123332,-3.170948,-75.0361,
40707,0.46592018,0.29548213,9.385284,-0.116745554,0.03992526,1.2860699,-8.971094,-2.0618877,-74.96778,8.0
40757,0.2431407,-0.12731983,11.060523,-0.19415471,-0.048757926,0.9917021,-10.510575,-1.6602389,-74.52064,
40807,0.5629371,0.016408876,10.669262,0.117967516,0.14414354,1.0440775,-10.587755,-1.1996269,-74.86321,
40857,1.4257084,-0.11294695,12.386819,0.08174855,-0.2061506,0.786639,-11.384419,0.2842636,-75.08077,
40907,2.621851,0.26913187,10.656086,0.39298305,0.022881052,0.6236536,-12.666853,0.8981762,-75.48089,
40957,0.58250016,-0.7269879,11.461366,-0.17844208,0.18160531,-0.032548733,-11.64082,0.61815006,-75.503716,
41007,0.035931796,-0.62557936,11.310052,0.10039065,-0.010852307,0.28578752,-12.821106,1.2632084,-75.566345,
41057,2.062906,0.38531256,8.606754,0.28334966,0.01755473,0.49795252,-12.05225,1.1586024,-75.107506,
41107,0.11977356,0.49790004,8.931341,-0.28399193,0.21959971,0.0629699,-11.7448845,1.866869,-75.701324,9.0
41157,-0.16888161,0.32063463,8.998815,-0.24741787,0.08626423,0.11472395,-11.026485,1.0751215,-75.13261,13.0
41207,0.65755856,0.68235195,8.350438,-0.05478273,-0.051154763,0.32271668,-10.668701,1.7473841,-74.89935,18.0
41257,1.2037276,0.98537993,8.752879,-0.21492733,0.19971478,0.35893565,-10.976226,2.4885013,-75.973145,26.0
41307,0.6160369,1.0608375,8.692992,0.108912766,-0.008721777,0.12635307,-11.899984,3.039175,-76.02829,38.0
41357,0.8863267,0.8200919,10.312335,0.038072735,0.12061897,0.06119446,-10.054881,3.3931396,-75.54799,52.0
41407,-0.29823744,0.3294181,10.669262,0.31965742,0.18213792,0.015033043,-9.515627,3.149066,-75.970245,71.0
41457,-0.62522024,0.19487202,11.540018,0.3866802,-0.024523184,0.21698925,-10.61859,3.3315818,-75.81924,92.0
41507,0.53219515,0.6895383,10.32591,0.16696961,0.13686424,0.32307175,-12.285797,2.6154327,-74.40795,116.0
41557,0.06347981,-0.3081784,11.343589,-0.45461166,0.03273473,-0.1918056,-10.41332,2.512502,-74.92766,164.0
41607,-1.3530465,-0.80204624,11.6825485,-0.25736034,0.09336599,0.09972149,-9.74736,3.7375174,-75.828064,230.0
41657,0.29224798,0.18289465,8.829535,-0.010663066,-0.012805287,0.3285756,-10.619698,4.600634,-76.401436,285.0
41707,-0.029145354,-0.13051379,8.950905,-0.25380945,-0.10956671,0.0540927,-10.287723,5.7089453,-76.56078,344.0
41757,-0.43597746,-0.20637064,8.764856,-0.31346422,0.09878107,0.058264986,-10.518679,5.394549,-75.995415,406.0
41807,0.21599193,0.0691094,9.09703,-0.051231842,0.06957509,0.1449952,-10.673008,5.712373,-75.95135,473.0
41857,0.04551374,0.83566254,7.526394,0.1616433,0.05989895,0.024709187,-10.315172,5.949742,-75.22295,530.0
41907,0.035532575,0.64402425,9.417225,0.13820751,-0.10104462,0.02621831,-10.211546,5.5028954,-75.627914,591.0
41957,0.028745376,0.86440825,9.17089,0.28627914,-0.102021106,-0.075958215,-11.134816,6.215896,-76.32978,642.0
42007,-0.0011980981,0.4028794,10.8968315,0.10536189,-0.13548814,-0.11510664,-11.211476,4.546934,-74.48098,692.0
42057,0.19642888,0.41286057,11.861012,0.24979386,-0.26394117,-0.083681375,-11.134263,5.436664,-75.856445,
42107,0.7821234,0.38850656,10.610172,0.040380806,-0.08169233,-0.09788489,-12.596815,5.622225,-75.14695,745.0
42157,0.16289216,-1.2424151,13.924717,-0.52891374,0.23593375,-0.31963724,-12.213384,6.7048144,-75.433685,
42207,-0.4459586,-0.7293834,10.852116,0.27003387,0.12994003,-0.04985927,-10.5967455,5.505166,-75.09585,
42257,1.1893547,0.19966298,8.792404,0.04659484,0.15319829,0.15582536,-11.1364975,6.238287,-74.83402,
42307,0.036331058,0.3509774,9.319808,-0.18110523,0.30144745,-0.06424032,-10.829958,7.4882126,-75.35676,
42357,0.24673393,0.8332671,7.612631,0.09346644,0.09567406,-0.06468418,-11.239003,6.573736,-75.304756,671.0
42407,-0.3253862,0.7430374,8.779228,0.027952742,0.15577267,-0.056250837,-10.829029,6.245658,-74.645905,617.0
42457,0.65156984,1.3099673,7.8449926,0.31628406,-0.01333792,0.12404501,-10.058092,5.992733,-75.88771,557.0
42507,0.15929896,1.0672255,9.142544,0.15392016,0.047115788,0.004735495,-11.135529,6.008294,-75.42461,492.0
42557,-0.6707344,0.30506402,11.262143,0.07020819,-0.024345642,0.011482163,-11.391856,5.352258,-74.675354,428.0
42607,-0.22637308,0.20165925,10.407356,0.5161097,-0.21600431,0.18343343,-11.520622,6.3709803,-75.438385,364.0
42657,0.7270274,1.0931765,11.135181,0.144244,0.07987264,0.32981846,-11.801097,4.7057157,-74.78122,307.0
42707,-0.06507754,0.25675523,10.36264,-0.15340838,0.13393477,-0.120166644,-11.904369,5.123749,-74.65965,258.0
42757,-2.5811286,-0.54413307,12.497011,-0.46082568,-0.005348434,-0.24666668,-12.005562,4.9351597,-75.66596,208.0
42807,0.5848956,0.18968183,10.147845,0.14859384,-0.40189278,0.34428826,-11.982176,6.1474953,-75.13775,166.0
42857,-0.45753676,0.049945578,9.557759,-0.20747049,-0.20295483,-0.17866737,-12.574272,7.1593537,-74.26139,132.0
42907,-1.2013329,0.43801308,8.896607,-0.1068031,0.24871692,0.040954456,-12.445089,6.2315693,-73.9895,106.0
42957,-0.2024183,1.0596398,7.3455353,0.15880261,-0.025943527,0.20837837,-12.829022,6.1205115,-74.46206,88.0
43007,0.0866361,1.0233083,8.387169,0.15578435,-0.103618994,0.11072922,-12.908525,7.6974955,-74.09538,74.0
43057,0.24673393,1.1027584,8.527704,0.30083773,-0.17809866,-0.012841356,-13.446025,6.615661,-73.60613,62.0
43107,0.2104025,0.7757756,10.381804,0.059378006,0.08093791,-0.11031297,-13.599524,6.512351,-73.789314,53.0
43157,-0.48508477,0.4895159,10.693216,0.2711879,-0.0030403684,-0.19464634,-13.803566,5.5783496,-73.60301,46.0
43207,-0.056294113,0.6472182,11.838256,0.11210856,-0.13104953,-0.07862137,-13.75049,5.0968914,-74.627884,39.0
43257,1.7211509,1.1877979,10.676448,0.21046788,-0.023457922,0.07380008,-12.931218,4.8115764,-73.15973,35.0
43307,0.025152206,0.28070998,10.868087,-0.41493058,0.16775689,-0.49940044,-13.826378,3.7794657,-73.91808,30.0
43357,-0.2647008,0.0535388,11.156741,-0.23197158,0.17787687,-0.09681962,-13.802535,4.4068,-73.07355,26.0
43407,1.1925486,0.5585855,8.718544,-0.119586274,-0.25035906,-0.0874098,-13.444237,5.2651844,-73.538864,23.0
43457,-0.8132653,0.37573066,9.701488,-0.41981304,0.35364535,-0.18062036,-13.18834,5.29982,-73.1202,20.0
43507,-0.16648611,0.9218998,7.9120655,0.026621155,-0.04902424,0.045481823,-13.904642,5.388216,-74.71247,18.0
43557,0.009980793,1.0488601,8.505345,-0.053895008,-0.046893716,0.08676078,-13.958755,6.6071076,-73.67038,16.0
43607,0.930643,1.3650632,8.903793,0.24073912,0.037262097,0.16292712,-12.521244,5.858403,-74.219215,15.0
43657,0.038726527,1.4313382,9.620042,0.23621176,-0.036596175,-0.104631566,-12.727601,5.7030025,-72.90705,
43707,-0.73780775,0.9829845,10.315928,0.35578758,0.018353673,0.13123554,-14.057137,4.716749,-75.095406,14.0
43757,0.19523114,1.0656285,10.586219,0.23266087,-0.014935814,0.23021628,-14.314738,4.6807094,-73.96645,
43807,-0.057491846,1.293199,10.327906,-0.07404625,0.12647793,0.15973133,-13.673599,3.8682442,-73.0641,13.0
43857,-0.037130278,0.041960638,11.912515,-0.5332636,0.010097881,-0.10427648,-14.570751,4.1893163,-73.70919,
43907,-1.2025306,-0.38722923,12.617983,-0.32784528,0.22581375,0.056134455,-15.290278,5.7438345,-74.20937,12.0
43957,0.24154373,0.23439743,10.507966,0.13980542,-0.16922148,0.27140644,-13.85496,5.579115,-73.50113,
44007,0.17007862,0.5673689,8.0773535,-0.107602045,0.032734733,-0.061843477,-14.445238,5.8431196,-73.33831,
44057,-0.67432755,0.20165922,9.141744,-0.0874508,0.16260812,-0.043734,-14.213341,5.6143117,-74.07792,
44107,-0.6611525,0.8763857,7.6198173,0.20505281,-0.06979688,0.17357975,-14.367304,4.6005754,-72.70293,
44157,0.12496376,1.2381029,8.648276,0.26639423,-0.1919471,0.19488503,-14.622993,4.3943477,-73.09381,
44207,0.12695998,1.6537185,8.13245,0.43568236,-0.18511164,0.1256429,-15.13517,4.0648623,-73.25749,
44257,0.2862593,1.1135381,9.846016,0.0034516852,-0.22212958,-0.100903146,-15.904836,3.4083798,-72.03092,
44307,-1.0324516,0.13139185,12.081396,0.079884335,0.042588416,-0.08874138,-16.288675,3.1030922,-72.34646,
44357,0.45713678,1.0552481,10.609375,0.45814165,-0.1406369,0.166478,-16.211794,3.2977169,-72.553154,
44407,1.8049927,1.1063516,10.583025,-0.34941685,-0.083378986,-0.20139298,-16.364733,2.222104,-72.028625,14.0
44457,-0.5218155,-0.23591484,12.473057,-0.5092064,0.33500326,-0.3997983,-16.161291,3.1158473,-71.62121,15.0
44507,0.7617618,0.525448,9.047522,0.12613453,-0.03322283,0.08196709,-15.209805,2.079464,-72.84945,
44557,0.7909067,0.60250264,9.820464,-0.36033583,0.07188317,-0.014172934,-16.416578,2.4700954,-71.82643,17.0
44607,0.2682932,1.0895833,8.282167,-0.02477781,0.15248811,0.0027825122,-15.978998,2.140337,-72.94666,
44657,-0.27508116,1.1893948,8.276978,-0.06765466,0.09638423,-0.013640299,-15.903289,2.5676582,-72.38227,19.0
44707,0.92944527,1.5698767,7.5287895,0.18028541,-0.024700722,0.27708787,-14.902086,2.3006134,-73.15388,
44757,0.78052646,1.9240084,7.4345665,-0.07377992,-0.103885315,0.13789344,-16.312578,1.8735224,-72.38441,21.0
44807,0.2946435,1.2848148,10.581827,-0.4359695,0.35080466,0.051429544,-16.133892,3.5993528,-73.81862,
44857,-0.5266064,-0.25587717,13.314668,0.02156116,-0.26181063,-0.098328754,-16.005632,3.5763462,-73.840965,23.0
44907,0.19283566,1.1087471,9.549376,0.9199334,-0.2792987,0.18654047,-15.364606,2.5965366,-72.627144,27.0
44957,0.9410235,1.1726265,10.899227,-0.08389994,0.45085067,0.20127663,-16.158287,1.9180437,-72.845375,
45007,-1.4899881,-0.3153649,12.035881,-0.3574951,-0.076898634,-0.4650457,-14.899348,0.6721668,-73.59926,
45057,-0.64877576,-0.026709715,10.813788,-0.046349388,-0.107347414,0.00926286,-15.746873,1.4743227,-73.34589,
45107,0.7533777,0.7242728,9.064291,4.3342882E-4,0.00867753,0.12457765,-16.439283,1.1763325,-72.869576,
45157,-0.8268397,0.564175,8.459832,-0.0833673,-0.19549796,-0.287413,-16.00263,0.5453326,-72.774025,29.0
45207,-0.18564993,1.1398883,8.194733,0.009843254,0.0837786,0.17500012,-16.439346,0.59827614,-72.08906,
45257,0.36291465,1.3818316,8.212299,0.23727703,-0.59071076,-0.07409401,-16.310396,0.73489255,-72.93864,32.0
45307,0.27787513,1.4273458,9.139748,0.20354366,-0.39132893,-0.076579615,-16.361706,0.44508934,-72.549644,34.0
45357,1.2556297,1.7850705,8.790408,0.40851814,-0.1121411,0.007931281,-15.848137,-0.47415796,-72.08773,
45407,-0.1341472,1.1327019,9.455952,-0.09721571,0.10827967,-0.4494218,-17.590912,-1.9089718,-71.00532,
45457,-0.007586042,0.54101866,13.070331,-0.18856207,0.044985265,-0.22749195,-16.566263,-0.81974286,-71.48253,
45507,2.3212183,1.559097,10.345872,0.37718165,-0.21840113,-0.05491926,-15.744179,-1.4561024,-72.12536,
45557,0.77733237,0.6623896,12.124913,-0.29056105,0.2870664,-0.44107723,-16.564856,-1.8516045,-71.47056,
45607,0.15091479,0.95543647,9.896719,0.06630222,0.0077898107,-0.2111579,-15.973335,-2.56633,-72.195595,31.0
45657,1.0352455,0.9785927,9.475514,-0.19282314,0.15204424,-0.036010835,-15.025424,-1.98725,-72.20451,
45707,-0.53898305,0.95543647,8.9025955,-0.20001365,0.05288596,-0.19872983,-15.820433,-1.755558,-72.35593,
45757,0.28146833,1.4185623,8.30732,-0.08469888,0.06815474,0.17890608,-14.717559,-2.0816257,-72.247345,29.0
45807,1.0707786,1.7806789,8.041422,0.1600454,-0.01298283,0.16665554,-14.204899,-2.168642,-72.00144,
45857,1.1713886,2.202283,7.6677265,0.3627118,-0.13664216,-0.029086623,-14.7182665,-2.3134117,-71.31609,
45907,0.66873735,2.2585766,8.11169,-0.016965881,0.05359615,-0.10054805,-16.435238,-2.785181,-71.58549,26.0
45957,-0.14372909,1.3279333,11.234594,-0.21306312,0.09824844,-0.16677195,-15.434849,-2.8725243,-71.84332,
46007,-0.36371386,1.1374928,11.5436125,0.21739209,-0.15856884,0.07024919,-14.741941,-3.0635834,-72.159195,24.0
46057,1.09114,2.1962943,11.48612,0.17096436,0.14778319,0.4289767,-14.92234,-2.619835,-71.88509,
46107,1.2332717,1.4177638,10.606181,-0.31275403,0.15532883,-0.15967017,-15.356499,-4.02413,-71.699066,
46157,-1.8564962,-0.24948925,13.000062,-0.53823483,0.103042126,-0.22056773,-14.25554,-2.3226192,-72.387825,22.0
46207,0.22956628,0.56816745,10.005713,0.14513172,-0.11418285,0.3612437,-14.1273575,-2.248129,-72.46288,
46257,0.56293714,0.8584196,8.350439,-0.16858837,-0.00881055,0.039356556,-13.8963175,-2.2243054,-72.74115,21.0
46307,-0.2335595,0.7805665,8.566031,-0.11283959,0.00690209,0.06953902,-14.357695,-2.6189957,-72.38694,
46357,0.12695998,1.090781,8.30732,0.073759064,-0.13504426,0.1424208,-14.15134,-3.0666034,-72.94409,
46407,0.32937792,1.448905,8.400744,0.15276612,-0.01333792,0.13753834,-14.358249,-1.526165,-73.25081,
46457,0.30542314,1.733967,8.758867,0.37150022,-0.10015689,0.13256711,-14.972613,-2.441054,-73.023346,
46507,1.1398481,1.69005,9.374905,0.15258856,-0.049911965,-0.113331206,-13.894979,-3.4964447,-72.365265,
46557,-0.18924318,0.94226134,10.646504,0.14220226,0.07907369,-0.15052667,-14.203911,-2.9536655,-71.91494,19.0
46607,0.96737367,1.3993984,11.613879,0.16412891,-0.17703341,-0.038407676,-13.971072,-3.7256737,-72.8288,
46657,2.3715234,1.9016504,10.828561,-0.013858855,0.22048742,-0.051723473,-13.997066,-3.841956,-72.3638,18.0
46707,0.2567151,0.8676023,10.341878,-0.36619475,0.07774212,-0.5706844,-12.893945,-3.7853527,-72.95608,
46757,-0.3521357,0.4775385,10.551884,-0.46100324,0.3666948,0.054802872,-12.612636,-3.6267154,-72.486626,
46807,1.0464245,0.7478283,9.412435,-0.25088,-0.11533689,-0.051457167,-11.508554,-4.210043,-73.14884,19.0
46857,-0.2024183,1.0296962,9.069082,-0.29198143,0.17539127,-0.05633961,-11.946824,-2.6891873,-72.89362,
46907,0.3325719,1.4025925,8.849496,-0.026908334,0.022881046,0.113924995,-11.509462,-3.5467033,-73.15655,
46957,0.5186207,1.8956618,8.236653,0.2012356,0.04329859,0.12990396,-11.8925705,-3.7411156,-74.27297,21.0
47007,0.7278259,2.134012,8.512532,0.19732964,0.09159054,0.023643924,-10.8169155,-2.7439785,-74.386734,
47057,-0.06348054,1.6812665,10.577036,0.0581352,-0.09500813,-0.10161331,-10.8166685,-2.9885025,-74.30651,
47107,-0.24873088,0.954638,11.52285,0.23168439,-0.0053484407,0.07823867,-10.125139,-3.3782845,-73.12407,23.0
47157,-0.27428266,1.4872327,11.214233,0.43754658,0.027674727,0.29519737,-10.61159,-3.7085369,-73.36449,24.0
47207,0.4842856,1.9886861,9.713466,0.2604465,-0.049556877,0.33869562,-10.5863905,-3.8228798,-72.820854,26.0
47257,-0.87914103,0.04515463,12.457486,-0.628072,0.17379338,-0.100015424,-11.022059,-3.6633084,-73.22045,32.0
47307,-0.7006779,0.39329752,11.000637,-0.043419912,0.0556379,0.21539137,-11.125541,-2.3017883,-74.090004,64.0
47357,1.1737841,0.79853266,8.170777,-0.025132915,-0.31054643,0.16115168,-10.665065,-2.1845436,-73.28029,112.0
47407,-0.399646,0.21842758,9.692704,-0.4325074,0.18613268,-0.09300244,-11.125866,-2.8763676,-73.07739,164.0
47457,-0.16528839,1.0452669,7.070055,0.21472894,-0.111342154,0.07557552,-10.458465,-2.3941905,-74.35608,273.0
47507,-0.32538623,1.4457111,8.131652,0.029284317,-0.033045292,0.15120922,-11.051487,-1.8282795,-72.0817,361.0
47557,0.44555864,1.6836619,8.200721,0.2363893,-0.18892884,0.12511025,-10.869835,-2.481702,-73.230354,461.0
47607,0.4890765,2.012641,8.894212,0.18694332,-0.01680002,0.024709186,-11.126986,-1.9930706,-73.16502,566.0
47657,0.20720853,1.5662835,10.763884,0.037362564,-0.017776525,-0.14528912,-9.743309,-1.623085,-72.79957,682.0
47707,-0.23914897,1.2237301,11.467754,0.104119085,-0.3398412,-0.25731933,-8.971181,-3.4356346,-73.17209,801.0
47757,1.2468462,1.2692442,11.82029,0.044819403,0.10171055,0.067408495,-9.895405,-2.5651882,-73.205154,905.0
47807,1.6189438,0.9785929,11.37513,-0.12171678,-0.21493903,-0.22056772,-9.357602,-2.476366,-72.728516,997.0
47857,-0.901898,0.55898476,10.93516,-0.20693786,0.37033448,-0.29460353,-9.998179,-2.0331967,-73.67817,1073.0
47907,1.0352455,1.0903817,9.536999,-0.015989386,0.0045052543,0.11019658,-9.126289,-1.7566662,-74.12398,1152.0
47957,0.68031555,1.3854249,8.562439,-0.2381856,0.07170563,-0.14635439,-8.921355,-1.87176,-73.80801,
48007,-0.23675351,1.4169654,8.293745,-0.19415472,0.20530741,-0.062376104,-8.355997,-2.1216202,-74.64226,1230.0
48057,0.41082418,1.6980348,8.072563,0.0043393946,-0.011562479,0.088536225,-6.973267,-1.0153618,-74.33694,
48107,0.5234117,1.9447691,7.561128,0.1027875,-0.11427163,0.032432348,-8.281271,-1.078167,-73.95605,
48157,0.5785077,1.839368,9.016381,-0.022114651,-9.098351E-4,-0.030773288,-6.5636153,-0.71200305,-74.1755,1119.0
48207,-0.38926563,1.1207244,10.501577,-0.1504789,0.038061056,-0.10578559,-6.81835,-1.0756779,-75.23518,1012.0
48257,-0.21838814,0.677561,11.985977,0.28574648,-0.15874638,0.19115663,-7.075319,-0.6377246,-75.27244,892.0
48307,0.93184084,1.9842944,10.332697,0.42236653,0.24711901,0.40980196,-6.3592215,0.048475266,-74.46295,764.0
48357,0.6479766,1.113538,10.139063,-0.48372886,0.2648734,-0.18079789,-6.255903,-0.61137646,-74.32377,653.0
48407,-2.1355696,-0.7441555,12.117329,-0.74356437,0.12461371,-0.30126143,-5.668342,0.9457531,-74.30139,540.0
48457,-0.1169796,-0.12173039,10.943143,-0.30298913,0.05696949,0.35059106,-5.2283363,0.48722458,-77.45782,431.0
48507,0.31500503,0.27751604,9.467929,-0.35367793,0.07720949,-0.039472938,-4.590355,1.3811607,-75.82727,353.0
48557,-0.7605648,0.53143674,8.343251,-0.0950852,0.1908376,0.07522043,-4.9741225,1.9191589,-77.26172,296.0
48607,-0.2790736,0.7087022,8.51333,0.0021200944,-0.111608475,0.12511027,-4.130535,3.4368334,-76.845604,265.0
48657,0.43637598,1.0400767,8.496563,0.28042018,-0.21005656,0.20500505,-3.897438,1.6000391,-76.66377,
48707,0.11258711,1.5063965,8.017467,0.1517896,-0.074590564,-0.038407676,-3.7455015,2.930213,-76.598015,
48757,0.17287333,0.86121434,10.13507,-0.028151145,-0.06553583,-0.03609961,-2.9773457,3.0037632,-75.72855,307.0
48807,-0.098214984,0.09905289,10.924379,0.20132437,-0.4823202,-0.21470879,-3.9737787,1.3017387,-76.816986,380.0
48857,0.63120824,0.18888335,11.230602,0.043399055,-0.11294005,0.053737614,-4.3077807,0.9681676,-75.789665,467.0
48907,2.5607662,0.6883406,10.337488,-0.25647262,0.33899796,-0.05518558,-4.0505867,0.7201977,-76.1931,566.0
48957,-0.89471155,-0.38443455,11.418247,-0.4515934,0.009032615,-0.4859959,-2.9248238,2.5538197,-76.289505,688.0
49007,1.0623944,0.10025063,9.560155,-0.3685916,0.28653374,0.19541766,-2.6684885,3.0167866,-76.80438,825.0
49057,-0.078651905,-0.27344403,10.467242,-0.62558645,0.18453479,-0.19606668,-1.4906508,3.851612,-76.37205,945.0
49107,-0.45394355,0.32422787,9.390076,-0.19220173,0.33180746,0.08942393,-1.440012,5.0910826,-77.339516,1067.0
49157,-0.18884392,0.88117665,7.7898965,-0.015989382,-0.025854763,0.10566921,-0.36192957,4.7292504,-77.95336,1166.0
49207,0.2670955,0.71828413,8.865467,0.022626424,-0.036418628,0.23447734,-1.2859869,5.0185537,-77.41223,1247.0
49257,0.28386384,1.0057415,9.210415,0.21756965,-0.2958991,0.13629553,-0.5713482,6.375433,-76.12046,
49307,0.12216905,0.13618281,11.092064,0.21952264,-0.16957654,0.07664078,-1.0565052,5.328455,-76.636284,
49357,-0.5433747,-0.20397516,11.377525,0.4806897,-0.35129276,0.10220711,-1.2344252,4.4366455,-76.93991,
49407,0.733016,0.6236627,10.020086,0.2995949,0.08626422,0.39178124,-1.4398098,3.5687666,-75.61947,
49457,-0.43717518,-0.5417376,12.0394745,-0.4221211,0.3611022,-0.058381367,-1.953743,4.8787875,-76.240685,
49507,-0.3605199,-0.5776697,11.086075,-0.20729293,0.026076837,0.14890116,-0.59525967,5.338935,-76.39279,1079.0
49557,0.8915169,-0.23192239,10.214121,-0.15873468,0.037262104,0.20580399,-1.7495638,5.859221,-76.608086,958.0
49607,-0.083842106,-0.44591847,8.743296,-0.181194,-0.098559,-0.15185826,-1.5960531,6.203581,-76.73723,827.0
49657,-0.55295664,-0.108155996,8.481391,-0.14488627,0.22075374,0.009795498,-0.98219365,6.570385,-75.82341,692.0
49707,-0.17606802,0.49071366,7.1311398,0.21455137,-0.09642846,0.111439385,-1.754179,9.152903,-76.54317,574.0
49757,0.5202177,0.838058,8.257014,0.08734118,-0.11294005,0.076374464,-2.4696667,7.0836864,-76.17588,469.0
49807,0.38327622,0.6188717,9.764969,0.121873476,-0.13974918,-0.12753473,-3.0620003,7.9781065,-74.937065,377.0
49857,0.2551181,0.6520092,10.213323,0.21330859,-0.13744111,-0.2011267,-3.2919586,8.20523,-75.951385,297.0
49907,-0.0023958534,-0.008743644,10.996244,0.08867275,0.001575773,-0.27205548,-3.6753063,7.290371,-75.95032,234.0
49957,0.028346142,0.13298883,11.339196,0.075889595,-0.19789481,-0.2298888,-3.9068305,8.141351,-76.32706,185.0
50007,0.78691435,-0.29979426,12.101758,-0.27760035,0.031048061,-0.2459565,-4.1390915,8.760934,-75.74675,148.0
50057,-0.65516376,-0.90345484,12.126511,-0.11026521,0.094253704,-0.2639772,-5.1928935,10.202608,-75.24797,119.0
50107,1.26601,0.1421715,8.830732,0.217037,0.02607683,0.23767312,-6.7542543,9.371846,-76.670074,97.0
50157,0.7845188,0.4611694,9.08585,-0.153941,0.12488003,-0.047728732,-6.2172074,10.556202,-76.87678,83.0
50207,-0.19762735,0.5182617,8.852291,-0.11053151,0.12851968,-0.12167579,-5.9864707,10.342836,-76.58484,68.0
50257,-0.02275739,0.83007306,8.525309,0.1379412,0.035397887,0.004202865,-6.680369,12.259705,-77.52708,57.0
50307,0.69828165,1.2141482,8.458235,0.3177044,-0.011562481,0.06652077,-6.064065,12.087414,-78.15461,50.0
50357,0.5270049,1.7004304,8.112088,0.1701654,-0.010142126,-0.057582423,-6.577976,13.131818,-78.46322,45.0
50407,-0.13055395,0.8723932,10.791431,0.12684469,-0.05825652,-0.06983295,-7.6814814,14.18991,-78.91563,41.0
50457,-0.538983,0.06671393,11.171114,0.4063876,-0.38112015,-0.040271886,-7.45002,14.425195,-79.84118,37.0
50507,0.030741611,0.7957379,10.690822,0.3047437,0.13615406,0.2852549,-8.527241,14.679103,-79.87092,34.0
50557,0.7988917,0.6643858,11.092063,-0.06445887,0.00823367,-0.0059171543,-8.733647,15.537421,-79.782814,31.0
50607,-1.7115698,-1.1469952,12.255867,-0.32376176,0.055549126,-0.18186314,-9.83282,14.48753,-81.52621,29.0
50657,0.66115177,-0.56569237,11.066911,0.21756963,-0.14223482,0.495822,-9.759639,17.119421,-81.42588,26.0
50707,1.0679837,0.1585406,8.992427,0.07251626,-0.15608324,0.056045685,-9.682124,17.788038,-82.79878,
50757,0.043118253,0.16852176,8.786415,-0.03383255,0.08839475,-0.012841352,-9.810451,18.318485,-83.3498,23.0
50807,-0.13135245,0.6591956,9.080261,-0.023179919,-0.15750359,0.039179016,-10.140447,17.449154,-85.28249,22.0
50857,-0.057491846,0.7518208,7.865354,0.354456,0.017554723,0.042818666,-10.783599,18.963812,-85.238655,
50907,0.4459579,1.3259372,7.427381,0.3265816,-0.19780605,0.069716565,-10.062233,17.939617,-87.06602,
50957,1.1174903,1.4740577,8.306122,-0.0066683255,-0.018930553,-0.03414662,-10.062505,18.305052,-87.27661,20.0
51007,0.6751253,0.69273233,10.490398,0.15258856,-0.069264255,-0.24276073,-11.369258,18.056759,-87.79632,
51057,0.4251971,0.93387717,9.887138,0.118500136,-0.15528429,-0.1864793,-10.776887,17.427183,-89.39933,
51107,1.6668534,0.5849358,11.15155,-0.21652524,0.25209025,-0.1614456,-12.213022,18.085194,-89.98434,
51157,-1.2468469,-0.50820094,12.839565,-0.6703275,0.2351348,-0.57822996,-10.315077,17.671373,-89.95813,
51207,0.013973276,0.18169689,11.520454,0.066657305,0.095496505,0.29910332,-9.59654,18.75927,-91.861626,19.0
51257,1.8361338,0.6643858,9.333782,0.11876645,-0.2010906,0.12963764,-10.415465,18.12335,-92.49369,
51307,0.34534773,0.32702258,9.23437,-0.059931505,0.061763167,-0.101258226,-9.440767,18.156912,-92.85674,
51357,-0.16049743,0.3553691,9.478708,-0.047680974,0.13544388,0.06652078,-9.132813,17.89249,-92.76865,
51407,0.6727299,0.7805665,8.852691,0.13501173,-0.07565583,0.17118292,-8.438641,17.1298,-93.516365,
51457,1.0096939,1.2704419,8.088133,0.09115838,0.009920335,0.113392375,-9.027848,17.090107,-93.94326,
51507,0.4938675,1.4209579,9.106611,-0.18376838,0.16376215,0.037758663,-7.975691,16.393969,-93.88324,
51557,0.06108433,0.7434366,11.61308,0.14566435,0.3706896,0.018051287,-7.588594,16.294058,-96.01337,
51607,0.19203715,1.0328903,9.305436,0.44580236,-0.30095905,0.009529179,-7.201173,13.874208,-95.5372,
51657,,,,-0.0396915,0.083601065,0.017518658,-7.8933578,14.369209,-96.25659,20.0
