Date created: 2021-10-22-21-42-26-209000000
Timestamp,acc_x,acc_y,acc_z,gyro_x,gyro_y,gyro_z,mag_x,mag_y,mag_z,light
31169893,-0.6719321,1.3435041,10.726753,,,,,,,
31169894,,,,0.1542368,-0.1916407,0.19380654,4.4941998,-4.9476223,-50.323814,
31169895,-0.60725415,1.338713,10.674053,,,,,,,
31169898,-0.51383054,1.3722497,10.686029,,,,,,,
31169899,,,,0.19258627,-0.21028282,0.23694973,,,,
31169900,-0.38207918,1.3291311,10.652493,,,,,,,
31169903,-0.21439569,1.2548712,10.621352,,,,,,,
31169904,,,,0.23892523,-0.18897755,0.27370134,2.802002,-4.973303,-50.36561,
31169905,-0.04910767,1.2141482,10.575838,,,,,,,
31169908,0.13773966,1.1542612,10.525533,,,,,,,
31169909,,,,0.29325366,-0.15222596,0.29553923,,,,
31169910,0.37249655,1.1015606,10.345872,,,,,,,
31169913,0.54976195,1.0608375,10.123093,,,,,,,
31169914,,,,0.3321358,-0.119202785,0.29553923,2.6498146,-5.431761,-51.292656,
31169915,0.79170537,1.0201144,9.804494,,,,,,,
31169918,1.0576034,1.0129279,9.392472,,,,,,,
31169919,,,,0.34811476,-0.08032067,0.27583185,,,,
31169920,1.2540326,0.95304096,9.083455,,,,,,,
31169921,,,,,,,,,,313.0
31169923,1.3977613,0.94825006,8.736111,,,,,,,
31169924,,,,0.32947263,-0.023329072,0.23055814,2.3402386,-4.5427113,-50.691597,
31169925,1.5390946,1.008137,8.439071,,,,,,,
31169928,1.6397046,1.0416737,8.163591,,,,,,,
31169929,,,,0.27248105,0.059761476,0.17196864,,,,
31169930,1.6636595,1.1494702,8.000699,,,,,,,
31169933,1.6732414,1.2117527,7.9096704,,,,,,,
31169934,,,,0.20164101,0.16309205,0.10752021,3.10952,-5.9796505,-48.953423,
31169935,1.6804278,1.2476848,7.8641562,,,,,,,
31169938,1.5295126,1.2548712,7.912066,,,,,,,
31169939,,,,0.119615726,0.2696184,0.03827808,,,,
31169940,1.4265071,1.2979898,8.039026,,,,,,,
31169943,1.3019422,1.3147583,8.103704,,,,,,,
31169944,,,,0.03652517,0.35270897,-0.024572466,2.8050327,-6.3161983,-51.43331,
31169945,1.1103039,1.3003854,8.331275,,,,,,,
31169948,0.935434,1.3099674,8.484585,,,,,,,
31169949,,,,-0.034314852,0.3969174,-0.07677038,,,,
31169950,0.74140024,1.3842272,8.649873,,,,,,,
31169953,0.5425755,1.4417187,8.788811,,,,,,,
31169954,,,,-0.09769803,0.3969174,-0.11458723,4.1888084,-5.995735,-51.093086,
31169955,0.35812366,1.4992101,8.879839,,,,,,,
31169958,0.17367181,1.5543061,8.980449,,,,,,,
31169959,,,,-0.15895067,0.36123106,-0.13695778,,,,
31169960,-0.06108506,1.6022156,9.102619,,,,,,,
31169963,-0.27667814,1.67408,9.28228,,,,,,,
31169964,,,,-0.21008334,0.31222895,-0.14334935,0.95651245,-6.021599,-49.62554,
31169965,-0.55694914,1.7866676,9.414031,,,,,,,
31169968,-0.78451955,1.839368,9.548178,,,,,,,
31169969,,,,-0.25535703,0.26748788,-0.12950093,,,,
31169971,-0.94022566,1.9208143,9.780539,,,,,,,
31169973,-1.0456268,1.9711194,10.067997,,,,,,,
31169974,,,,-0.26760757,0.2610963,-0.09647776,4.188286,-5.9887867,-50.628883,
31169976,-1.1749825,1.9447691,10.271612,,,,,,,
31169978,-1.2133102,1.9184189,10.571047,,,,,,,
31169979,,,,-0.23937808,0.2776079,-0.044812474,,,,
31169981,-1.2684063,1.8800912,10.83455,,,,,,,
31169983,-1.3139204,1.8896731,10.983068,,,,,,,
31169984,,,,-0.18185385,0.30743524,0.013777019,2.9553986,-5.399296,-49.42826,
31169986,-1.2731972,1.8537409,11.179499,,,,,,,
31169988,-1.2157056,1.8321817,11.335205,,,,,,,
31169989,,,,-0.09769803,0.34791526,0.07023598,,,,
31169991,-1.1630051,1.7603173,11.45977,,,,,,,
31169993,-1.0743725,1.729176,11.510075,,,,,,,
31169994,,,,0.0035020027,0.38466686,0.11444442,4.0360966,-6.4472466,-51.555946,
31169996,-0.9641805,1.7076168,11.53882,,,,,,,
31169998,-0.8851297,1.67408,11.584333,,,,,,,
31169999,,,,0.1041694,0.3921237,0.15066338,,,,
31170001,-0.82284725,1.6165885,11.593916,,,,,,,
31170003,-0.75577384,1.5567017,11.534029,,,,,,,
31170004,,,,0.19258627,0.36389425,0.1746318,4.4934406,-5.5164127,-48.924355,
31170006,-0.73181903,1.5926337,11.526843,,,,,,,
31170008,-0.7174462,1.6860574,11.605894,,,,,,,
31170009,,,,0.26395893,0.31222895,0.18901287,,,,
31170011,-0.64318633,1.729176,11.567566,,,,,,,
31170013,-0.63120896,1.8202043,11.483724,,,,,,,
31170014,,,,0.33639684,0.24831311,0.20073076,4.3404446,-5.385235,-49.85827,
31170016,-0.5497627,1.8657182,11.407069,,,,,,,
31170018,-0.4275933,1.9064415,11.296877,,,,,,,
31170019,,,,0.40670422,0.18972364,0.20712234,,,,
31170021,-0.346147,1.8753003,11.179499,,,,,,,
31170023,-0.25511882,1.8872776,11.105239,,,,,,,
31170024,,,,0.4732832,0.13592783,0.20392655,3.2629719,-6.6958294,-47.703194,
31170026,-0.17606804,1.8800912,11.042955,,,,,,,
31170028,-0.17127708,1.8896731,10.841736,,,,,,,
31170029,,,,0.5313401,0.06934886,0.19007812,,,,
31170031,-0.111390114,1.9256053,10.647702,,,,,,,
31170033,-0.087435335,1.904046,10.324313,,,,,,,
31170034,,,,0.57395065,-0.012143806,0.16504443,4.034935,-6.721218,-50.15992,
31170036,-0.058689594,1.9160234,10.027273,,,,,,,
31170038,0.027547628,1.9327918,9.701488,,,,,,,
31170039,,,,0.58620113,-0.09044067,0.14054337,,,,
31170041,0.099411994,1.94956,9.323003,,,,,,,
31170043,0.209604,1.9830968,8.994822,,,,,,,
31170044,,,,0.5585043,-0.15275858,0.11444442,2.650547,-7.467695,-49.41189,
31170046,0.31979603,2.0022607,8.625918,,,,,,,
31170048,0.34135532,2.0477746,8.328879,,,,,,,
31170049,,,,0.49405584,-0.19004281,0.07929072,,,,
31170051,0.33416885,2.1076615,8.022258,,,,,,,
31170053,0.34614623,2.1771305,7.8018737,,,,,,,
31170054,,,,0.3976495,-0.19803229,0.036680184,4.0355377,-7.1634445,-50.154793,
31170056,0.37249655,2.2418084,7.6150265,,,,,,,
31170058,0.32937795,2.2609723,7.5000434,,,,,,,
31170059,,,,0.28047052,-0.18365122,-0.0011366699,,,,
31170061,0.23834974,2.3160682,7.4401565,,,,,,,
31170063,0.08024815,2.3615823,7.3706875,,,,,,,
31170064,,,,0.15050837,-0.15275858,-0.037355628,5.5748158,-8.310106,-49.48417,
31170066,-0.001198113,2.404701,7.4712977,,,,,,,
31170068,-0.02036193,2.4286556,7.6653314,,,,,,,
31170069,,,,0.032264117,-0.074994355,-0.057595633,,,,
31170071,0.0083838105,2.4190736,7.914461,,,,,,,291.0
31170074,0.05629337,2.3520005,8.278574,-0.0417717,0.0650878,-0.058660895,2.6500053,-6.4474106,-50.197548,
31170076,0.11618033,2.2489948,8.640291,,,,,,,
31170078,0.104202926,2.1675487,8.954099,,,,,,,
31170079,,,,-0.08225171,0.22221418,-0.052801948,,,,
31170081,0.10899392,2.028611,9.318212,,,,,,,
31170084,0.12576225,1.858532,9.754189,-0.09610014,0.3521763,-0.05919353,3.2669544,-8.485586,-49.075233,
31170086,0.17367181,1.7435489,10.171001,,,,,,,
31170089,0.16888088,1.6836619,10.7051935,-0.07958855,0.42727742,-0.0938146,,,,
31170091,0.13773966,1.678871,11.081284,,,,,,,
31170094,0.051502436,1.7818766,11.371137,-0.03751064,0.43047318,-0.13855566,4.187315,-7.278408,-48.13775,
31170096,-0.025152892,1.9184189,11.514866,,,,,,,
31170099,-0.12336751,2.0334017,11.562775,0.027470434,0.39265636,-0.1710462,,,,
31170101,-0.15450874,2.1388028,11.478932,,,,,,,
31170104,-0.25272334,2.1915033,11.375928,,,,2.64682,-6.115532,-47.725243,
31170105,,,,0.09085361,0.33939317,-0.1912862,,,,
31170106,-0.30781937,2.205876,11.248967,,,,,,,
31170109,-0.20960474,2.0453792,11.148356,,,,,,,
31170110,,,,0.1292031,0.25843316,-0.20992833,,,,
31170111,0.3916604,1.4752553,10.892041,,,,,,,
31170114,-0.056294113,1.6644982,11.23699,,,,2.3414917,-6.5855923,-49.275032,
31170115,,,,0.13026837,0.113557294,-0.24721254,,,,
31170116,-0.5832994,1.9375826,11.404674,,,,,,,
31170119,-0.96897143,2.129221,11.153148,,,,,,,
31170120,,,,0.13133362,-0.03984066,-0.28236622,,,,
31170121,-1.1965418,2.3448138,10.927973,,,,,,,
31170124,-1.301943,2.5436387,10.714776,,,,5.2654934,-7.85865,-48.568504,
31170125,,,,0.16062838,-0.13358384,-0.27917042,,,,
31170126,-1.3977622,2.6849718,10.580628,,,,,,,
31170129,-1.4744173,2.7520452,10.460855,,,,,,,
31170130,,,,0.18566206,-0.1932386,-0.25147358,,,,
31170131,-1.4911858,2.85026,10.360245,,,,,,,
31170134,-1.4312987,2.8646326,10.23568,,,,3.1103249,-6.5692863,-48.94657,
31170135,,,,0.1744768,-0.27206808,-0.21365675,,,,
31170136,-1.4312987,2.9245198,10.139861,,,,,,,
31170139,-1.4145304,2.9628475,9.976968,,,,,,,
31170140,,,,0.13133362,-0.3594197,-0.16678515,,,,
31170141,-1.3881801,2.914938,9.8404255,,,,,,,
31170144,-1.347457,2.8718193,9.735024,,,,5.2634716,-7.2528,-47.49221,
31170145,,,,0.07540729,-0.41428077,-0.117783025,,,,
31170146,-1.2181013,2.8382823,9.751793,,,,,,,
31170149,-1.0144855,3.005966,10.216516,,,,,,,
31170150,,,,0.030133592,-0.43931445,-0.06931354,,,,
31170151,-0.82284725,2.57478,10.276402,,,,,,,
31170154,-0.7485874,2.0932887,10.216516,,,,4.340418,-7.989956,-46.578056,
31170155,,,,-0.002889578,-0.492045,-0.0352251,,,,
31170156,-0.8707568,1.9902831,10.324313,,,,,,,
31170159,-1.2013328,2.0837069,10.386595,,,,,,,
31170160,,,,-0.019401163,-0.5538303,-0.026702993,,,,
31170161,-1.3714119,2.1579666,10.28359,,,,,,,
31170164,-1.2468469,2.059752,10.020087,,,,3.2660465,-6.447338,-50.801277,
31170165,,,,-0.0034222102,-0.568744,0.011646492,,,,
31170166,-1.0072991,1.8968595,9.948223,,,,,,,
31170169,-0.8995026,1.6932439,10.005713,,,,,,,
31170170,,,,0.0024367392,-0.5639503,0.065974936,,,,
31170171,-0.78451955,1.508792,10.1901655,,,,,,,
31170172,,,,,,,,,,263.0
31170174,-0.6407909,1.4273458,10.295567,,,,3.2660465,-6.447338,-50.801277,
31170175,,,,-0.0183359,-0.60283244,0.10219389,,,,
31170176,-0.5856949,1.4273458,10.386595,,,,,,,
31170179,-0.48748025,1.4321368,10.343477,,,,,,,
31170180,,,,-0.050826438,-0.66035664,0.12190126,,,,
31170181,-0.35093796,1.4513005,10.202143,,,,,,,
31170184,-0.116181076,1.4201592,10.115906,,,,3.2647934,-7.154272,-48.781197,
31170185,,,,-0.08118645,-0.69124925,0.1341518,,,,
31170187,0.03712955,1.4297413,10.072787,,,,,,,
31170189,-0.022757411,1.5758654,9.878754,,,,,,,
31170190,,,,-0.119003296,-0.69497776,0.13148864,,,,
31170192,-0.06348054,1.6956394,9.581714,,,,,,,
31170194,0.029943138,1.7267805,9.037941,,,,1.1100807,-6.449911,-48.84295,
31170195,,,,-0.17812543,-0.64970404,0.12989074,,,,
31170197,0.23595428,1.5638881,8.621127,,,,,,,
31170199,0.67432684,1.2979898,8.50854,,,,,,,
31170200,,,,-0.27932546,-0.5575587,0.13042337,,,,
31170202,0.88752437,1.173425,8.484585,,,,,,,
31170204,0.885129,1.3458996,8.65706,,,,2.1895046,-7.1914597,-50.200386,
31170205,,,,-0.42899498,-0.47979447,0.111781254,,,,
31170207,0.8539877,1.3003854,8.570823,,,,,,,
31170209,0.83721936,1.2548712,8.4270935,,,,,,,
31170210,,,,-0.57600135,-0.38764918,0.08301915,,,,
31170212,0.8491968,1.3123628,8.316901,,,,,,,
31170214,0.88273346,1.4297413,8.4270935,,,,1.5734024,-7.7695885,-48.81614,
31170215,,,,-0.6910498,-0.20868492,0.048930716,,,,
31170217,1.0791627,1.5183738,8.676224,,,,,,,
31170219,1.3929703,1.4249502,8.951704,,,,,,,
31170220,,,,-0.74271506,0.07307728,4.612254E-4,,,,
31170222,1.6516821,1.293199,9.375703,,,,,,,243.0
31170224,1.771456,1.0225099,9.931454,,,,1.8778515,-5.406374,-48.83593,
31170225,,,,-0.75869405,0.35803527,-0.057063006,,,,
31170227,1.7307329,0.85482633,10.575838,,,,,,,
31170229,1.5654448,0.64402425,11.205849,,,,,,,
31170230,,,,-0.75603086,0.54925007,-0.12204409,,,,
31170232,1.3235015,0.5386232,11.816696,,,,,,,
31170234,1.1150949,0.4955046,12.434729,,,,3.263668,-6.7050953,-48.32212,
31170235,,,,-0.72354037,0.6254164,-0.17637253,,,,
31170237,0.9833436,0.39968544,13.028808,,,,,,,
31170239,0.8923154,0.33500752,13.505507,,,,,,,
31170240,,,,-0.6558961,0.5934585,-0.2179178,,,,
31170242,0.8539877,0.33979848,13.8552475,,,,,,,
31170244,0.87315154,0.28709796,14.149892,,,,2.956808,-6.43116,-49.416283,
31170245,,,,-0.5530982,0.48160586,-0.24987571,,,,
31170247,0.8515923,0.24158387,14.327157,,,,,,,
31170249,0.82763755,0.15055569,14.358299,,,,,,,
31170250,,,,-0.43751708,0.3282079,-0.2818336,,,,
31170252,0.8635696,0.10504159,14.382253,,,,,,,
31170254,0.88033795,0.035572723,14.276852,,,,3.4175568,-4.2431326,-51.442085,
31170255,,,,-0.32406652,0.17853837,-0.30793256,,,,
31170257,0.935434,-0.024314255,14.159473,,,,,,,
31170259,0.92824745,-0.105760545,14.087609,,,,,,,
31170260,,,,-0.20688754,0.061892007,-0.33136836,,,,
31170262,0.95938873,-0.1416927,14.111564,,,,,,,
31170264,0.99053,-0.28302595,14.18822,,,,2.9575253,-7.45376,-48.785362,
31170265,,,,-0.09769803,-0.047297504,-0.35160837,,,,
31170267,1.0168803,-0.39082244,14.200197,,,,,,,
31170269,1.0216713,-0.48664162,14.286434,,,,,,,
31170270,,,,0.0072304253,-0.17033543,-0.36439154,,,,
31170272,1.1246767,-0.53215563,14.34153,,,,,,,221.0
31170274,1.2684056,-0.58725166,14.346321,,,,2.801939,-5.5513573,-49.58509,
31170275,,,,0.10363677,-0.31095022,-0.37877256,,,,
31170277,1.4073433,-0.58725166,14.2912245,,,,,,,
31170279,1.4887896,-0.5513195,14.159473,,,,,,,
31170280,,,,0.19684732,-0.43611866,-0.39741468,,,,
31170282,1.546281,-0.5632969,13.955858,,,,,,,
31170284,1.6085635,-0.5058055,13.666005,,,,4.645975,-5.062585,-48.306755,
31170285,,,,0.29272103,-0.5069587,-0.41658944,,,,
31170287,1.6468911,-0.5082009,13.404898,,,,,,,
31170289,1.6852187,-0.5417377,13.141395,,,,,,,
31170290,,,,0.38646424,-0.508024,-0.422981,,,,
31170292,1.7139645,-0.4794552,12.822797,,,,,,,
31170294,1.6876142,-0.32614455,12.652718,,,,2.9559212,-5.406246,-49.892464,
31170295,,,,0.46582636,-0.451565,-0.41339362,,,,
31170297,1.5199307,-0.03629166,12.48743,,,,,,,
31170300,1.436089,-0.03629166,12.276628,0.5297422,-0.364746,-0.382501,,,,
31170302,1.4265071,-0.04347807,12.106549,,,,,,,
31170304,,,,,,,3.8805122,-7.2946587,-48.919014,
31170305,1.3115242,0.14097376,11.826278,0.563298,-0.25502387,-0.35001045,,,,
31170307,1.1366543,0.34219396,11.675363,,,,,,,
31170310,1.0120893,0.55778706,11.541216,0.58460325,-0.12985542,-0.31272623,,,,
31170312,0.8971064,0.77577555,11.371137,,,,,,,
31170314,,,,,,,2.956461,-6.426529,-49.106804,
31170315,0.9833436,0.9746003,11.191476,0.59312534,0.01075936,-0.2631915,,,,
31170317,0.9785526,1.1662385,11.066911,,,,,,,
31170320,0.6359992,1.5734699,10.939951,,,,,,,
31170321,,,,0.5851359,0.15297203,-0.20513465,,,,
31170322,0.49466592,1.9208143,11.126798,,,,,,,201.0
31170324,,,,,,,3.4183998,-6.859436,-48.93554,
31170325,0.49466592,2.193899,11.488515,,,,,,,
31170326,,,,0.5766138,0.28346685,-0.13802303,,,,
31170327,0.58569413,2.3400228,11.778368,,,,,,,
31170330,0.8539877,2.4813561,12.056244,,,,,,,
31170331,,,,0.59152746,0.3415237,-0.0804988,,,,
31170332,1.1031175,2.5532207,12.192786,,,,,,,
31170334,,,,,,,3.8804474,-7.872713,-48.138496,
31170335,1.3450608,2.4070964,11.99396,,,,,,,
31170336,,,,0.61336535,0.27547735,-0.07037881,,,,
31170337,1.5917951,2.294509,11.596312,,,,,,,
31170340,1.9295576,2.2489948,11.155544,,,,,,,
31170341,,,,0.6027127,0.13646045,-0.10340196,,,,
31170342,2.6745515,2.0118425,10.494391,,,,,,,
31170344,,,,,,,3.8801632,-7.2900257,-48.609535,
31170345,3.2806075,1.6644982,9.754189,,,,,,,
31170346,,,,0.5318727,-0.015872227,-0.1657199,,,,
31170347,3.0961554,1.9280008,9.002008,,,,,,,
31170350,2.7536023,2.3735597,8.187546,,,,,,,
31170351,,,,0.37687686,-0.13518174,-0.25147358,,,,
31170352,2.331998,2.8382823,7.4521337,,,,,,,
31170354,,,,,,,5.111229,-7.421076,-48.73217,
31170355,2.09245,3.250305,6.7382812,,,,,,,
31170356,,,,0.16329153,-0.14370385,-0.29941043,,,,
31170357,2.0110037,3.506621,6.3023043,,,,,,,
31170360,1.946326,3.5856717,6.1370163,,,,,,,
31170361,,,,-0.09450224,-0.050493296,-0.2908883,,,,
31170362,2.3487663,3.4706888,6.3933325,,,,,,,
31170364,,,,,,,4.188835,-8.890644,-47.499977,
31170365,2.997941,2.9939888,6.7454677,,,,,,,
31170366,,,,-0.39117813,0.036858313,-0.27224624,,,,
31170367,3.4722457,2.4861472,6.999388,,,,,,,
31170370,3.6710706,2.1483848,7.40662,,,,,,,
31170371,,,,-0.6926477,0.05763095,-0.29461676,,,,
31170372,3.678257,1.9423736,7.8905063,,,,,,,178.0
31170374,,,,,,,5.2631607,-6.5250206,-48.119713,
31170375,3.663884,1.7603173,8.362416,,,,,,,
31170376,,,,-0.9493762,0.052837268,-0.35107574,,,,
31170377,3.6327426,1.6141931,8.8103695,,,,,,,
31170380,3.663884,1.5255604,9.188856,,,,,,,
31170381,,,,-1.13633,0.06402254,-0.41925257,,,,
31170382,3.668675,1.3722497,9.627228,,,,,,,
31170384,,,,,,,4.9591217,-8.314812,-49.189903,
31170385,3.5896242,1.3003854,10.118301,,,,,,,
31170386,,,,-1.2748142,0.08479518,-0.48689684,,,,
31170387,3.4195452,1.2644532,10.645307,,,,,,,
31170390,3.1296923,1.3219447,11.124403,,,,,,,
31170391,,,,-1.3776122,0.0869257,-0.54122525,,,,
31170392,2.8470256,1.3411086,11.581939,,,,,,,
31170394,,,,,,,3.7247715,-6.4032745,-48.31414,
31170395,2.5116587,1.3411086,11.9005375,,,,,,,
31170396,,,,-1.4537784,0.07467517,-0.5673242,,,,
31170397,2.2792976,1.293199,12.183204,,,,,,,
31170400,2.111614,1.1830069,12.504198,,,,,,,
31170401,,,,-1.4937258,0.08799096,-0.5657263,,,,
31170402,1.9199758,1.063233,12.791656,,,,,,,
31170404,,,,,,,6.0285587,-4.8710012,-46.726936,
31170405,1.7427102,0.9171088,13.117441,,,,,,,
31170406,,,,-1.4899974,0.12580782,-0.54761684,,,,
31170407,1.5965861,0.787753,13.385734,,,,,,,
31170410,1.436089,0.6775609,13.608514,,,,,,,
31170411,,,,-1.447387,0.17321204,-0.5177895,,,,
31170413,1.2851739,0.6152785,13.879203,,,,,,,
31170414,,,,,,,4.1817284,-3.4411402,-47.872795,
31170415,1.0887446,0.5673689,14.147496,,,,,,,
31170416,,,,-1.3802752,0.21422468,-0.48103786,,,,
31170418,0.9498069,0.59371924,14.336739,,,,,,,
31170420,0.8036827,0.667979,14.499632,,,,,,,
31170421,,,,-1.286532,0.24085627,-0.43150312,,,,
31170422,,,,,,,,,,123.0
31170423,0.7366092,0.7494253,14.674501,,,,,,,
31170424,,,,,,,4.644409,-5.0417385,-46.91416,
31170425,0.7677505,0.7590072,14.66492,,,,,,,
31170426,,,,-1.16669,0.24618259,-0.37397888,,,,
31170428,0.8444058,0.73026145,14.5691,,,,,,,
31170430,0.985739,0.6751655,14.353508,,,,,,,
31170431,,,,-1.0404563,0.23712786,-0.32444414,,,,
31170433,1.1079085,0.57695085,14.106772,,,,,,,
31170434,,,,,,,6.026142,-3.1020918,-46.74749,
31170435,1.1869593,0.4595724,13.783383,,,,,,,
31170436,,,,-0.92594045,0.22008364,-0.29887784,,,,
31170438,1.2420553,0.4643634,13.471971,,,,,,,
31170440,1.1773773,0.47634077,13.194096,,,,,,,
31170441,,,,-0.82740355,0.20783311,-0.2908883,,,,
31170443,1.1198859,0.51227295,12.880288,,,,,,,
31170444,,,,,,,6.4904613,-3.2772427,-49.055367,
31170445,1.1150949,0.49790007,12.631159,,,,,,,
31170446,,,,-0.7411172,0.21955101,-0.2908883,,,,
31170448,1.1079085,0.5050865,12.396401,,,,,,,
31170450,1.095931,0.48352718,12.295792,,,,,,,
31170451,,,,-0.6660161,0.23180154,-0.2951494,,,,
31170453,1.0791627,0.4188493,12.104153,,,,,,,
31170454,,,,,,,6.488182,-2.233797,-48.293694,
31170455,0.9881345,0.43082666,11.898142,,,,,,,
31170456,,,,-0.6175466,0.22008364,-0.3004757,,,,
31170458,0.9018972,0.447595,11.799927,,,,,,,
31170460,0.7964963,0.40926737,11.766391,,,,,,,
31170461,,,,-0.58026236,0.20144153,-0.30580202,,,,
31170463,0.7126545,0.37573066,11.809509,,,,,,,
31170464,,,,,,,5.2581253,-2.8397932,-48.162514,
31170465,0.6264173,0.25356126,11.934073,,,,,,,
31170466,,,,-0.52273816,0.17800573,-0.30633467,,,,
31170468,0.61683536,0.1481602,12.06343,,,,,,,
31170470,0.65995395,0.04275915,12.120922,,,,,,,
31170471,,,,-0.43485394,0.12527518,-0.30473676,,,,
31170473,0.770146,0.03796819,12.096967,,,,,,,
31170474,,,,,,,5.5684795,-4.1733875,-48.91317,
31170475,0.885129,0.047550112,11.91491,,,,,,,
31170476,,,,-0.3251318,0.0400541,-0.3153894,,,,
31170478,1.0096939,0.08827323,11.6298485,,,,,,,
31170480,1.0887446,0.18648785,11.165126,,,,,,,
31170481,,,,-0.21487702,-0.06807014,-0.35214096,,,,
31170483,1.1630045,0.25116578,10.719567,,,,,,,
31170484,,,,,,,6.6435184,-2.8303633,-48.901985,
31170485,1.2133095,0.38052163,10.197351,,,,,,,
31170486,,,,-0.12752542,-0.18951018,-0.40700206,,,,
31170488,1.3091286,0.5146684,9.663161,,,,,,,
31170490,1.3091286,0.60330117,9.116992,,,,,,,
31170491,,,,-0.083316974,-0.30828702,-0.47145048,,,,
31170493,1.2037276,0.6751655,8.633105,,,,,,,
31170494,,,,,,,7.567259,-2.9707146,-49.341667,
31170495,1.0623944,0.7925439,8.161196,,,,,,,
31170496,,,,-0.075860135,-0.41534603,-0.5311053,,,,
31170498,0.83482385,0.8859676,7.8090606,,,,,,,
31170500,0.57850766,1.0033461,7.516812,,,,,,,
31170501,,,,-0.09077382,-0.49577343,-0.56998736,,,,
31170503,0.38926488,1.1662385,7.3131957,,,,,,,
31170504,,,,,,,7.565832,-3.675332,-47.166847,
31170505,0.16648537,1.3075719,7.1047893,,,,,,,
31170506,,,,-0.11154646,-0.5447756,-0.58330315,,,,
31170508,-0.04910767,1.4608824,6.8796144,,,,,,,
31170510,-0.22637309,1.5950292,6.6089253,,,,,,,
31170511,,,,-0.12752542,-0.57620084,-0.5710527,,,,
31170513,-0.4156159,1.67408,6.366982,,,,,,,
31170514,,,,,,,7.7191525,-2.7978077,-47.792244,
31170515,-0.69109595,1.7770857,6.060361,,,,,,,
31170516,,,,-0.15522225,-0.5841903,-0.54016,,,,
31170518,-0.9378302,1.9687239,5.701039,,,,,,,
31170520,-1.1534233,2.0501702,5.4471183,,,,,,,
31170521,,,,-0.20848544,-0.5596893,-0.49062523,,,,
31170523,-1.3738072,2.1435938,5.25548,,,,,,,134.0
31170524,,,,,,,7.2592945,-3.2609377,-48.72692,
31170526,-1.567841,2.2274354,5.085401,-0.27985808,-0.50269765,-0.41552415,,,,
31170528,-1.6995924,2.2322264,4.994373,,,,,,,
31170530,-1.797807,2.174735,4.9488587,,,,,,,
31170531,,,,-0.3592202,-0.42227024,-0.32178098,,,,
31170533,-1.848112,2.0980797,4.9608364,,,,,,,
31170534,,,,,,,6.4877777,-1.9389791,-48.29711,
31170536,-1.8768578,1.9543511,4.8698077,-0.43165815,-0.31521127,-0.21472202,,,,
31170538,-1.8744622,1.7651082,4.8817854,,,,,,,
31170541,-1.8552985,1.6213795,4.9512544,-0.48758447,-0.18258597,-0.1055325,,,,
31170543,-1.8193662,1.4776508,4.9871864,,,,,,,
31170544,,,,,,,5.4113293,-2.2501392,-48.32029,
31170546,-1.73792,1.3315266,5.099774,-0.52433604,-0.04303645,-0.0011366699,,,,
31170548,-1.6636603,1.1662385,5.262666,,,,,,,
31170551,-1.5702364,1.0344872,5.425559,-0.55363077,0.06934886,0.100063354,,,,
31170553,-1.3881801,0.8260807,5.495028,,,,,,,
31170554,,,,,,,8.334681,-1.9225454,-49.025185,
31170556,-1.2061238,0.6152785,5.5213785,,,,,,,
31170557,,,,-0.5818603,0.14658046,0.18954548,,,,
31170558,-1.0528132,0.37333518,5.5309596,,,,,,,
31170561,-0.8731523,0.12660089,5.576474,,,,,,,
31170562,,,,-0.61222035,0.20996363,0.26091817,,,,
31170563,-0.7222371,-0.055455476,5.7513437,,,,,,,
31170564,,,,,,,7.257023,-1.3492508,-49.05863,
31170566,-0.60006773,-0.2423028,6.0268245,,,,,,,
31170567,,,,-0.63885194,0.25363946,0.31524658,,,,
31170568,-0.4587345,-0.44591853,6.343027,,,,,,,
31170571,-0.30781937,-0.6016246,6.671208,,,,,,,
31170572,,,,-0.6399172,0.24511732,0.35040027,,,,
31170573,-0.16169517,-0.7405623,6.9107556,,,,,,,149.0
31170574,,,,,,,7.5640907,-0.90235424,-49.056175,
31170576,-0.025152892,-0.92261875,7.1119757,,,,,,,
31170577,,,,-0.6191445,0.1625594,0.36424872,,,,
31170578,0.07066625,-1.0711384,7.3108006,,,,,,,
31170581,0.11857581,-1.1813303,7.466507,,,,,,,
31170582,,,,-0.5903824,0.028336208,0.36531398,,,,
31170583,0.14253059,-1.2723584,7.476089,,,,,,,
31170584,,,,,,,7.261078,-1.6927109,-52.30462,
31170586,0.099411994,-1.2555902,7.583885,,,,,,,
31170587,,,,-0.56428343,-0.1042891,0.36105293,,,,
31170588,0.08024815,-1.2484037,7.7803144,,,,,,,
31170591,0.041920513,-1.1238389,8.130054,,,,,,,
31170592,,,,-0.5317929,-0.20229335,0.35785714,,,,
31170593,0.017965704,-1.0256243,8.525309,,,,,,,
31170594,,,,,,,6.3351345,-1.8124361,-49.540504,
31170596,0.029943138,-0.9657372,8.83672,,,,,,,
31170597,,,,-0.46894237,-0.27579653,0.36105293,,,,
31170598,-0.02036193,-0.9537598,9.172088,,,,,,,
31170601,-0.013175502,-0.92501414,9.421217,,,,,,,
31170602,,,,-0.3618834,-0.3194723,0.36478135,,,,
31170603,-0.053898618,-0.96813273,9.586505,,,,,,,
31170604,,,,,,,5.718525,-0.6471329,-49.878853,
31170606,-0.053898618,-0.93938696,9.780539,,,,,,,
31170607,,,,-0.20848544,-0.31361336,0.3669119,,,,
31170608,-0.087435335,-0.92022324,10.010505,,,,,,,
31170611,-0.15929969,-0.9154322,10.20933,,,,,,,
31170612,,,,-0.027390638,-0.26141545,0.3706403,,,,
31170613,-0.15690422,-0.8675227,10.46325,,,,,,,
31170614,,,,,,,5.4122066,-1.3934803,-50.187355,
31170616,-0.2024183,-0.8196131,10.645307,,,,,,,
31170617,,,,0.17767258,-0.17406386,0.3839561,,,,
31170618,-0.21200022,-0.774099,10.76508,,,,,,,
31170621,-0.19044091,-0.7285849,10.83455,,,,,,,
31170622,,,,0.40723687,-0.06540698,0.40366346,,,,
31170623,-0.25272334,-0.7261894,10.884855,,,,,,,171.0
31170624,,,,,,,5.256119,-0.49746323,-49.273033,
31170626,-0.27907363,-0.75972605,10.769872,,,,,,,
31170627,,,,0.66023695,0.05443516,0.426034,,,,
31170628,-0.24793239,-0.76212156,10.647702,,,,,,,
31170631,-0.18564996,-0.7908673,10.432109,,,,,,,
31170632,,,,0.8999213,0.158831,0.44148034,,,,
31170633,-0.11857656,-0.83877695,10.09195,,,,,,,
31170634,,,,,,,6.7978306,-1.6765518,-50.768684,
31170636,0.039525032,-0.9465735,9.670347,,,,,,,
31170637,,,,1.1087129,0.21901837,0.44414347,,,,
31170639,0.13773966,-1.049579,9.191251,,,,,,,
31170641,0.19762662,-1.0998842,8.702574,,,,,,,
31170642,,,,1.2615782,0.23872575,0.43402347,,,,
31170644,0.20720854,-1.1789348,8.199524,,,,7.2593384,-1.669548,-50.757286,
31170646,0.15690348,-1.164562,7.6509585,,,,,,,
31170647,,,,1.3521256,0.2227468,0.41218558,,,,
31170649,0.051502436,-1.0998842,7.15749,,,,,,,
31170651,-0.046712205,-1.0184379,6.656835,,,,,,,
31170652,,,,1.3888772,0.19558258,0.3860866,,,,
31170654,-0.16409063,-0.9609463,6.2088804,,,,7.415674,-3.8714008,-50.263603,
31170656,-0.34135604,-0.8675227,5.8519545,,,,,,,
31170657,,,,1.3697023,0.17161416,0.36531398,,,,
31170659,-0.56174004,-0.71181655,5.497423,,,,,,,
31170661,-0.84201103,-0.5585059,5.2770395,,,,,,,
31170662,,,,1.3089824,0.16096152,0.35519397,,,,
31170664,-1.0791634,-0.38363603,5.071028,,,,7.5699406,-4.308978,-50.099922,
31170666,-1.4696264,-0.17283392,5.059051,,,,,,,
31170667,,,,1.2136414,0.17161416,0.35785714,,,,
31170669,-1.848112,0.06431845,5.2099657,,,,,,,
31170671,-2.1355696,0.22960648,5.4567003,,,,,,,
31170672,,,,1.117235,0.17960362,0.3871519,,,,
31170673,,,,,,,,,,190.0
31170674,-2.4373999,0.3493804,5.7824855,,,,6.4943886,-4.7768126,-50.740334,
31170676,-2.6745522,0.4595724,6.079525,,,,,,,
31170677,,,,1.0346771,0.14817835,0.44520876,,,,
31170679,-2.8302581,0.56257796,6.292722,,,,,,,
31170681,-2.9308681,0.6152785,6.5777845,,,,,,,
31170682,,,,0.96223915,0.061892007,0.5235056,,,,
31170684,-2.9164956,0.63923335,6.8412867,,,,6.8021164,-5.0623283,-50.419838,
31170686,-2.7775578,0.65839714,7.095207,,,,,,,
31170687,,,,0.8945949,-0.051025927,0.6087267,,,,
31170689,-2.4757276,0.5458096,7.243727,,,,,,,
31170691,-2.0445414,0.35656685,7.409015,,,,,,,
31170692,,,,0.8349402,-0.15808491,0.6870236,,,,
31170694,-1.567841,0.15774211,7.5311847,,,,8.342445,-5.3546467,-51.77102,
31170696,-1.127073,-0.17043844,7.610235,,,,,,,
31170697,,,,0.7731549,-0.23425125,0.7365583,,,,
31170699,-0.6623502,-0.5153874,7.643772,,,,,,,
31170701,-0.26230526,-0.79326284,7.718032,,,,,,,
31170702,,,,0.7023149,-0.25768703,0.7461457,,,,
31170704,0.13055322,-1.0160424,7.8042693,,,,7.72591,-5.4928646,-50.546623,
31170706,0.3820784,-1.2100761,7.8761334,,,,,,,
31170707,,,,0.6165612,-0.21294598,0.7200467,,,,
31170709,0.5761122,-1.32985,7.9863253,,,,,,,
31170711,0.67432684,-1.3633868,8.082145,,,,,,,
31170712,,,,0.5180243,-0.114409104,0.68009937,,,,
31170714,0.7366092,-1.4544148,8.218687,,,,6.6500645,-6.246252,-50.56466,
31170716,0.78451884,-1.5574205,8.498958,,,,,,,
31170717,,,,0.40404108,0.02247726,0.6380214,,,,
31170719,0.76295954,-1.5813752,8.8630705,,,,,,,
31170721,0.7126545,-1.6149119,9.363726,,,,,,,
31170722,,,,0.28846,0.18865837,0.6034004,,,,
31170723,,,,,,,,,,203.0
31170724,0.6048579,-1.5765843,9.929059,,,,6.189453,-6.4099293,-51.19329,
31170726,0.5186207,-1.545443,10.535115,,,,,,,
31170727,,,,0.19684732,0.3601658,0.5788993,,,,
31170729,0.42998803,-1.4280646,11.124403,,,,,,,
31170731,0.37010103,-1.2891269,11.723271,,,,,,,
31170732,,,,0.1627589,0.5295426,0.5554635,,,,
31170734,0.2862593,-1.2076806,12.274232,,,,9.419334,-7.364971,-49.244713,
31170736,0.21199948,-1.0783247,12.925802,,,,,,,
31170737,,,,0.18246627,0.67335325,0.527234,,,,
31170739,0.06108433,-0.9513644,13.500717,,,,,,,
31170741,-0.03713028,-0.7908673,13.972626,,,,,,,
31170742,,,,0.25224102,0.7654985,0.49421087,,,,
31170744,-0.22158213,-0.6136019,14.363089,,,,7.270096,-7.167694,-53.633858,
31170746,-0.4491526,-0.40519533,14.667315,,,,,,,
31170747,,,,0.3534411,0.7921301,0.45373085,,,,
31170749,-0.7390055,-0.17283392,14.947586,,,,,,,
31170752,-1.0120901,0.061922967,15.1032915,0.46955478,0.75537854,0.4276319,,,,
31170754,-1.2061238,0.22481552,15.237439,,,,7.8821354,-7.1143456,-50.678734,
31170757,-1.4001575,0.3853126,15.297326,0.60058224,0.6653637,0.41964242,,,,
31170759,-1.4552536,0.51227295,15.232648,,,,,,,
31170762,-1.4408808,0.59851015,15.100897,0.73959905,0.5385974,0.4191098,,,,
31170764,-1.3738072,0.6248604,14.878117,,,,8.805702,-7.2523785,-50.963707,
31170767,-1.301943,0.63683784,14.566705,0.8653002,0.39052582,0.41804454,,,,
31170769,-1.2516378,0.63683784,14.121146,,,,,,,
31170772,-1.0911407,0.6272559,13.560604,,,,,,,
31170773,,,,0.9521192,0.21795312,0.40419608,,,,
31170774,-0.8803387,0.62965137,12.985689,,,,8.651024,-7.3882256,-50.037376,
31170777,-0.7294235,0.56976444,12.355678,,,,,,,
31170778,,,,0.9702287,0.024075154,0.37809715,,,,
31170779,-0.5473672,0.60330117,11.689734,,,,,,,
31170782,-0.3701018,0.5386232,11.023792,,,,,,,
31170783,,,,0.89832336,-0.16234596,0.34667188,,,,
31170784,-0.24793239,0.46675885,10.360245,,,,7.5774956,-8.46191,-51.754066,
31170787,-0.07066698,0.37333518,9.6751375,,,,,,,
31170788,,,,0.741197,-0.30881968,0.3157792,,,,
31170789,0.09222555,0.31344822,9.1337595,,,,,,,
31170792,0.23355877,0.2152336,8.647478,,,,,,,
31170793,,,,0.51589376,-0.384986,0.28382134,,,,
31170794,0.434779,0.1481602,8.264201,,,,8.344917,-7.413742,-51.437584,
31170797,0.59527606,0.12899637,8.13245,,,,,,,
31170798,,,,0.24265367,-0.37859443,0.25399393,,,,
31170799,0.7222364,0.10983254,8.108495,,,,,,,
31170802,0.79170537,0.15534665,8.257015,,,,,,,
31170803,,,,-0.05508749,-0.3226681,0.22416654,,,,
31170804,0.8947109,0.20325622,8.527704,,,,7.732712,-9.346346,-51.894722,
31170807,0.9833436,0.1936743,8.807975,,,,,,,
31170808,,,,-0.34803498,-0.2523607,0.1879476,,,,
31170809,1.0264621,0.25116578,9.138551,,,,,,,
31170812,1.0576034,0.27751604,9.505059,,,,,,,
31170813,,,,-0.62287295,-0.18418387,0.14320652,,,,
31170814,1.1031175,0.22242004,9.914686,,,,7.5767994,-8.452646,-51.135124,
31170817,1.1414452,0.19606978,10.314731,,,,,,,
31170818,,,,-0.86948144,-0.11334384,0.09793283,,,,
31170819,1.1150949,0.11941446,10.8177805,,,,,,,
31170822,1.1342587,0.025990784,11.402278,,,,,,,
31170823,,,,-1.078273,-0.040905923,0.05319177,,,,222.0
31170824,1.1438407,0.009222448,12.003543,,,,7.4232807,-8.31452,-51.604836,
31170827,1.1366543,-0.024314255,12.68865,,,,,,,
31170828,,,,-1.2343342,0.020879366,-0.0011366699,,,,
31170829,1.0647899,-0.105760545,13.38813,,,,,,,
31170832,0.91387475,-0.21355706,14.104378,,,,,,,
31170833,,,,-1.3307406,0.072012015,-0.061856687,,,,
31170834,0.7557731,-0.25428018,14.887699,,,,7.7329216,-8.625513,-52.986412,
31170837,0.5617394,-0.25428018,15.680603,,,,,,,
31170838,,,,-1.3568394,0.0986436,-0.12257673,,,,
31170839,0.37249655,-0.26865306,16.473505,,,,,,,
31170842,0.14253059,-0.2638621,17.110703,,,,,,,
31170843,,,,-1.3120984,0.09384992,-0.16998094,,,,
31170844,-0.058689594,-0.32374904,17.776646,,,,8.040001,-7.310377,-54.07737,
31170847,-0.29823744,-0.33333102,18.385098,,,,,,,
31170848,,,,-1.19705,0.056033056,-0.20087358,,,,
31170849,-0.49706215,-0.37644956,18.89294,,,,,,,
31170852,-0.6407909,-0.4411275,19.35287,,,,,,,
31170853,,,,-1.0207489,-0.018535387,-0.21312411,,,,
31170854,-0.80847436,-0.53455114,19.652306,,,,10.959497,-6.7867336,-51.53457,
31170857,-0.93303925,-0.6447432,19.796034,,,,,,,
31170858,,,,-0.7975762,-0.11867016,-0.20673253,,,,
31170859,-1.0144855,-0.7261894,19.79843,,,,,,,
31170862,-1.071977,-0.8339859,19.71938,,,,,,,
31170863,,,,-0.540315,-0.22200072,-0.1859599,,,,
31170864,,,,,,,8.342913,-5.071411,-52.54812,
31170865,-1.1055137,-0.9010594,19.50139,,,,,,,
31170867,-1.0959318,-0.994483,19.161232,,,,,,,
31170868,,,,-0.28092337,-0.31680915,-0.15506727,,,,
31170870,-1.0384402,-1.109466,18.751606,,,,,,,
31170872,-0.9665759,-1.1885167,18.337189,,,,,,,
31170873,,,,-0.03751064,-0.4078892,-0.11458723,,,,
31170874,,,,,,,7.574602,-5.0946655,-53.340782,
31170875,-0.8276382,-1.2340308,17.76946,,,,,,,
31170877,-0.73181903,-1.3562002,17.050816,,,,,,,
31170878,,,,0.17767258,-0.50749135,-0.07623775,,,,
31170880,-0.5761129,-1.4807652,16.253122,,,,,,,
31170882,-0.34854248,-1.5741888,15.388354,,,,,,,
31170883,,,,0.33692947,-0.6017672,-0.045345105,,,,
31170884,,,,,,,8.804043,-4.9146814,-52.38369,
31170885,-0.18325448,-1.6532396,14.511609,,,,,,,
31170887,-0.003593579,-1.761036,13.524672,,,,,,,
31170888,,,,0.42854214,-0.6678135,-0.024039835,,,,
31170890,0.10659844,-1.8185278,12.602413,,,,,,,
31170892,0.3533327,-1.8879966,11.71369,,,,,,,
31170893,,,,0.44398847,-0.6907167,-0.013919831,,,,
31170894,,,,,,,8.956984,-4.7556734,-51.762672,
31170895,0.5162253,-1.9718381,10.899228,,,,,,,
31170897,0.7557731,-2.0125616,10.16142,,,,,,,
31170898,,,,0.39871475,-0.6795314,-0.007528251,,,,
31170900,1.0552078,-2.0676577,9.464335,,,,,,,
31170902,1.44088,-2.1443129,8.760065,,,,,,,
31170903,,,,0.30390632,-0.6305293,-0.007528251,,,,
31170904,,,,,,,8.651527,-6.3818417,-51.751442,
31170905,1.7546877,-2.153895,8.101309,,,,,,,
31170907,2.037354,-2.1491039,7.576699,,,,,,,
31170908,,,,0.17713995,-0.53252506,-0.02936615,,,,
31170910,2.3080432,-2.161081,7.1023936,,,,,,,
31170912,2.437399,-2.1994088,6.7742133,,,,,,,
31170913,,,,0.034927275,-0.38711655,-0.0789009,,,,
31170914,,,,,,,8.651527,-6.3818417,-51.751442,
31170915,2.4350035,-2.1035895,6.553829,,,,,,,
31170917,2.44219,-2.065262,6.450824,,,,,,,
31170918,,,,-0.1072854,-0.2198702,-0.15027358,,,,
31170920,2.3296025,-2.0029795,6.426869,,,,,,,
31170922,2.1379642,-1.9550699,6.474778,,,,,,,
31170923,,,,-0.23032334,-0.06434172,-0.22537465,,,,
31170924,,,,,,,8.95603,-4.308813,-51.458336,254.0
31170925,1.876857,-1.8424824,6.575389,,,,,,,
31170927,1.5486765,-1.7466632,6.6831856,,,,,,,
31170928,,,,-0.32779494,0.056565687,-0.2903557,,,,
31170930,1.155818,-1.5837708,6.7622356,,,,,,,
31170932,0.69588614,-1.4232737,6.8604507,,,,,,,
31170933,,,,-0.3890476,0.1423194,-0.33456412,,,,
31170934,,,,,,,8.648359,-4.3134823,-51.465935,
31170935,0.22397688,-1.2316353,6.920337,,,,,,,
31170937,-0.13534491,-0.97531927,6.951479,,,,,,,
31170938,,,,-0.43698445,0.19504994,-0.3468147,,,,
31170940,-0.55694914,-0.76212156,7.0089703,,,,,,,
31170942,-0.93543476,-0.6136019,7.0832305,,,,,,,
31170943,,,,-0.47906238,0.20996363,-0.3185852,,,,
31170944,,,,,,,9.418758,-4.3180237,-52.530083,
31170945,-1.177378,-0.45070943,7.246123,,,,,,,
31170947,-1.457649,-0.34291288,7.387456,,,,,,,
31170948,,,,-0.51102024,0.20037627,-0.26212624,,,,
31170950,-1.6564738,-0.2423028,7.466507,,,,,,,
31170952,-1.7355245,-0.19439322,7.658145,,,,,,,
31170953,,,,-0.51102024,0.19025625,-0.1859599,,,,
31170954,,,,,,,9.722237,-3.2444305,-50.058723,
31170955,-1.8552985,-0.17283392,7.8881106,,,,,,,
31170957,-1.8888351,-0.17283392,8.146823,,,,,,,
31170958,,,,-0.46361604,0.16628782,-0.10073881,,,,
31170960,-1.7858297,-0.21355706,8.331275,,,,,,,
31170962,-1.7163608,-0.24469826,8.491772,,,,,,,
31170963,,,,-0.37306866,0.08426254,-0.012321937,,,,
31170964,,,,,,,11.261578,-3.813036,-50.168617,
31170965,-1.5822139,-0.23751184,8.367208,,,,,,,
31170967,-1.402553,-0.23751184,8.20671,,,,,,,
31170968,,,,-0.2766623,-0.052091192,0.06277914,,,,
31170970,-1.242056,-0.23751184,7.947998,,,,,,,
31170972,-1.0264629,-0.20157966,7.658145,,,,,,,
31170973,,,,-0.20422438,-0.2150765,0.11284652,,,,
31170974,,,,,,,9.876513,-2.8137655,-50.988472,
31170975,-0.80847436,-0.11055148,7.3155913,,,,,,,
31170978,-0.62402254,-0.057850927,6.9850154,-0.164277,-0.36634392,0.14214127,,,,
31170980,-0.42280233,-0.026709706,6.6544394,,,,,,,
31170983,-0.17127708,0.03796819,6.290327,-0.15042856,-0.46967447,0.15971811,,,,
31170984,,,,,,,9.5692425,-3.1132526,-50.992638,
31170985,0.077852696,0.047550112,5.923818,,,,,,,
31170988,0.30781865,-0.06503737,5.576474,-0.1557549,-0.50962186,0.1661097,,,,
31170990,0.6024625,-0.07461932,5.233921,,,,,,,
31170993,0.935434,-0.1752294,4.9368815,-0.16694017,-0.4851208,0.16078337,,,,
31170994,,,,,,,10.186033,-3.41263,-51.902412,
31170995,1.2396598,-0.19439322,4.6925426,,,,,,,
31170998,1.5295126,-0.2399073,4.405085,,,,,,,
31170999,,,,-0.20156123,-0.41374812,0.1341518,,,,
31171000,1.7187555,-0.32135358,4.1870966,,,,,,,
31171003,1.7930152,-0.32614455,4.1152325,,,,,,,
31171004,,,,-0.25375915,-0.32639652,0.08674757,10.64463,-1.7748623,-51.2909,
31171005,1.8481112,-0.28302595,4.108046,,,,,,,
31171008,1.7978063,-0.21116155,4.182306,,,,,,,
31171009,,,,-0.31554443,-0.24863231,0.033484396,,,,
31171010,1.6780324,-0.16564748,4.2469835,,,,,,,
31171013,1.5343037,-0.07461932,4.3883166,,,,,,,
31171014,,,,-0.37519917,-0.1847165,-0.010724043,10.800928,-1.9500484,-53.296944,
31171015,1.2995467,0.006826967,4.5823503,,,,,,,
31171018,1.040835,0.0595275,4.8242936,,,,,,,
31171019,,,,-0.4172771,-0.12186595,-0.03575773,,,,
31171020,0.83242834,0.05234106,5.099774,,,,,,,
31171023,0.62881273,0.05473654,5.3776493,,,,,,,
31171024,,,,-0.43219075,-0.067004874,-0.026170362,12.027884,-1.4474506,-50.486473,238.0
31171025,0.5186207,0.04275915,5.741762,,,,,,,
31171028,0.3533327,-0.055455476,6.050779,,,,,,,
31171029,,,,-0.41514656,-0.02918802,0.0047222795,,,,
31171030,0.20241755,-0.0985741,6.371773,,,,,,,
31171033,0.03233859,-0.048269033,6.656835,,,,,,,
31171034,,,,-0.36774233,6.393568E-4,0.054257035,10.796871,-1.6065874,-50.050957,
31171035,-0.11857656,-0.031500697,6.9442925,,,,,,,
31171038,-0.20960474,-0.009941369,7.270077,,,,,,,
31171039,,,,-0.28678232,0.035260417,0.119770736,,,,
31171040,-0.2814691,-0.0027549267,7.5575347,,,,,,,
31171043,-0.31740126,0.0595275,7.847388,,,,,,,
31171044,,,,-0.1674728,0.0784036,0.19167602,11.720734,-1.4590693,-50.958275,
31171045,-0.33177415,0.07869133,8.036631,,,,,,,
31171048,-0.36531085,0.124205425,8.161196,,,,,,,
31171049,,,,-0.017270634,0.13006888,0.26571184,,,,
31171050,-0.32937866,0.16253307,8.278574,,,,,,,
31171053,-0.3581244,0.18648785,8.364812,,,,,,,
31171054,,,,0.15530205,0.18972364,0.34134558,11.873413,-0.8624649,-50.651863,
31171055,-0.35093796,0.25356126,8.467817,,,,,,,
31171058,-0.28626004,0.22960648,8.522913,,,,,,,
31171059,,,,0.3507779,0.24245419,0.41165295,,,,
31171060,-0.22637309,0.2942844,8.525309,,,,,,,
31171063,-0.12576298,0.28949344,8.467817,,,,,,,
31171064,,,,0.5569064,0.2642921,0.4659814,13.4126,-2.44209,-49.35717,
31171065,0.0059883296,0.33979848,8.393557,,,,,,,
31171068,0.09462103,0.3853126,8.173173,,,,,,,
31171069,,,,0.75398016,0.23339944,0.5006024,,,,
31171070,0.22876784,0.33021656,7.8402014,,,,,,,
31171073,0.35812366,0.30147082,7.562326,,,,,,,
31171074,,,,0.92388964,0.16149414,0.51232034,12.796112,-0.98891926,-50.163155,207.0
31171075,0.46831566,0.22242004,7.282055,,,,,,,
31171078,0.6767223,0.1601376,7.047298,,,,,,,
31171079,,,,1.0570476,0.04431516,0.506994,,,,
31171080,0.9378295,-0.0051504374,6.8029594,,,,,,,
31171083,1.1534225,-0.1536701,6.553829,,,,,,,
31171084,,,,1.145997,-0.13518174,0.48142773,14.183052,-2.7368155,-50.10842,
31171085,1.4768121,-0.35728577,6.2567897,,,,,,,
31171088,1.7882245,-0.62557936,5.8567452,,,,,,,
31171089,,,,1.1886077,-0.3865839,0.42816454,,,,
31171091,2.1307778,-0.7669126,5.4806547,,,,,,,
31171093,2.4709358,-0.9058503,5.0662374,,,,,,,
31171094,,,,1.1625087,-0.6678135,0.345074,14.17992,-2.6951218,-47.323204,
31171096,2.763184,-0.9537598,4.682961,,,,,,,
31171098,3.053037,-0.9657372,4.347594,,,,,,,
31171099,,,,1.0629066,-0.92827046,0.2348192,,,,
31171101,3.2973757,-1.0639518,4.0697184,,,,,,,
31171103,3.4914095,-1.1262343,3.8421478,,,,,,,
31171104,,,,0.90205175,-1.1285399,0.101661265,12.4889145,-2.5919247,-48.60459,
31171106,3.5704603,-1.0615565,3.5738544,,,,,,,
31171108,3.599206,-1.0831157,3.5067809,,,,,,,
31171109,,,,0.7076412,-1.2244138,-0.036822997,,,,
31171111,3.5393193,-1.0567654,3.5738544,,,,,,,
31171113,3.4770367,-0.9561553,3.722374,,,,,,,
31171114,,,,0.49245796,-1.1967168,-0.16252409,13.106739,-3.7734394,-49.349358,
31171116,3.3021667,-0.7908673,3.9164078,,,,,,,
31171118,3.0338733,-0.6495341,4.287707,,,,,,,
31171119,,,,0.28579682,-1.0640916,-0.2631915,,,,
31171121,2.782348,-0.5896472,4.699729,,,,,,,
31171123,2.5499866,-0.58725166,5.2482934,,,,,,,
31171124,,,,0.10044099,-0.8483757,-0.32178098,14.030058,-2.6056385,-51.04232,189.0
31171126,2.3152294,-0.61839294,5.8974686,,,,,,,
31171128,2.046936,-0.75493515,6.630485,,,,,,,
31171129,,,,-0.040706433,-0.57247245,-0.3334989,,,,
31171131,1.6708459,-0.8315904,7.387456,,,,,,,
31171133,1.2396598,-0.8172176,8.165987,,,,,,,
31171134,,,,-0.11740541,-0.267807,-0.30953044,13.108763,-4.3792896,-50.425636,
31171136,0.7533776,-0.66390705,8.982845,,,,,,,
31171138,0.31260955,-0.5225737,9.873962,,,,,,,
31171139,,,,-0.1088833,0.052304633,-0.25573462,,,,
31171141,-0.06348054,-0.3500993,10.789036,,,,,,,
31171143,-0.33656508,-0.18960229,11.63943,,,,,,,
31171144,,,,-0.009813792,0.33513212,-0.17797041,13.260008,-2.60573,-50.28765,
31171146,-0.57132196,-0.09138766,12.331724,,,,,,,
31171148,-0.82045174,-0.017127812,12.944966,,,,,,,
31171149,,,,0.14677994,0.5140964,-0.08848828,,,,
31171151,-0.9809488,0.011617929,13.347406,,,,,,,
31171153,-1.1198866,0.09066872,13.579768,,,,,,,
31171154,,,,0.30443895,0.5561742,-0.0011366699,14.335642,-2.5731745,-49.177925,
31171156,-1.2061238,0.13139185,13.670795,,,,,,,
31171158,-1.2444514,0.17211498,13.728288,,,,,,,
31171159,,,,0.4322706,0.47308373,0.07769282,,,,
31171161,-1.0408357,0.15774211,13.68996,,,,,,,
31171163,-0.67432755,0.04275915,13.582163,,,,,,,
31171164,,,,0.5265464,0.3026416,0.14853285,14.026863,-3.1420012,-47.476616,
31171166,-0.19283639,-0.2087661,13.479157,,,,,,,
31171168,0.40124232,-0.45070943,13.1917,,,,,,,
31171169,,,,0.5787443,0.072012015,0.19913286,,,,
31171171,0.99532104,-0.70223475,12.906639,,,,,,,
31171173,1.6540775,-0.9968785,12.547317,,,,,,,
31171174,,,,0.57128745,-0.19110808,0.21724235,14.797371,-3.7269115,-47.914955,164.0
31171176,2.3128343,-1.3034997,12.0921755,,,,,,,
31171178,3.0674098,-1.5813752,11.5771475,,,,,,,
31171179,,,,0.48713163,-0.4297271,0.19061075,,,,
31171181,3.8459404,-1.895183,11.193871,,,,,,,
31171183,4.6508207,-2.1682675,10.9136,,,,,,,
31171184,,,,0.34119052,-0.588984,0.12136863,15.41321,-3.5794306,-48.52041,
31171186,5.3646736,-2.460516,10.717171,,,,,,,
31171188,6.035408,-2.735996,10.606978,,,,,,,
31171189,,,,0.15796521,-0.655563,0.0020591207,,,,
31171191,6.64386,-2.9204478,10.556674,,,,,,,
31171193,7.245125,-3.0426173,10.583024,,,,,,,
31171194,,,,-0.054022226,-0.6236051,-0.16465463,14.028273,-4.1738644,-47.464622,
31171196,7.7481747,-3.2126963,10.669262,,,,,,,
31171199,8.1122875,-3.3396566,10.798616,-0.25748754,-0.49896923,-0.36865258,,,,
31171201,8.308717,-3.3444476,11.019001,,,,,,,
31171204,8.351834,-3.3684022,11.330414,-0.43165815,-0.29656914,-0.5918253,15.103039,-4.1297264,-45.58123,
31171206,8.105101,-3.3899615,11.704108,,,,,,,
31171209,7.6882877,-3.3204927,12.094571,-0.5728055,-0.03984066,-0.8027475,,,,
31171211,7.110977,-3.1911368,12.611995,,,,,,,
31171214,6.433057,-3.0426173,13.139,-0.6644182,0.23073627,-0.9758528,14.028622,-4.1784973,-47.7741,
31171216,5.6545267,-2.8893065,13.701937,,,,,,,
31171219,4.77299,-2.735996,14.21457,-0.7006372,0.48480162,-1.0877055,,,,
31171221,3.8579175,-2.561126,14.799067,,,,,,,
31171224,2.938054,-2.3886516,15.433867,,,,14.177641,-1.6516781,-46.561516,142.0
31171225,,,,-0.6894519,0.6808101,-1.1265876,,,,
31171226,1.9630942,-2.1946177,16.150116,,,,,,,
31171229,1.0288576,-1.8975784,16.976557,,,,,,,
31171230,,,,-0.6281993,0.7809449,-1.1106086,,,,
31171231,0.08983007,-1.6149119,17.906002,,,,,,,
31171234,-0.6863049,-1.334641,18.756397,,,,15.100283,-1.4879436,-46.385704,
31171235,,,,-0.47906238,0.7473891,-1.0413666,,,,
31171236,-1.3785982,-1.0519744,19.41755,,,,,,,
31171239,-1.9391402,-0.8172176,19.779266,,,,,,,
31171240,,,,-0.24523702,0.5705553,-0.9241875,,,,
31171241,-2.3104393,-0.61839294,19.757708,,,,,,,
31171244,-2.5667555,-0.52736473,19.431921,,,,17.099682,-1.7408314,-45.559227,
31171245,,,,0.015219902,0.30210894,-0.78144217,,,,
31171246,-2.7727668,-0.44352302,18.701302,,,,,,,
31171249,-2.808699,-0.37165865,17.74311,,,,,,,
31171250,,,,0.2298705,0.009161464,-0.63177264,,,,
31171251,-2.7751622,-0.3453084,16.681913,,,,,,,
31171254,-2.6362245,-0.26146665,15.556038,,,,16.792831,-1.466896,-46.65339,
31171255,,,,0.34332106,-0.24650179,-0.49754947,,,,
31171256,-2.408654,-0.12252888,14.358299,,,,,,,
31171259,-2.2194114,0.021199852,13.292311,,,,,,,
31171260,,,,0.33479896,-0.4302597,-0.3840989,,,,
31171261,-2.0349593,0.19846526,12.298187,,,,,,,
31171264,-1.8792533,0.32063466,11.320832,,,,16.63815,-1.6027431,-45.72706,
31171265,,,,0.22347891,-0.52027446,-0.28822517,,,,
31171266,-1.5941914,0.35656685,10.53751,,,,,,,
31171269,-1.191751,0.27751604,9.81168,,,,,,,
31171270,,,,0.035459906,-0.53412294,-0.18968832,,,,
31171271,-0.7390055,0.07150489,9.131364,,,,,,,
31171274,-0.28865552,-0.2399073,8.594777,,,,16.48399,-1.7455378,-45.26496,
31171275,,,,-0.22659492,-0.48938185,-0.09701039,,,,110.0
31171276,0.2000221,-0.5896472,8.324088,,,,,,,
31171279,0.56892574,-0.8579407,8.20671,,,,,,,
31171280,,,,-0.5349887,-0.39670393,-0.02936615,,,,
31171281,0.8611741,-0.97052824,8.290551,,,,,,,
31171284,1.0360441,-0.88668644,8.5923815,,,,17.713299,-0.84009075,-45.09011,
31171285,,,,-0.8465783,-0.25662175,0.010581229,,,,
31171286,1.1630045,-0.6974437,9.119387,,,,,,,
31171289,1.2372643,-0.39321795,9.900312,,,,,,,
31171290,,,,-1.1027741,-0.07819015,0.0318865,,,,
31171291,1.2540326,-0.18002033,10.693215,,,,,,,
31171294,1.3690156,-0.0051504374,11.490911,,,,17.713593,-0.5545368,-45.712456,
31171295,,,,-1.2833363,0.08799096,0.04413703,,,,
31171296,1.4456708,0.06431845,12.305373,,,,,,,
31171299,1.4696257,0.07390037,13.057554,,,,,,,
31171300,,,,-1.3840038,0.2126268,0.0436044,,,,
31171301,1.5175352,0.04515463,13.759429,,,,,,,
31171304,1.5175352,0.030781746,14.44214,,,,17.712685,-1.2661028,-44.00184,
31171305,,,,-1.4090375,0.29252157,0.029223341,,,,
31171306,1.4648348,-0.017127812,15.031427,,,,,,,
31171309,1.3546427,0.01401341,15.608738,,,,,,,
31171310,,,,-1.3637637,0.34791526,0.012179124,,,,
31171311,1.3043376,0.093064204,16.152512,,,,,,,
31171314,1.2612191,0.20565169,16.727427,,,,18.173431,0.9219246,-46.02764,
31171315,,,,-1.251911,0.37934056,0.0020591207,,,,
31171317,1.26601,0.31344822,17.132263,,,,,,,
31171319,1.2899649,0.38770807,17.580217,,,,,,,
31171320,,,,-1.0750773,0.38466686,-0.0016693012,,,,
31171322,1.2995467,0.42364025,17.939537,,,,,,,
31171324,1.3498517,0.5146684,18.16711,,,,19.092926,2.1406841,-44.31649,
31171325,,,,-0.85137194,0.36389425,-0.009126145,,,,69.0
31171327,1.4073433,0.56976444,18.353956,,,,,,,
31171329,1.3714111,0.6344423,18.428215,,,,,,,
31171330,,,,-0.59837186,0.32075104,-0.025637731,,,,
31171332,1.4097388,0.7158886,18.440193,,,,,,,
31171334,1.4097388,0.76858914,18.361143,,,,18.476418,1.8573742,-42.935646,
31171335,,,,-0.3224686,0.25204158,-0.052269317,,,,
31171337,1.4169251,0.74463433,18.270113,,,,,,,
31171339,1.3977613,0.74463433,18.04973,,,,,,,
31171340,,,,-0.034847483,0.13592783,-0.08795565,,,,
31171342,1.436089,0.6919338,17.613754,,,,,,,
31171344,1.5007669,0.66558355,17.120285,,,,18.173832,0.6271057,-46.024223,
31171345,,,,0.24105576,-0.038242765,-0.13589251,,,,
31171347,1.5271173,0.617674,16.411224,,,,,,,
31171349,1.5534675,0.6488152,15.546455,,,,,,,
31171350,,,,0.4748811,-0.2454365,-0.20140623,,,,
31171352,1.5343037,0.74463433,14.676897,,,,,,,
31171354,1.491185,0.7590072,13.661214,,,,17.096169,0.33216095,-44.964256,
31171355,,,,0.6373338,-0.43398815,-0.2818336,,,,
31171357,1.4744166,0.7973349,12.6072035,,,,,,,
31171359,1.4049478,0.787753,11.531633,,,,,,,
31171360,,,,0.7257507,-0.56022185,-0.3590652,,,,
31171362,1.2995467,0.7805666,10.453669,,,,,,,
31171364,1.151027,0.81170774,9.452359,,,,19.70673,2.025776,-42.752235,
31171365,,,,0.7342728,-0.60283244,-0.42990524,,,,
31171367,0.9330385,0.82368517,8.542076,,,,,,,
31171369,0.68151325,0.8691993,7.6653314,,,,,,,
31171370,,,,0.674618,-0.54690605,-0.49435365,,,,
31171372,0.47789764,0.9171088,6.872428,,,,,,,
31171374,0.21199948,0.9242953,6.2639766,,,,19.251228,-0.37683296,-45.211967,
31171375,,,,0.5696896,-0.40682393,-0.53430104,,,,18.0
31171377,-0.02036193,0.95064545,5.7130165,,,,,,,
31171379,-0.33416963,1.0105325,5.1908026,,,,,,,
31171380,,,,0.4280095,-0.21294598,-0.54601896,,,,
31171382,-0.7390055,1.0225099,4.800339,,,,,,,
31171384,-1.0408357,1.0823969,4.452995,,,,18.78928,-0.81216717,-44.28985,
31171385,,,,0.25809997,-4.2590674E-4,-0.5220505,,,,
31171387,-1.3714119,1.0608375,4.218238,,,,,,,
31171389,-1.6301235,0.9817867,4.108046,,,,,,,
31171390,,,,0.07434202,0.20197415,-0.4645263,,,,
31171392,-1.8457165,0.9290862,4.0505543,,,,,,,
31171394,-1.9247674,0.8452444,4.1655374,,,,18.632442,0.3833027,-43.069466,
31171395,,,,-0.11580751,0.36389425,-0.38356626,,,,
31171397,-1.967886,0.6991203,4.3883166,,,,,,,
31171399,-2.0565186,0.5745554,4.6805654,,,,,,,
31171400,,,,-0.2947718,0.46456164,-0.2908883,,,,
31171402,-2.0613096,0.44280407,5.0566554,,,,,,,
31171404,-2.1164055,0.36375326,5.4351406,,,,18.635826,-0.095986366,-45.540062,
31171405,,,,-0.43538657,0.51995534,-0.19501464,,,,
31171407,-2.1715016,0.33500752,5.835186,,,,,,,
31171409,-2.1954565,0.37812614,6.3190722,,,,,,,
31171410,,,,-0.52273816,0.5513806,-0.08529249,,,,
31171412,-2.2122247,0.39249903,6.7430725,,,,,,,
31171414,-2.1667106,0.38770807,7.059275,,,,19.247036,0.69209003,-42.748222,
31171415,,,,-0.5515003,0.57801217,0.03827808,,,,
31171417,-1.9942362,0.47634077,7.2940326,,,,,,,
31171419,-1.8313438,0.447595,7.58149,,,,,,,
31171420,,,,-0.54244554,0.6232859,0.17143603,,,,
31171422,-1.5582591,0.48831815,7.8497834,,,,,,,
31171424,,,,,,,17.862564,0.38089466,-42.469536,
31171425,-1.2204967,0.49790007,8.113286,-0.499835,0.70690906,0.29394132,,,,16.0
31171427,-0.8659659,0.43322214,8.439071,,,,,,,
31171430,-0.52101696,0.41645378,8.779229,-0.4146139,0.80011964,0.38289082,,,,
31171432,-0.12097203,0.3158437,9.128969,,,,,,,
31171434,,,,,,,20.01691,0.69449806,-43.348167,
31171435,0.24074522,0.16492856,9.476313,-0.2846518,0.86137223,0.43988243,,,,
31171437,0.48987502,0.05713202,9.794911,,,,,,,
31171440,0.6863043,0.061922967,10.03446,-0.12752542,0.8869386,0.4713077,,,,
31171442,0.8491968,0.009222448,10.333895,,,,,,,
31171444,,,,,,,20.78696,0.6945896,-44.10282,
31171445,0.9785526,-0.01233685,10.580628,,,,,,,
31171446,,,,0.05783044,0.8970586,0.48888457,,,,
31171447,1.1126994,0.03796819,10.815386,,,,,,,
31171450,1.1246767,0.03796819,11.009419,,,,,,,
31171451,,,,0.26821998,0.90451545,0.4894172,,,,
31171452,1.1342587,0.07390037,11.244176,,,,,,,
31171454,,,,,,,20.479313,0.5448284,-43.953987,
31171455,1.1294677,0.09066872,11.414255,,,,,,,
31171456,,,,0.5116327,0.8885365,0.46331823,,,,
31171457,0.9785526,0.081086814,11.579543,,,,,,,
31171460,0.83242834,0.13378733,11.644221,,,,,,,
31171461,,,,0.76729596,0.82621855,0.4239035,,,,
31171462,0.62881273,0.21044263,11.546007,,,,,,,
31171464,,,,,,,20.171837,-0.47549057,-42.866463,
31171465,0.45154732,0.23200196,11.347182,,,,,,,
31171466,,,,1.0224266,0.7319427,0.38289082,,,,
31171467,0.25751355,0.27272508,11.030979,,,,,,,
31171470,0.077852696,0.36375326,10.628538,,,,,,,
31171471,,,,1.2546539,0.6344711,0.35785714,,,,
31171472,-0.02036193,0.40926737,10.194957,,,,,,,
31171474,,,,,,,21.403252,-0.61117077,-43.29856,
31171475,-0.008384541,0.4188493,9.655973,,,,,,,
31171476,,,,1.4565215,0.5487174,0.34880242,,,,
31171477,0.08983007,0.4044764,9.071477,,,,,,,
31171480,0.18564922,0.36614874,8.410325,,,,,,,
31171481,,,,1.6141804,0.47627953,0.345074,,,,
31171482,0.32698244,0.33261204,7.775523,,,,,,,
31171484,,,,,,,19.250671,-1.0930309,-43.810814,
31171485,0.48987502,0.23918839,7.068857,,,,,,,
31171486,,,,1.7148478,0.41928792,0.329095,,,,
31171487,0.59288055,0.2152336,6.3478184,,,,,,,
31171490,0.72702736,0.18648785,5.80644,,,,,,,
31171491,,,,1.7478709,0.38093844,0.29820237,,,,
31171492,0.87075615,0.14097376,5.3273444,,,,,,,
31171494,,,,,,,20.942425,-1.4956818,-42.835487,
31171495,0.87075615,0.07629584,4.793153,,,,,,,
31171496,,,,1.7217721,0.36442688,0.2545266,,,,
31171497,0.9090837,0.023595303,4.4026895,,,,,,,
31171500,0.88273346,0.009222448,3.9691083,,,,,,,
31171501,,,,1.646671,0.35963318,0.20978549,,,,
31171502,0.82524204,0.018804371,3.652905,,,,,,,
31171504,,,,,,,18.9449,-1.9914207,-44.42707,
31171505,0.6575585,0.023595303,3.4133573,,,,,,,
31171506,,,,1.5273615,0.36495948,0.17143603,,,,
31171507,0.5042479,0.01401341,3.1929734,,,,,,,
31171510,0.29823667,0.035572723,3.0348716,,,,,,,
31171511,,,,1.381953,0.40437424,0.14320652,,,,
31171512,0.08024815,0.025990784,2.946239,,,,,,,
31171514,,,,,,,19.869144,-3.8752003,-43.144157,
31171515,-0.113785595,-0.03629166,2.8887477,,,,,,,
31171516,,,,1.2136414,0.48959532,0.13308652,,,,
31171517,-0.32937866,-0.0865967,3.056431,,,,,,,
31171520,-0.5856949,-0.16564748,3.557086,,,,,,,
31171521,,,,1.0490581,0.6099701,0.14533705,,,,
31171522,-0.84440655,-0.26625755,4.1296053,,,,,,,
31171524,,,,,,,20.177635,-3.5919266,-44.22312,
31171525,-1.127073,-0.42915013,4.8602257,,,,,,,
31171526,,,,0.91536754,0.7340733,0.18155602,,,,
31171527,-1.46244,-0.498619,5.684271,,,,,,,
31171530,-1.7235471,-0.5848563,6.592157,,,,,,,
31171531,,,,0.8466581,0.8416649,0.23322129,,,,
31171532,-2.0756826,-0.6447432,7.4736934,,,,,,,
31171534,,,,,,,21.406994,-2.9766655,-43.735374,
31171535,-2.4158404,-0.7309804,8.419908,,,,,,,
31171536,,,,0.8589086,0.90877646,0.30406132,,,,
31171538,-2.758394,-0.8196131,9.265511,,,,,,,
31171540,-3.148857,-0.7884718,10.029669,,,,,,,
31171541,,,,0.94892335,0.9125049,0.38768452,,,,
31171543,-3.5369246,-0.75253975,10.781849,,,,,,,
31171544,,,,,,,18.793915,-4.2025747,-44.250465,
31171545,-3.7836587,-0.6950482,11.349578,,,,,,,
31171546,,,,1.0890055,0.84273016,0.49048245,,,,
31171548,-3.9417603,-0.5944381,11.716085,,,,,,,
31171550,-3.9920652,-0.53694665,12.056244,,,,,,,
31171551,,,,1.2471972,0.7058438,0.6103246,,,,
31171553,-3.8938508,-0.4602913,12.216741,,,,,,,
31171554,,,,,,,19.257729,-5.3841095,-44.84429,
31171555,-3.7189808,-0.32614455,12.329328,,,,,,,
31171556,,,,1.4101825,0.5364669,0.72377515,,,,
31171558,-3.4506872,-0.23751184,12.33891,,,,,,,
31171560,-3.0865746,-0.13929722,12.235905,,,,,,,
31171561,,,,1.5705047,0.35164368,0.812192,,,,
31171563,-2.6410155,-0.1416927,12.03708,,,,,,,
31171564,,,,,,,18.640766,-5.0824137,-43.779793,
31171565,-2.0445414,-0.15127462,11.749621,,,,,,,
31171566,,,,1.715913,0.17054889,0.86598784,,,,
31171568,-1.3354796,-0.22553441,11.289691,,,,,,,
31171570,-0.681514,-0.36447218,10.690821,,,,,,,
31171571,,,,1.8181783,0.014487783,0.8702489,,,,
31171573,0.022756696,-0.5489241,10.00811,,,,,,,
31171574,,,,,,,19.71951,-6.8280334,-43.268456,
31171575,0.70546806,-0.87950015,9.217602,,,,,,,
31171576,,,,1.8410815,-0.10801752,0.81751835,,,,
31171578,1.2731965,-1.2220535,8.398348,,,,,,,
31171580,1.7594786,-1.4568104,7.564721,,,,,,,
31171581,,,,1.7590563,-0.19110808,0.71898144,,,,
31171583,2.157128,-1.6220983,6.697558,,,,,,,
31171584,,,,,,,16.954739,-8.374256,-45.33126,
31171585,2.5547774,-1.7274994,5.923818,,,,,,,
31171586,,,,1.5566562,-0.21347861,0.593813,,,,
31171588,2.9021218,-1.7706181,5.4231634,,,,,,,
31171590,3.0937603,-1.8065501,5.1764293,,,,,,,
31171591,,,,1.248795,-0.16128069,0.45479614,,,,
31171593,3.1799972,-1.8185278,5.205175,,,,,,,
31171594,,,,,,,16.954445,-8.659813,-44.7089,
31171595,3.1057374,-1.7418724,5.3728585,,,,,,,
31171596,,,,0.87648547,-0.038242765,0.30086556,,,,
31171598,2.8015118,-1.559816,5.861536,,,,,,,
31171600,2.4206307,-1.3538048,6.68079,,,,,,,
31171601,,,,0.52228534,0.16042888,0.16184865,,,,
31171603,1.8457158,-1.0974886,7.70845,,,,,,,
31171604,,,,,,,16.953384,-7.632578,-45.030342,
31171605,1.1893548,-0.8220086,8.973263,,,,,,,
31171606,,,,0.26502421,0.42088583,0.05851809,,,,
31171608,0.53538907,-0.5201783,10.408154,,,,,,,
31171610,-0.13055395,-0.18720677,11.9268875,,,,,,,
31171611,,,,0.1494431,0.66855955,0.006320175,,,,
31171613,-0.80847436,0.09066872,13.311474,,,,,,,
31171614,,,,,,,16.954445,-8.659813,-44.7089,
31171615,-1.4169259,0.337403,14.5882635,,,,,,,
31171616,,,,0.17287889,0.82675123,0.006320175,,,,
31171618,-1.903208,0.44519955,15.551247,,,,,,,
31171620,-2.2673206,0.62965137,16.329777,,,,,,,
31171621,,,,0.3087,0.8698944,0.04413703,,,,
31171623,-2.473332,0.63923335,16.938229,,,,,,,
31171624,,,,,,,17.571922,-9.836693,-45.144203,
31171625,-2.5260324,0.6775609,17.290363,,,,,,,
31171626,,,,0.5095022,0.8065112,0.100595996,,,,
31171628,-2.3823037,0.6919338,17.41972,,,,,,,
31171630,-2.169106,0.68953836,17.304737,,,,,,,
31171631,,,,0.7278812,0.64672166,0.15332654,,,,
31171633,-1.8792533,0.6919338,16.945415,,,,,,,
31171634,,,,,,,16.032948,-10.286053,-44.093925,
31171635,-1.4289032,0.617674,16.31301,,,,,,,
31171636,,,,0.9121718,0.42727742,0.18155602,,,,
31171638,-1.0264629,0.5961147,15.366795,,,,,,,
31171640,-0.64318633,0.5793463,14.365485,,,,,,,
31171641,,,,1.0192307,0.20996363,0.17356655,,,,
31171643,-0.17367256,0.5434141,13.335429,,,,,,,
31171644,,,,,,,16.032948,-10.286053,-44.093925,
31171645,0.23834974,0.4595724,12.252673,,,,,,,
31171646,,,,1.0192307,0.037390944,0.12669495,,,,
31171648,0.68151325,0.2703296,11.18908,,,,,,,
31171651,1.1342587,0.11941446,10.281194,0.90258443,-0.092038564,0.05265914,,,,
31171653,1.4456708,-0.050664514,9.363726,,,,,,,
31171654,,,,,,,17.721539,-8.620344,-42.83309,
31171656,1.5989815,-0.16085654,8.563636,0.654378,-0.19217333,-0.044279844,,,,
31171658,1.5989815,-0.20157966,8.053399,,,,,,,
31171661,1.6253318,-0.12013337,7.765941,0.31775475,-0.24596915,-0.1508062,,,,
31171663,1.6756369,-0.055455476,7.658145,,,,,,,
31171664,,,,,,,15.570059,-9.406288,-43.96087,
31171666,1.6492866,-0.08899215,7.8114552,-0.047630645,-0.24809967,-0.25147358,,,,
31171668,1.7283374,0.0020360053,8.012676,,,,,,,
31171671,1.7498968,-0.024314255,8.364812,,,,,,,
31171672,,,,-0.39330864,-0.21134809,-0.34628204,,,,
31171673,1.7043827,-0.11773792,8.760065,,,,,,,
31171674,,,,,,,15.263199,-9.132349,-45.055016,
31171676,1.5726312,-0.108155996,9.174483,,,,,,,
31171677,,,,-0.6990393,-0.13944279,-0.4378947,,,,
31171678,1.321106,-0.163252,9.747002,,,,,,,
31171681,1.0120893,-0.12013337,10.348267,,,,,,,
31171682,,,,-0.9445825,-0.041971184,-0.5252463,,,,
31171683,0.5809032,-0.08899215,11.004629,,,,,,,
31171684,,,,,,,16.033104,-9.275036,-45.498512,
31171686,0.1329487,-0.03389615,11.7352495,,,,,,,
31171687,,,,-1.1294057,0.052837268,-0.5902274,,,,
31171688,-0.22397761,0.011617929,12.425147,,,,,,,
31171691,-0.65516376,0.04275915,13.100672,,,,,,,
31171692,,,,-1.2460521,0.12474255,-0.6179242,,,,
31171693,-1.0767679,0.08827323,13.76422,,,,,,,
31171694,,,,,,,16.031557,-7.5177097,-46.292717,
31171696,-1.46244,0.124205425,14.403812,,,,,,,
31171697,,,,-1.2929237,0.16096152,-0.6136632,,,,
31171698,-1.8864398,0.17930141,14.978726,,,,,,,
31171701,-2.343976,0.282307,15.551247,,,,,,,
31171702,,,,-1.2796079,0.17214678,-0.58596635,,,,
31171703,-2.7464166,0.41166285,16.020761,,,,,,,
31171704,,,,,,,16.032656,-7.8217907,-46.90824,
31171706,-3.0626197,0.5218549,16.461529,,,,,,,
31171707,,,,-1.1991805,0.18492995,-0.53483367,,,,
31171708,-3.3069584,0.61288303,16.832829,,,,,,,
31171711,-3.520156,0.64162874,17.034048,,,,,,,
31171712,,,,-1.059631,0.20357205,-0.45174313,,,,
31171713,-3.584834,0.6104876,17.158611,,,,,,,
31171714,,,,,,,14.495392,-8.149221,-47.56173,
31171716,-3.5489018,0.5386232,17.132263,,,,,,,
31171717,,,,-0.87906885,0.22381206,-0.3489452,,,,
31171718,-3.469851,0.42124474,16.976557,,,,,,,
31171721,-3.369241,0.32542562,16.705868,,,,,,,
31171722,,,,-0.68678874,0.24085627,-0.24082097,,,,
31171723,-3.2231166,0.20804717,16.279472,,,,,,,
31171724,,,,,,,15.4163685,-6.5160294,-47.7125,
31171726,-3.029083,0.06910941,15.874636,,,,,,,18.0
31171727,,,,-0.51208556,0.2493784,-0.14761041,,,,
31171728,-2.7655802,0.01640886,15.488964,,,,,,,
31171731,-2.4877048,0.030781746,15.1296425,,,,,,,
31171732,,,,-0.372536,0.2227468,-0.074107215,,,,
31171733,-2.1834788,0.081086814,14.736784,,,,,,,
31171734,,,,,,,14.647846,-7.2601166,-47.413475,
31171736,-1.8600894,0.093064204,14.348717,,,,,,,
31171737,,,,-0.26547703,0.14178677,-0.020311411,,,,
31171738,-1.5247225,0.093064204,13.862433,,,,,,,
31171741,-1.1103047,0.07150489,13.309079,,,,,,,
31171742,,,,-0.18398437,0.024075154,0.02283176,,,,
31171743,-0.5856949,0.033177227,12.779677,,,,,,,
31171744,,,,,,,15.259182,-5.3159304,-46.18267,
31171746,0.0035928488,0.006826967,12.238299,,,,,,,
31171747,,,,-0.13125382,-0.0824512,0.04094124,,,,
31171748,0.46831566,-0.09378314,11.569962,,,,,,,
31171751,1.0120893,-0.16085654,10.9136,,,,,,,
31171752,,,,-0.11261172,-0.15542175,0.019103337,,,,
31171753,1.4049478,-0.27104858,10.297962,,,,,,,
31171754,,,,,,,15.260471,-6.635662,-45.703056,
31171756,1.721151,-0.26865306,9.778144,,,,,,,
31171757,,,,-0.13338436,-0.18098806,-0.05067142,,,,
31171758,1.872066,-0.26865306,9.406844,,,,,,,
31171761,1.9223711,-0.29500332,9.167296,,,,,,,
31171762,,,,-0.19303912,-0.17832492,-0.1508062,,,,
31171764,1.8529022,-0.25188467,9.025963,,,,15.260481,-5.7674217,-46.796455,
31171766,1.7403147,-0.16564748,9.049918,,,,,,,
31171767,,,,-0.2702707,-0.17779228,-0.25040832,,,,
31171769,1.551072,-0.03868714,9.236765,,,,,,,
31171771,1.4169251,-0.019523293,9.299047,,,,,,,
31171772,,,,-0.3357844,-0.22785966,-0.33403152,,,,
31171774,1.2420553,0.01640886,9.337376,,,,14.336834,-5.194109,-46.980843,
31171776,1.0120893,0.0020360053,9.315816,,,,,,,26.0
31171777,,,,-0.37892762,-0.34344074,-0.40274101,,,,
31171779,0.83961487,-0.019523293,9.219996,,,,,,,
31171781,0.600067,-0.07461932,9.1337595,,,,,,,
31171782,,,,-0.41195077,-0.5085566,-0.45653683,,,,
31171784,0.36770558,-0.03629166,8.949307,,,,14.339268,-5.2265368,-49.147102,
31171786,0.08503914,0.023595303,8.860675,,,,,,,
31171787,,,,-0.4428434,-0.67899877,-0.4815705,,,,
31171789,-0.14971778,0.10025062,8.625918,,,,,,,
31171791,-0.41082495,0.17451046,8.477399,,,,,,,
31171792,,,,-0.46414867,-0.80736303,-0.48050523,,,,
31171794,-0.64318633,0.25835222,8.417512,,,,13.723549,-5.08615,-49.009285,
31171796,-0.8491975,0.2679341,8.314507,,,,,,,
31171797,,,,-0.47693184,-0.873942,-0.44694945,,,,
31171799,-1.0336494,0.27272508,8.106099,,,,,,,
31171801,-1.237265,0.2607477,7.952789,,,,,,,
31171802,,,,-0.48012763,-0.868083,-0.38676205,,,,
31171804,-1.402553,0.3038663,7.8042693,,,,14.7997055,-5.060543,-48.363747,
31171806,-1.5654457,0.3709397,7.751569,,,,,,,
31171807,,,,-0.47746447,-0.7956452,-0.3068673,,,,
31171809,-1.6612648,0.36854422,7.6365857,,,,,,,
31171811,-1.73792,0.40208092,7.6389813,,,,,,,
31171812,,,,-0.47639918,-0.6805967,-0.21259147,,,,
31171814,-1.8217617,0.3853126,7.6653314,,,,13.107298,-5.8070545,-47.31385,
31171816,-1.9606996,0.34458944,7.737196,,,,,,,
31171817,,,,-0.46148553,-0.5453082,-0.117783025,,,,
31171819,-2.0349593,0.3038663,7.950393,,,,,,,
31171821,-2.1211967,0.2679341,8.165987,,,,,,,
31171822,,,,-0.42899498,-0.4169439,-0.017115623,,,,
31171824,-2.142756,0.24397933,8.407929,,,,13.724014,-4.8029137,-49.78637,
31171826,-2.137965,0.1601376,8.724133,,,,,,,47.0
31171827,,,,-0.36880758,-0.31467864,0.085149676,,,,
31171829,-2.1259875,0.093064204,9.035544,,,,,,,
31171831,-2.0661006,-0.024314255,9.236765,,,,,,,
31171832,,,,-0.26867282,-0.24330598,0.19380654,,,,
31171834,-1.9415357,-0.14408818,9.50985,,,,13.722853,-5.076885,-48.390343,
31171836,-1.7355245,-0.218348,9.888336,,,,,,,
31171837,,,,-0.13871068,-0.21188071,0.2902129,,,,
31171839,-1.407344,-0.30458525,10.103929,,,,,,,
31171841,-0.94022566,-0.38124058,10.106324,,,,,,,
31171842,,,,0.02054622,-0.25608915,0.36424872,,,,
31171844,-0.43717518,-0.5010145,9.929059,,,,13.414173,-4.344509,-48.4065,
31171846,0.015570253,-0.57766986,9.608065,,,,,,,
31171847,,,,0.19844523,-0.3727355,0.40153295,,,,
31171849,0.42759258,-0.6375568,9.20802,,,,,,,
31171851,0.8108691,-0.71421206,8.704968,,,,,,,
31171852,,,,0.3507779,-0.5133503,0.3972719,,,,
31171854,1.2037276,-0.7166076,8.106099,,,,13.720032,-3.0131578,-48.414314,
31171856,1.5199307,-0.659116,7.591071,,,,,,,
31171857,,,,0.46848953,-0.6283988,0.36105293,,,,
31171859,1.836134,-0.659116,7.1982126,,,,,,,
31171861,2.1595235,-0.6016246,6.8436823,,,,,,,
31171862,,,,0.55956954,-0.69870615,0.30086556,,,,
31171864,2.382303,-0.4794552,6.517897,,,,12.4910755,-3.9232388,-48.89863,
31171866,2.506868,-0.38124058,6.1585755,,,,,,,
31171867,,,,0.6426601,-0.71415246,0.22310129,,,,
31171869,2.5116587,-0.27104858,5.8303947,,,,,,,
31171871,2.5116587,-0.21355706,5.4638867,,,,,,,
31171872,,,,0.7257507,-0.67207456,0.141076,,,,
31171874,2.3942804,-0.0985741,5.1524744,,,,12.340031,-5.844206,-49.03492,
31171876,,,,,,,,,,81.0
31171877,2.2098286,0.030781746,4.750034,0.8029823,-0.57353765,0.06863809,,,,
31171879,1.9966309,0.15055569,4.3499894,,,,,,,
31171882,1.7283374,0.2607477,3.9834812,0.86210436,-0.42919445,0.018570706,,,,
31171884,1.4528574,0.37333518,3.616973,,,,12.3393345,-5.834942,-48.415977,
31171887,1.0983264,0.45478147,3.2792106,0.90684545,-0.26088282,0.0020591207,,,,
31171889,0.7294228,0.5314368,2.9294705,,,,,,,
31171892,0.3988468,0.6152785,2.5198438,0.91163915,-0.10855015,0.02229913,,,,
31171894,0.08024815,0.67995644,2.2299907,,,,10.648237,-6.1647053,-49.073296,
31171897,-0.18325448,0.7661936,1.9688836,,,,,,,
31171898,,,,0.872757,0.020879366,0.07769282,,,,
31171899,-0.46831644,0.8308716,1.7125674,,,,,,,
31171902,-0.61444056,0.888363,1.585607,,,,,,,
31171903,,,,0.7992538,0.116220444,0.15971811,,,,
31171904,-0.71984166,0.9674139,1.5568613,,,,11.110586,-6.024189,-49.991997,
31171907,-0.7174462,1.0033461,1.5496749,,,,,,,
31171908,,,,0.7023149,0.17853837,0.2513308,,,,
31171909,-0.65516376,1.0847923,1.5927935,,,,,,,
31171912,-0.4132204,1.0919788,1.6047708,,,,,,,
31171913,,,,0.5984517,0.19451731,0.34294346,,,,
31171914,-0.05150315,0.9626229,1.590398,,,,10.957722,-7.486717,-49.050285,
31171917,0.36770558,0.8093122,1.4227145,,,,,,,
31171918,,,,0.4732832,0.1556352,0.41165295,,,,
31171919,0.8012872,0.5841373,1.2933587,,,,,,,
31171922,1.3235015,0.39010352,1.2167034,,,,,,,
31171923,,,,0.31296107,0.081599385,0.43828452,,,,
31171924,1.7858288,0.24397933,1.1568165,,,,12.800835,-6.6961784,-47.31118,
31171926,,,,,,,,,,102.0
31171927,2.1643145,0.10504159,1.2502401,,,,,,,
31171928,,,,0.12813783,0.018748837,0.42230558,,,,
31171929,2.492495,-3.594756E-4,1.4562513,,,,,,,
31171932,2.7009017,-0.03629166,1.8395277,,,,,,,
31171933,,,,-0.06520749,-0.0068174875,0.3706403,,,,
31171934,2.89254,-0.050664514,2.3042507,,,,12.033825,-7.170925,-48.717644,
31171937,3.0362687,-0.06503737,2.812092,,,,,,,
31171938,,,,-0.2281928,0.01075936,0.3013982,,,,
31171939,3.0913649,-0.15846106,3.4373121,,,,,,,
31171942,3.177602,-0.22553441,4.134396,,,,,,,
31171943,,,,-0.34164336,0.061359372,0.22736235,,,,
31171944,3.177602,-0.3500993,4.8338757,,,,12.341999,-6.159872,-50.42408,
31171947,3.213534,-0.5585059,5.5477285,,,,,,,
31171948,,,,-0.4023634,0.13273203,0.15918548,,,,
31171949,3.1967657,-0.67588437,6.321468,,,,,,,
31171952,3.1799972,-0.88668644,7.1119757,,,,,,,
31171953,,,,-0.39970025,0.2009089,0.09154126,,,,
31171954,3.0674098,-1.0831157,7.873738,,,,10.95112,-3.7806444,-47.700478,
31171957,2.8853536,-1.1980988,8.604359,,,,,,,
31171958,,,,-0.33418652,0.24671523,0.034549657,,,,
31171959,2.6793423,-1.2579856,9.270302,,,,,,,
31171962,2.3487663,-1.2867314,9.962595,,,,,,,
31171963,,,,-0.2159423,0.2722816,4.612254E-4,,,,
31171964,2.0229812,-1.334641,10.515951,,,,11.262575,-5.4183216,-49.066658,
31171967,1.7331284,-1.2699631,11.050143,,,,,,,
31171968,,,,-0.058283284,0.28027105,-6.040381E-4,,,,
31171969,1.4289026,-1.1430027,11.541216,,,,,,,
31171972,1.0599989,-0.9082458,11.998752,,,,,,,
31171973,,,,0.12973572,0.27814052,0.030821238,,,,
31171974,0.6479766,-0.52976024,12.420356,,,,12.028917,-5.079403,-46.884804,
31171977,0.3030277,-0.04347807,12.942571,,,,,,,138.0
31171978,,,,0.34119052,0.28186893,0.086214945,,,,
31171979,0.12815776,0.4931091,13.44083,,,,,,,
31171982,0.15211254,0.86680377,13.898367,,,,,,,
31171983,,,,0.5947233,0.28240156,0.14427179,,,,
31171984,0.4132197,0.9626229,14.269666,,,,13.57049,-5.5330276,-49.16268,
31171987,0.69828165,0.85722184,14.413395,,,,,,,
31171988,,,,0.8743549,0.24351944,0.18262127,,,,
31171990,1.0911402,0.5865328,14.312784,,,,,,,
31171992,1.4648348,0.31344822,13.852853,,,,,,,
31171993,,,,1.1380076,0.17853837,0.1863497,,,,
31171994,,,,,,,10.804573,-8.366558,-48.579613,
31171995,1.8433204,0.011617929,13.136604,,,,,,,
31171997,2.1235912,-0.14648366,12.195181,,,,,,,
31171998,,,,1.3499951,0.14764573,0.14693496,,,,
31172000,2.3487663,-0.1752294,11.177103,,,,,,,
31172002,2.5044725,-0.105760545,10.094347,,,,,,,
31172003,,,,1.4778267,0.17480993,0.077160195,,,,
31172004,,,,,,,13.108606,-5.3903065,-49.021065,
31172005,2.7248566,-0.03629166,9.073873,,,,,,,
31172007,2.9596133,-0.024314255,8.125263,,,,,,,
31172008,,,,1.4916751,0.22008364,-0.018713519,,,,
31172010,3.1464608,0.021199852,7.171863,,,,,,,
31172012,3.2925847,0.08587776,6.2783494,,,,,,,
31172013,,,,1.371833,0.23552996,-0.14175147,,,,
31172014,,,,,,,12.954992,-6.553383,-47.773293,
31172015,3.397986,0.18409237,5.5980334,,,,,,,
31172017,3.3860085,0.27512056,5.1021695,,,,,,,
31172018,,,,1.1236266,0.21315943,-0.28556204,,,,
31172020,3.3620536,0.4044764,4.687752,,,,,,,
31172022,3.2446752,0.44280407,4.4673676,,,,,,,
31172023,,,,0.7886012,0.1455152,-0.44162312,,,,
31172024,,,,,,,12.187275,-7.887104,-47.467415,
31172025,3.0362687,0.48592266,4.4673676,,,,,,,
31172027,2.732043,0.4931091,4.558396,,,,,,,170.0
31172028,,,,0.3976495,0.05763095,-0.5891621,,,,
31172030,2.382303,0.51945937,4.8123164,,,,,,,
31172032,1.9103937,0.5218549,5.1812205,,,,,,,
31172033,,,,-0.009813792,-0.0073501193,-0.7031453,,,,
31172034,,,,,,,12.33852,-6.1135464,-47.329414,
31172035,1.4504619,0.54820514,5.6124063,,,,,,,
31172037,1.0049028,0.5002955,6.098688,,,,,,,
31172038,,,,-0.37626442,0.0011719886,-0.7617348,,,,
31172040,0.6048579,0.43322214,6.6640215,,,,,,,
31172042,0.29823667,0.282307,7.365896,,,,,,,
31172043,,,,-0.6787993,0.086393066,-0.7606695,,,,
31172044,,,,,,,10.803236,-8.638212,-47.028862,
31172045,0.03712955,0.09066872,8.11089,,,,,,,
31172047,-0.22158213,-0.079410255,8.93254,,,,,,,
31172048,,,,-0.9200815,0.18972364,-0.71433055,,,,
31172050,-0.52341247,-0.21355706,9.941036,,,,,,,
31172052,-0.80128795,-0.31177166,11.014211,,,,,,,
31172053,,,,-1.1118288,0.25257418,-0.6418927,,,,
31172054,,,,,,,13.569468,-6.532463,-46.98443,
31172055,-1.08635,-0.3668677,12.123317,,,,,,,
31172057,-1.347457,-0.32854,13.397712,,,,,,,
31172058,,,,-1.2359321,0.26056367,-0.5556063,,,,
31172060,-1.5510727,-0.25907114,14.652942,,,,,,,
31172062,-1.6804285,-0.28781685,15.843494,,,,,,,
31172063,,,,-1.2503132,0.24192154,-0.4645263,,,,
31172064,,,,,,,13.107178,-6.094925,-46.84623,
31172065,-1.7451065,-0.28781685,17.137054,,,,,,,
31172067,-1.7738522,-0.29021236,18.188667,,,,,,,
31172068,,,,-1.140591,0.21475732,-0.36385888,,,,
31172070,-1.7187562,-0.3093762,19.166023,,,,,,,
31172072,-1.682824,-0.27344403,20.037977,,,,,,,
31172073,,,,-0.92114675,0.18173414,-0.2701157,,,,
31172074,,,,,,,12.9537735,-6.5371685,-46.690163,
31172075,-1.6205416,-0.2399073,20.612892,,,,,,,
31172077,-1.5271178,-0.103365034,20.917118,,,,,,,193.0
31172078,,,,-0.617014,0.158831,-0.19874306,,,,
31172080,-1.512745,0.05713202,21.135107,,,,,,,
31172082,-1.457649,0.25356126,21.326746,,,,,,,
31172083,,,,-0.26121596,0.15403731,-0.15453462,,,,
31172084,,,,,,,12.950743,-5.194273,-45.62243,
31172085,-1.292361,0.4380131,21.480057,,,,,,,
31172087,-1.0959318,0.6919338,21.470474,,,,,,,
31172088,,,,0.10150625,0.11089413,-0.14175147,,,,
31172090,-0.8779433,0.90273595,21.154272,,,,,,,
31172092,-0.6719321,1.0967697,20.636848,,,,,,,
31172093,,,,0.43759686,-0.03344908,-0.16785042,,,,
31172094,,,,,,,13.413303,-4.3329277,-47.632835,
31172095,-0.38926563,1.2620577,19.827175,,,,,,,
31172098,-0.073062465,1.4417187,18.835447,0.6900643,-0.26301336,-0.2312336,,,,
31172100,0.09462103,1.5950292,17.714363,,,,,,,
31172103,0.21679044,1.7651082,16.600466,0.82641804,-0.51388294,-0.32124832,,,,
31172104,,,,,,,11.716566,-3.2850513,-44.90142,
31172105,0.35812366,1.9902831,15.460218,,,,,,,
31172108,0.46352476,2.1579666,14.422976,0.8434623,-0.75729567,-0.4208505,,,,
31172110,0.5665303,2.3543959,13.467181,,,,,,,
31172113,0.6767223,2.6083167,12.583249,,,,,,,
31172114,,,,0.7465233,-0.9895231,-0.5177895,13.2588825,-4.9063683,-46.39193,
31172115,0.6527675,2.8310962,11.711295,,,,,,,
31172118,0.59048504,3.0227344,10.96151,,,,,,,
31172119,,,,0.543058,-1.18926,-0.60833687,,,,
31172120,0.49945688,3.2143726,10.309939,,,,,,,
31172123,0.38686943,3.350915,9.689511,,,,,,,
31172124,,,,0.27461156,-1.3027105,-0.6663937,12.796686,-4.0358667,-46.8778,
31172125,0.21679044,3.4323611,9.203229,,,,,,,
31172127,,,,,,,,,,207.0
31172128,0.12336677,3.4754796,8.791205,,,,,,,
31172129,,,,-0.02792327,-1.2782094,-0.67704636,,,,
31172130,-0.07785343,3.516203,8.573217,,,,,,,
31172133,-0.30063292,3.6048357,8.501353,,,,,,,
31172134,,,,-0.32832757,-1.1146915,-0.6386969,13.260099,-4.9225826,-47.47506,
31172135,-0.5401808,3.6838865,8.475003,,,,,,,
31172138,-0.78691506,3.7461689,8.549263,,,,,,,
31172139,,,,-0.6063614,-0.84517986,-0.5508126,,,,
31172140,-0.9450166,3.8491745,8.807975,,,,,,,
31172143,-1.1749825,3.9210386,9.167296,,,,,,,
31172144,,,,-0.8535025,-0.5234703,-0.42617682,12.023434,-2.6907454,-44.900673,
31172145,-1.352248,4.0360217,9.677534,,,,,,,
31172148,-1.3666209,4.0647674,10.374618,,,,,,,
31172149,,,,-1.0521742,-0.21401124,-0.27757254,,,,
31172150,-1.3977622,4.112677,11.054934,,,,,,,
31172153,-1.3594344,4.177355,11.795136,,,,,,,
31172154,,,,-1.1938542,0.036325682,-0.1289683,11.257631,-4.0499477,-46.296867,
31172155,-1.2276831,4.160587,12.611995,,,,,,,
31172158,-1.0456268,4.208496,13.318661,,,,,,,
31172159,,,,-1.2572374,0.20144153,-0.004865092,,,,
31172160,-0.8611749,4.146214,14.078028,,,,,,,
31172163,-0.6168361,4.1557956,14.724807,,,,,,,
31172164,,,,-1.2465847,0.2829342,0.08674757,12.025539,-3.7318745,-45.50762,
31172165,-0.3701018,4.0647674,15.326072,,,,,,,
31172168,-0.16648611,4.0144625,15.853077,,,,,,,
31172169,,,,-1.1640269,0.30530474,0.14906548,,,,
31172170,0.10899392,4.031231,16.31301,,,,,,,
31172173,0.42998803,4.012067,16.727427,,,,,,,
31172174,,,,-1.0047699,0.29625,0.18688233,11.404564,-1.4953318,-43.2275,
31172175,0.79410076,4.0192537,16.947811,,,,,,,
31172178,1.2276824,4.0144625,17.098726,,,,,,,
31172179,,,,-0.784793,0.2696184,0.19487181,,,,
31172180,1.656473,3.9809256,17.06519,,,,,,,
31172183,2.116405,3.966553,16.878342,,,,,,,
31172184,,,,-0.52060765,0.22487733,0.16184865,12.018929,-0.89404297,-43.064415,
31172185,2.5667548,3.8731291,16.413618,,,,,,,
31172188,2.988359,3.698259,15.742885,,,,,,,
31172189,,,,-0.26600966,0.16468994,0.07982336,,,,
31172190,3.3309126,3.5473442,15.052987,,,,,,,
31172193,3.5465055,3.355706,14.250502,,,,,,,
31172194,,,,-0.06520749,0.08106675,-0.042681947,10.942022,-0.62019825,-43.403908,
31172195,3.6662796,3.2143726,13.44083,,,,,,,
31172198,3.728562,3.0969942,12.6862545,,,,,,,
31172199,,,,0.056232546,-0.018535387,-0.18915568,,,,
31172200,3.733353,2.9364972,11.8741865,,,,,,,
31172203,3.7165844,2.8095367,11.054934,,,,,,,
31172204,,,,0.098310456,-0.13358384,-0.3372273,10.786051,0.5636873,-42.95719,
31172205,3.7573078,2.6226895,10.259635,,,,,,,
31172208,3.8914545,2.4358423,9.471521,,,,,,,
31172209,,,,0.07647255,-0.23531651,-0.4746463,,,,
31172211,3.9944599,2.2489948,8.887026,,,,,,,
31172213,4.1357937,2.0142379,8.228269,,,,,,,
31172214,,,,8.388441E-4,-0.29550388,-0.5934232,11.401451,0.28284168,-42.629112,
31172216,4.245985,1.8106223,7.765941,,,,,,,
31172218,4.2771263,1.5471196,7.4449472,,,,,,,
31172219,,,,-0.1088833,-0.2992323,-0.7132653,,,,
31172221,4.257962,1.3458996,7.186236,,,,,,,
31172223,4.152561,1.2165437,7.0425067,,,,,,,
31172224,,,,-0.22499701,-0.2555565,-0.8400317,13.708441,0.46990108,-42.264366,
31172226,3.953737,1.1015606,7.071253,,,,,,,
31172227,,,,,,,,,,229.0
31172228,3.5728557,1.0105325,7.1598854,,,,,,,
31172229,,,,-0.32779494,-0.1714007,-0.9689286,,,,
31172231,3.1704154,0.98897314,7.2796593,,,,,,,
31172233,2.662574,1.0368828,7.53358,,,,,,,
31172234,,,,-0.3975697,-0.059548035,-1.0797161,12.478249,0.58936787,-42.915398,
31172236,2.1331732,1.1111425,7.746778,,,,,,,
31172238,1.5390946,1.1255155,7.9456024,,,,,,,
31172239,,,,-0.41780972,0.0650878,-1.1494908,,,,
31172241,0.9450159,1.1566567,8.094122,,,,,,,
31172243,0.42280155,1.0776058,8.309715,,,,,,,
31172244,,,,-0.39650446,0.19398469,-1.176655,11.2428,2.8049908,-41.42414,
31172246,-0.089830816,1.0320917,8.455839,,,,,,,
31172248,-0.516226,0.93866813,8.532495,,,,,,,
31172249,,,,-0.33951285,0.31862053,-1.1782529,,,,
31172251,-0.9929262,0.8021258,8.489376,,,,,,,
31172253,-1.412135,0.72307503,8.436675,,,,,,,
31172254,,,,-0.25269386,0.43846267,-1.1596109,11.243963,3.0789628,-42.820168,
31172256,-1.8073889,0.6320469,8.328879,,,,,,,
31172258,-2.2313886,0.5362277,8.249828,,,,,,,
31172259,,,,-0.15309173,0.54658693,-1.1185981,,,,
31172261,-2.6529927,0.5050865,8.130054,,,,,,,
31172263,-2.9931507,0.39489448,7.9551845,,,,,,,
31172264,,,,-0.05775065,0.62648165,-1.055215,10.931089,4.8802624,-40.37258,
31172266,-3.3189356,0.282307,7.765941,,,,,,,
31172268,-3.6183708,0.17211498,7.6054444,,,,,,,
31172269,,,,0.025339905,0.6627006,-0.96946114,,,,
31172271,-3.8483365,0.035572723,7.504834,,,,,,,
31172273,-4.035184,-0.13929722,7.447343,,,,,,,
31172274,,,,0.094049394,0.64831954,-0.8719896,12.778614,3.4411354,-39.845665,
31172276,-4.2244267,-0.30458525,7.4712977,,,,,,,
31172277,,,,,,,,,,206.0
31172278,-4.3801327,-0.4411275,7.5216026,,,,,,,
31172279,,,,0.15530205,0.5721532,-0.76546323,,,,
31172281,-4.444811,-0.6519296,7.552744,,,,,,,
31172283,-4.4615793,-0.7860763,7.437761,,,,,,,
31172284,,,,0.22401156,0.41609216,-0.6525453,12.009838,3.134645,-39.861237,
31172286,-4.528652,-0.88908195,7.1694674,,,,,,,
31172288,-4.5909348,-0.9657372,6.9347105,,,,,,,
31172289,,,,0.2820684,0.2025068,-0.5332358,,,,
31172291,-4.6005173,-1.0423926,6.553829,,,,,,,
31172293,-4.5861444,-1.0735339,6.177739,,,,,,,
31172294,,,,0.30976525,-0.022796439,-0.4112631,12.010708,3.1230636,-40.634903,
31172296,-4.5142794,-1.0447881,5.904655,,,,,,,
31172298,-4.3801327,-0.999274,5.636361,,,,,,,
31172299,,,,0.3118958,-0.21134809,-0.28609467,,,,
31172301,-4.238799,-0.9777148,5.404,,,,,,,
31172303,-3.9824834,-0.92980504,5.2698526,,,,,,,
31172304,,,,0.30124313,-0.3327881,-0.1657199,13.393473,4.18057,-40.30323,
31172306,-3.735749,-0.83877695,5.2003837,,,,,,,
31172308,-3.4435008,-0.74295783,5.2195477,,,,,,,
31172309,,,,0.29431894,-0.38711655,-0.058128268,,,,
31172311,-3.1057382,-0.6375568,5.150079,,,,,,,
31172313,-2.7128797,-0.54413307,5.0973783,,,,,,,
31172314,,,,0.30497158,-0.3711376,0.029223341,12.928907,5.6615553,-39.40335,
31172316,-2.3870947,-0.46987328,5.003955,,,,,,,
31172318,-2.1235921,-0.27583948,4.963232,,,,,,,
31172319,,,,0.33799475,-0.28538388,0.09793283,,,,
31172321,-1.8960216,-0.11773792,4.829085,,,,,,,
31172324,-1.6037732,-0.057850927,4.6206784,0.38326845,-0.13518174,0.1495981,12.1616955,5.3342175,-40.811516,
31172326,-1.3546435,0.03796819,4.424249,,,,,,,
31172327,,,,,,,,,,171.0
31172329,-1.1294684,0.07150489,4.2350063,0.4280095,0.051772002,0.1863497,,,,
31172331,-0.9665759,0.07629584,4.189492,,,,,,,
31172334,-0.8659659,0.030781746,4.239797,0.44345585,0.20570257,0.20818761,12.929365,5.0765514,-39.08703,
31172336,-0.82284725,0.0595275,4.309266,,,,,,,
31172339,-0.7390055,0.12899637,4.383526,0.42534634,0.28346685,0.22256866,,,,
31172341,-0.7174462,0.124205425,4.5703735,,,,,,,
31172344,-0.7126552,0.15774211,4.817107,0.3992474,0.2866626,0.23109077,12.161074,4.039964,-38.629845,
31172346,-0.7294235,0.13857828,5.0949826,,,,,,,
31172349,-0.8180562,0.1146235,5.3369265,,,,,,,
31172350,,,,0.38539895,0.25044367,0.24547184,,,,
31172351,-0.93303925,0.18409237,5.6459427,,,,,,,
31172354,-1.0336494,0.15534665,5.8998637,,,,12.1594715,6.0874767,-39.736954,
31172355,,,,0.39605162,0.20623522,0.27050555,,,,
31172356,-1.0959318,0.112228036,6.1274343,,,,,,,
31172359,-1.1893554,0.08348228,6.3741684,,,,,,,
31172360,,,,0.43014005,0.17960362,0.31098554,,,,
31172361,-1.2396605,0.0595275,6.575389,,,,,,,
31172364,-1.3330841,0.14097376,6.740677,,,,12.469231,6.0643506,-41.586143,
31172365,,,,0.47275057,0.1774731,0.3605203,,,,
31172366,-1.4432762,0.19606978,6.8436823,,,,,,,
31172369,-1.5343044,0.29188892,6.9466877,,,,,,,
31172370,,,,0.5164264,0.2009089,0.41964242,,,,
31172371,-1.5630502,0.33021656,7.0185523,,,,,,,
31172374,-1.6971968,0.35656685,7.047298,,,,12.005672,6.80829,-40.677704,
31172375,,,,0.56010216,0.25630262,0.4894172,,,,
31172376,-1.8073889,0.41405833,7.0544844,,,,,,,
31172378,,,,,,,,,,144.0
31172379,-1.7810386,0.47634077,7.0640664,,,,,,,
31172380,,,,0.5973864,0.33459947,0.57517093,,,,
31172381,-1.852903,0.55299604,7.011366,,,,,,,
31172384,-1.8217617,0.5458096,6.901174,,,,12.005672,6.80829,-40.677704,
31172385,,,,0.6117675,0.42621213,0.67477304,,,,
31172386,-1.7594794,0.59371924,6.8604507,,,,,,,
31172389,-1.7115698,0.68714285,6.822123,,,,,,,
31172390,,,,0.60431063,0.52474904,0.77757096,,,,
31172391,-1.6349145,0.7733801,6.884405,,,,,,,
31172394,-1.5343044,0.8284761,7.020948,,,,15.238792,5.2311845,-40.888557,
31172395,,,,0.5707548,0.6184922,0.87664044,,,,
31172396,-1.467231,0.9218998,7.2557044,,,,,,,
31172399,-1.3977622,1.0512556,7.631795,,,,,,,
31172400,,,,0.52707905,0.70158273,0.95919836,,,,
31172401,-1.4456717,1.2476848,8.161196,,,,,,,
31172404,-1.5079541,1.4824418,8.740901,,,,14.465263,5.2774186,-37.039215,
31172405,,,,0.49618638,0.7500522,1.0108637,,,,
31172406,-1.6085643,1.7435489,9.500268,,,,,,,
31172409,-1.7067788,2.0214243,10.28359,,,,,,,
31172410,,,,0.5095022,0.7409975,1.03643,,,,
31172411,-1.7834342,2.2322264,11.1411705,,,,,,,
31172414,-1.8097844,2.3136725,11.890956,,,,15.698826,5.6919966,-40.108627,
31172415,,,,0.57767904,0.64831954,1.0492132,,,,
31172416,-1.8385302,2.3807461,12.544921,,,,,,,
31172419,-1.8936261,2.4430285,13.079113,,,,,,,
31172420,,,,0.6943254,0.4826711,1.050811,,,,
31172421,-1.8409256,2.455006,13.455203,,,,,,,
31172424,-1.682824,2.4669833,13.76422,,,,15.388617,7.168367,-39.669144,
31172425,,,,0.8434623,0.28240156,1.0337667,,,,
31172426,-1.4959768,2.4861472,13.895971,,,,,,,
31172428,,,,,,,,,,121.0
31172429,-1.2396605,2.3496048,13.915134,,,,,,,
31172430,,,,1.0181655,0.075740434,0.98103625,,,,
31172431,-0.9450166,2.1579666,13.888784,,,,,,,
31172434,-0.74140096,1.8848822,13.668401,,,,14.773659,7.8775434,-40.930763,
31172435,,,,1.1747593,-0.16447648,0.88835835,,,,
31172437,-0.5593446,1.6261705,13.328243,,,,,,,
31172439,-0.4491526,1.3243401,12.861124,,,,,,,
31172440,,,,1.2621108,-0.4382492,0.76212466,,,,
31172442,-0.4922712,1.1374928,12.281419,,,,,,,
31172444,-0.5880903,0.9674139,11.6298485,,,,15.083574,6.11562,-40.747887,
31172445,,,,1.2477298,-0.69231457,0.6337604,,,,
31172447,-0.78691506,0.8524308,10.947137,,,,,,,
31172449,-1.0456268,0.7805666,10.319522,,,,,,,
31172450,,,,1.1252245,-0.8760725,0.53042984,,,,
31172452,-1.4169259,0.7853575,9.871567,,,,,,,
31172454,-1.8936261,0.94345903,9.574528,,,,15.8532295,4.5289564,-39.162727,
31172455,,,,0.9127044,-0.9490431,0.4792972,,,,
31172457,-2.3846993,1.1925888,9.505059,,,,,,,
31172459,-2.8278627,1.5183738,9.655973,,,,,,,
31172460,,,,0.6682264,-0.8915189,0.4979393,,,,
31172462,-3.203953,1.8753003,10.067997,,,,,,,
31172464,-3.5776474,2.289718,10.633328,,,,13.7002945,5.9333024,-41.70878,
31172465,,,,0.45038003,-0.7285335,0.57250774,,,,
31172467,-3.8171954,2.6873674,11.306458,,,,,,,
31172469,-3.9393647,3.0371072,11.960424,,,,,,,
31172470,,,,0.29431894,-0.50749135,0.6742404,,,,
31172472,-4.047161,3.3101916,12.611995,,,,,,,
31172474,-3.975297,3.4706888,13.139,,,,15.392601,5.3786116,-41.041206,
31172475,,,,0.21761997,-0.27100283,0.7765057,,,,
31172477,-3.8124044,3.5497396,13.548627,,,,,,,
31172478,,,,,,,,,,88.0
31172479,-3.5057833,3.4706888,13.91274,,,,,,,
31172480,,,,0.20270628,-0.04356908,0.8675857,,,,
31172482,-3.1967666,3.322169,14.101982,,,,,,,
31172484,-2.808699,3.1137624,14.207383,,,,16.776722,5.694441,-41.01043,
31172485,,,,0.2149568,0.13432993,0.93682784,,,,
31172487,-2.4110496,2.9269152,14.252897,,,,,,,
31172489,-2.0349593,2.7640226,14.286434,,,,,,,
31172490,,,,0.22560944,0.23925838,0.96825314,,,,
31172492,-1.5822139,2.641853,14.24092,,,,,,,
31172494,-1.0839543,2.5340567,14.176242,,,,16.004677,6.155107,-39.023026,
31172495,,,,0.22560944,0.2579005,0.9522742,,,,
31172497,-0.6192316,2.4310513,14.010954,,,,,,,
31172499,-0.20002282,2.3136725,13.860039,,,,,,,
31172500,,,,0.20696734,0.20144153,0.88942367,,,,
31172502,0.19762662,2.1675487,13.699542,,,,,,,
31172504,0.57132125,1.9807013,13.527067,,,,14.776588,5.233445,-40.28102,
31172505,,,,0.16062838,0.09491518,0.78396255,,,,
31172507,0.9498069,1.793854,13.249192,,,,,,,
31172509,1.3139197,1.5159785,13.004853,,,,,,,
31172510,,,,0.086592555,-0.041971184,0.6449456,,,,
31172512,1.6157498,1.1542612,12.619181,,,,,,,
31172514,1.872066,0.7566117,12.291,,,,15.855299,5.514494,-42.26937,
31172515,,,,-0.023129584,-0.17299859,0.486754,,,,
31172517,2.0110037,0.47873622,11.876583,,,,,,,
31172519,2.042145,0.17451046,11.589125,,,,,,,
31172520,,,,-0.17652753,-0.28005758,0.32217082,,,,
31172522,2.0229812,-0.03389615,11.3376,,,,,,,
31172524,1.9535122,-0.12971532,11.193871,,,,14.626156,3.73849,-41.50556,
31172525,,,,-0.37786233,-0.3626155,0.1645118,,,,
31172527,1.7882245,-0.22313896,11.059725,,,,,,,
31172528,,,,,,,,,,30.0
31172529,1.6325183,-0.23511639,11.071702,,,,,,,
31172530,,,,-0.60316557,-0.42067236,0.036147553,,,,
31172532,1.4552529,-0.32854,11.165126,,,,,,,
31172534,1.2252868,-0.44352302,11.392695,,,,16.004831,7.166124,-40.427612,
31172535,,,,-0.8327299,-0.43079233,-0.052269317,,,,
31172537,0.96178424,-0.63037026,11.689734,,,,,,,
31172539,0.7126545,-0.84835887,12.099361,,,,,,,
31172540,,,,-1.0479131,-0.40203023,-0.10872829,,,,
31172542,0.42759258,-1.0567654,12.616786,,,,,,,
31172544,0.16408992,-1.2220535,13.196491,,,,16.624191,5.2406144,-41.62803,
31172545,,,,-1.2178227,-0.33332077,-0.12950093,,,,
31172547,-0.18804543,-1.3274544,13.706728,,,,,,,
31172550,-0.55694914,-1.4663924,14.296016,-1.3190227,-0.22359861,-0.10499987,,,,
31172552,-0.90908444,-1.5286747,14.923631,,,,,,,
31172554,,,,,,,15.240686,6.2190385,-43.84046,
31172555,-1.2061238,-1.5310702,15.568015,-1.3429911,-0.0808533,-0.034159835,,,,
31172557,-1.5295134,-1.4855561,16.083044,,,,,,,
31172560,-1.7115698,-1.4855561,16.622026,-1.2875974,0.06828359,0.07769282,,,,
31172562,-1.8097844,-1.4376466,17.055607,,,,,,,
31172564,,,,,,,16.468006,5.7036695,-40.08963,
31172565,-1.8409256,-1.3825506,17.371809,-1.1698858,0.19664784,0.2183076,,,,
31172567,-1.7810386,-1.3585957,17.644896,,,,,,,
31172570,-1.5582591,-1.3657823,17.82216,,,,,,,
31172571,,,,-1.003172,0.29092368,0.3557266,,,,
31172572,-1.2540333,-1.4017143,17.764668,,,,,,,
31172574,,,,,,,17.69888,6.5882707,-41.307365,
31172575,-0.92585284,-1.4616014,17.551472,,,,,,,
31172576,,,,-0.8013046,0.34418684,0.46917716,,,,
31172577,-0.45154807,-1.5190928,17.228083,,,,,,,
31172578,,,,,,,,,,15.0
31172580,-0.073062465,-1.540652,16.830431,,,,,,,
31172581,,,,-0.6063614,0.35697,0.5474741,,,,
31172582,0.27667743,-1.559816,16.293846,,,,,,,
31172584,,,,,,,16.31364,7.589857,-41.97248,
31172585,0.6144399,-1.555025,15.723721,,,,,,,
31172586,,,,-0.44231078,0.34205633,0.5900846,,,,
31172587,1.0001118,-1.555025,15.122456,,,,,,,
31172590,1.3785975,-1.5693978,14.576287,,,,,,,
31172591,,,,-0.31660968,0.3148921,0.60126984,,,,
31172592,1.6828233,-1.50472,13.986999,,,,,,,
31172594,,,,,,,16.770927,8.810878,-39.653786,
31172595,2.056518,-1.4855561,13.404898,,,,,,,
31172596,,,,-0.2164749,0.29039103,0.589552,,,,
31172597,2.3607438,-1.4065053,12.925802,,,,,,,
31172600,2.8015118,-1.3753641,12.302978,,,,,,,
31172601,,,,-0.13711278,0.27281418,0.5496046,,,,
31172602,3.218325,-1.3178726,11.7352495,,,,,,,
31172604,,,,,,,16.005783,6.719264,-40.73194,
31172605,3.6375337,-1.2867314,11.069306,,,,,,,
31172606,,,,-0.083316974,0.25204158,0.48249295,,,,
31172607,4.0375786,-1.2531947,10.408154,,,,,,,
31172610,4.451997,-1.1621665,9.6751375,,,,,,,
31172611,,,,-0.062011704,0.23126891,0.3807603,,,,
31172612,4.72029,-1.1166525,8.951704,,,,,,,
31172614,,,,,,,17.54301,9.0733595,-42.578148,
31172615,4.892764,-1.0280197,8.343252,,,,,,,
31172616,,,,-0.075860135,0.21369207,0.24973288,,,,
31172617,5.024516,-0.9369916,7.787501,,,,,,,
31172620,5.0029564,-0.8052403,7.301219,,,,,,,
31172621,,,,-0.12166646,0.1977131,0.10112862,,,,
31172622,4.8712053,-0.6471387,6.886801,,,,,,,
31172624,,,,,,,17.080162,8.794701,-41.03878,
31172625,4.701126,-0.5249692,6.6376715,,,,,,,
31172626,,,,-0.18877806,0.17694046,-0.048540894,,,,
31172627,4.483137,-0.32374904,6.4172873,,,,,,,
31172628,,,,,,,,,,13.0
31172630,4.159748,-0.2087661,6.2663717,,,,,,,
31172631,,,,-0.26600966,0.15137415,-0.18116622,,,,
31172632,3.8555224,-0.12252888,6.098688,,,,,,,
31172634,,,,,,,18.162731,6.1298842,-42.838173,
31172635,3.4818277,0.004431486,5.9789143,,,,,,,
31172636,,,,-0.32779494,0.12314466,-0.2834315,,,,
31172637,3.1488562,0.028386295,5.9573555,,,,,,,
31172640,2.7799525,0.05713202,5.8998637,,,,,,,
31172641,,,,-0.37519917,0.097045705,-0.3505431,,,,
31172642,2.396676,0.081086814,5.7848806,,,,,,,
31172644,,,,,,,19.848091,9.285899,-40.511322,
31172645,1.9822581,0.09785515,5.6555247,,,,,,,
31172646,,,,-0.40768972,0.085327804,-0.38356626,,,,
31172647,1.5486765,0.14576472,5.569288,,,,,,,
31172650,1.1725863,0.17451046,5.4543047,,,,,,,
31172651,,,,-0.4257992,0.11195939,-0.37664205,,,,
31172652,0.7677505,0.15295115,5.4327455,,,,,,,
31172654,,,,,,,16.772549,8.4998455,-40.73349,
31172655,0.4204061,0.18648785,5.4567003,,,,,,,
31172656,,,,-0.4279297,0.16788574,-0.3308357,,,,
31172658,0.1880447,0.18648785,5.509401,,,,,,,
31172660,0.0059883296,0.15774211,5.5309596,,,,,,,
31172661,,,,-0.40982026,0.24085627,-0.2536041,,,,
31172663,-0.13774037,0.081086814,5.5716834,,,,,,,
31172664,,,,,,,16.46534,8.778414,-41.51818,
31172665,-0.28626004,0.023595303,5.6195927,,,,,,,
31172666,,,,-0.3757318,0.31968582,-0.16199148,,,,
31172668,-0.39645207,-0.0051504374,5.6171975,,,,,,,
31172670,-0.46831644,-0.06982833,5.662711,,,,,,,
31172671,,,,-0.3187402,0.39318898,-0.064519845,,,,
31172673,-0.5090395,-0.12492433,5.6938524,,,,,,,
31172674,,,,,,,18.156723,8.52549,-40.38983,
31172675,-0.5449717,-0.23272088,5.739367,,,,,,,
31172676,,,,-0.24576965,0.4469848,0.03561492,,,,
31172678,-0.46592093,-0.3357264,5.7225986,,,,,,,11.0
31172680,-0.45633903,-0.45310488,5.7058296,,,,,,,
31172681,,,,-0.17120121,0.45497426,0.13148864,,,,
31172683,-0.44436163,-0.4626868,5.729785,,,,,,,
31172684,,,,,,,18.001652,9.552702,-40.56034,
31172685,-0.44436163,-0.5105964,5.744158,,,,,,,
31172686,,,,-0.10195909,0.423549,0.21670972,,,,
31172688,-0.43238425,-0.4842461,5.7154117,,,,,,,
31172690,-0.47550285,-0.3453084,5.7178073,,,,,,,
31172691,,,,-0.035380114,0.36389425,0.29766977,,,,
31172693,-0.4587345,-0.28302595,5.7034345,,,,,,,
31172694,,,,,,,19.232426,9.136101,-40.060616,
31172695,-0.51383054,-0.15846106,5.6531296,,,,,,,
31172696,,,,0.03972096,0.29625,0.3791624,,,,
31172698,-0.5377853,-0.024314255,5.58366,,,,,,,
31172700,-0.5401808,0.124205425,5.4734683,,,,,,,
31172701,,,,0.12068099,0.23393206,0.46704665,,,,
31172703,-0.41082495,0.24637482,5.380045,,,,,,,
31172704,,,,,,,19.69381,8.855235,-39.581596,
31172705,-0.16648611,0.4044764,5.226734,,,,,,,
31172706,,,,0.20004313,0.18279941,0.5623877,,,,
31172708,0.21439496,0.4044764,5.090192,,,,,,,
31172710,0.66714036,0.39489448,4.8602257,,,,,,,
31172711,,,,0.26662207,0.13113414,0.6406846,,,,
31172713,1.2037276,0.37333518,4.52965,,,,,,,
31172714,,,,,,,22.155907,7.8699903,-38.889877,
31172715,1.7498968,0.337403,4.2589607,,,,,,,
31172716,,,,0.31935263,0.07360991,0.6822299,,,,
31172718,2.2936702,0.28949344,3.923594,,,,,,,
31172720,2.7559977,0.22960648,3.4708488,,,,,,,
31172721,,,,0.34438634,0.02247726,0.6731751,,,,
31172723,3.112924,0.21762908,3.042058,,,,,,,
31172724,,,,,,,20.158726,7.3696184,-40.79094,
31172725,3.383613,0.24637482,2.7617872,,,,,,,
31172726,,,,0.3321358,-0.006284856,0.6247056,,,,
31172728,3.5656695,0.31105274,2.431211,,,,,,,
31172729,,,,,,,,,,10.0
31172730,3.7261665,0.40687189,2.1150079,,,,,,,
31172731,,,,0.29378632,-0.014274333,0.5517351,,,,
31172733,3.7668893,0.6104876,1.9616972,,,,,,,
31172734,,,,,,,18.619644,7.5006304,-40.366447,
31172735,3.812404,0.7518208,1.97607,,,,,,,
31172736,,,,0.22773996,-0.011611174,0.47769928,,,,
31172738,3.7668893,0.8021258,2.0383525,,,,,,,
31172740,3.6830478,0.89554954,2.1940587,,,,,,,
31172741,,,,0.14784521,-0.01640486,0.40206558,,,,
31172743,3.5776467,0.9171088,2.4671433,,,,,,,
31172744,,,,,,,20.930077,6.918217,-42.1594,
31172745,3.448291,0.94585454,2.8240695,,,,,,,
31172746,,,,0.07593992,-0.03344908,0.33069292,,,,
31172748,3.2758164,0.9266907,3.171414,,,,,,,
31172750,3.0841782,0.95304096,3.6289504,,,,,,,
31172751,,,,0.030133592,-0.056884877,0.26571184,,,,
31172753,2.8997264,0.9195043,4.1104417,,,,,,,
31172754,,,,,,,20.160007,7.931459,-42.654594,
31172755,2.7248566,0.81889415,4.4961133,,,,,,,
31172756,,,,0.026405169,-0.08724488,0.2215034,,,,
31172758,2.5499866,0.73265696,4.7620115,,,,,,,
31172760,2.4062579,0.65121067,5.1261244,,,,,,,
31172761,,,,0.05090623,-0.1245291,0.18901287,,,,
31172763,2.2601335,0.5721599,5.495028,,,,,,,
31172764,,,,,,,20.931194,5.600801,-41.525063,
31172765,2.046936,0.5721599,5.770508,,,,,,,
31172766,,,,0.08552729,-0.17779228,0.1661097,,,,
31172768,1.8624842,0.5410187,6.0555696,,,,,,,
31172770,1.7546877,0.47873622,6.261581,,,,,,,
31172771,,,,0.11322414,-0.25182807,0.14853285,,,,
31172773,1.6636595,0.3709397,6.4795694,,,,,,,
31172774,,,,,,,22.621578,6.953163,-41.49868,
31172776,1.5989815,0.14576472,6.6999536,0.12867045,-0.3327881,0.13841285,,,,
31172778,1.6588686,-0.17762488,6.8987784,,,,,,,
31172781,1.776247,-0.53694665,7.047298,0.1292031,-0.4025629,0.130956,,,,
31172783,1.8624842,-0.999274,7.1311398,,,,,,,
31172784,,,,,,,20.775265,7.5078354,-42.015312,
31172786,1.9750717,-1.3825506,7.171863,0.10150625,-0.43771657,0.12882547,,,,
31172788,2.1283822,-1.7107311,7.2988234,,,,,,,
31172791,2.3104386,-1.9862112,7.377874,0.05197149,-0.40522602,0.12136863,,,,
31172793,2.5332181,-2.1586857,7.600653,,,,,,,
31172794,,,,,,,22.009197,5.022874,-41.801094,
31172796,2.7943254,-2.2113864,7.9743485,-0.005552737,-0.31095022,0.116042316,,,,
31172798,2.9715908,-2.2569003,8.431885,,,,,,,
31172801,3.1823928,-2.2832506,9.021172,,,,,,,
31172802,,,,-0.04816328,-0.16554174,0.10538967,,,,
31172803,3.3764265,-2.3287647,9.6751375,,,,,,,
31172804,,,,,,,20.93013,6.6280317,-41.84652,
31172806,3.5153642,-2.3790698,10.424923,,,,,,,
31172807,,,,-0.060413808,-0.0030890657,0.07183388,,,,
31172808,3.663884,-2.4844708,11.198662,,,,,,,
31172811,3.668675,-2.501239,12.06343,,,,,,,
31172812,,,,-0.026325373,0.15510257,0.023897022,,,,
31172813,3.4315226,-2.2880416,12.985689,,,,,,,
31172814,,,,,,,21.088589,5.1215315,-44.146584,
31172816,2.9404495,-1.7730137,13.946276,,,,,,,
31172817,,,,0.082864136,0.3111637,-0.02883352,,,,
31172818,2.3104386,-0.9537598,14.947586,,,,,,,
31172821,1.5870041,0.025990784,16.090229,,,,,,,
31172822,,,,0.31029788,0.47947532,-0.060791425,,,,
31172823,0.88273346,1.0105325,17.254433,,,,,,,
31172824,,,,,,,21.086273,5.4418287,-42.44796,
31172826,0.3988468,1.7794812,18.265324,,,,,,,
31172827,,,,0.6708896,0.6030459,-0.05919353,,,,
31172828,0.2670955,2.234622,19.101345,,,,,,,
31172831,0.42280155,2.229831,19.69782,,,,,,,
31172832,,,,1.1300182,0.58866477,-0.044812474,,,,
31172833,0.72702736,1.8225996,19.781662,,,,,,,
31172834,,,,,,,19.70123,5.4277663,-42.017952,
31172836,1.1390496,1.2979898,19.407969,,,,,,,
31172837,,,,1.5955384,0.38839528,-0.057063006,,,,
31172838,1.4839987,0.893154,18.639017,,,,,,,
31172841,1.5750268,0.67277,17.551472,,,,,,,
31172842,,,,1.992349,0.056565687,-0.12843567,,,,
31172843,1.6277273,0.6320469,16.193235,,,,,,,
31172844,,,,,,,20.473118,3.9560838,-42.60076,
31172846,1.6421001,0.68474734,14.731993,,,,,,,
31172847,,,,2.2533383,-0.33704916,-0.24028833,,,,
31172848,1.6852187,0.6751655,13.1917,,,,,,,
31172851,1.7522922,0.64162874,11.766391,,,,,,,
31172852,,,,2.3103302,-0.7956452,-0.36279362,,,,
31172853,1.7475013,0.67995644,10.333895,,,,,,,
31172854,,,,,,,23.397411,2.9685774,-42.516594,
31172856,1.5319082,0.7637982,8.949307,,,,,,,
31172857,,,,2.141486,-1.3133632,-0.4900926,,,,
31172858,1.3187104,1.0919788,7.409015,,,,,,,
31172861,1.0384396,1.4992101,6.029219,,,,,,,
31172862,,,,1.7547952,-1.7719591,-0.6072716,,,,
31172863,0.92106116,1.84895,4.98,,,,,,,
31172864,,,,,,,21.707752,1.4618578,-43.00547,
31172866,1.0576034,1.9615375,4.103255,,,,,,,
31172867,,,,1.2013909,-2.0531886,-0.68556845,,,,
31172868,1.4025522,1.8154132,3.5858319,,,,,,,
31172871,1.8313429,1.4848373,3.420544,,,,,,,
31172872,,,,0.55584115,-2.1144412,-0.7212548,,,,
31172873,2.3679302,1.0536511,3.6241593,,,,,,,
31172874,,,,,,,24.321133,1.0917463,-40.76947,
31172876,2.842235,0.55299604,4.040972,,,,,,,
31172877,,,,-0.10515488,-1.9541192,-0.7510822,,,,
31172878,3.16802,0.06910941,4.7069154,,,,,,,
31172881,3.4147542,-0.32374904,5.6267796,,,,,,,
31172882,,,,-0.7022351,-1.5866033,-0.78570324,,,,
31172884,3.4842234,-0.66151154,6.671208,,,,21.092667,1.014924,-42.706062,
31172886,3.4626637,-0.92980504,7.9336247,,,,,,,
31172887,,,,-1.175212,-1.0406557,-0.80807376,,,,
31172889,3.2207205,-1.169353,9.406844,,,,,,,
31172891,2.8398395,-1.3011042,10.973487,,,,,,,
31172892,,,,-1.4953238,-0.40043232,-0.7915622,,,,
31172894,2.387094,-1.3801551,12.626368,,,,21.246738,1.5929976,-43.637505,
31172896,1.8792524,-1.4328556,14.264874,,,,,,,
31172897,,,,-1.6561786,0.22700787,-0.72551584,,,,
31172899,1.3881794,-1.4328556,15.932128,,,,,,,
31172901,0.8995019,-1.3082907,17.486794,,,,,,,
31172902,,,,-1.6604396,0.75963956,-0.6125979,,,,
31172904,0.49945688,-1.2340308,18.890543,,,,20.477097,2.1663284,-43.972816,
31172906,0.22637233,-1.164562,20.155355,,,,,,,
31172907,,,,-1.5208901,1.1404713,-0.46718943,,,,
31172909,-0.003593579,-1.049579,21.216555,,,,,,,
31172911,-0.08264437,-0.9465735,22.126837,,,,,,,
31172912,,,,-1.2705531,1.3386103,-0.3185852,,,,
31172914,-0.08264437,-0.8196131,22.77122,,,,20.015621,2.0142317,-43.827766,
31172916,0.041920513,-0.71900296,23.219173,,,,,,,
31172917,,,,-0.95630044,1.3487303,-0.1912862,,,,
31172919,0.21918592,-0.5848563,23.360506,,,,,,,
31172921,0.42519706,-0.47226873,23.314991,,,,,,,
31172922,,,,-0.62447083,1.200126,-0.10446724,,,,
31172924,0.7318183,-0.43873206,23.017954,,,,22.628983,2.6574535,-42.84162,
31172926,1.1270722,-0.27583948,22.466993,,,,,,,
31172927,,,,-0.30276126,0.9386039,-0.05653037,,,,
31172929,1.495976,-0.12013337,21.702835,,,,,,,
31172931,1.8600888,0.04275915,20.775785,,,,,,,
31172932,,,,-0.031119063,0.63287324,-0.06558512,,,,
31172934,2.262529,0.24158387,19.764894,,,,20.93826,2.1779642,-43.651955,
31172936,2.597896,0.50987744,18.79712,,,,,,,
31172937,,,,0.1627589,0.3282079,-0.12417461,,,,
31172939,2.9356585,0.8452444,17.812578,,,,,,,
31172941,3.2973757,1.1207244,16.902296,,,,,,,
31172942,,,,0.26715472,0.036325682,-0.22590727,,,,
31172944,3.5560875,1.3435041,16.039925,,,,22.322262,2.205925,-43.153557,
31172946,3.7597032,1.5710745,15.187134,,,,,,,
31172947,,,,0.29059052,-0.24064282,-0.3590652,,,,
31172949,3.9010365,1.8130177,14.339135,,,,,,,
31172951,3.9417593,2.0549612,13.620491,,,,,,,
31172952,,,,0.24425156,-0.49470818,-0.51406103,,,,
31172954,3.9297822,2.3088818,12.875497,,,,21.705593,2.793171,-42.711403,
31172956,3.8603132,2.4813561,12.214345,,,,,,,
31172957,,,,0.14518204,-0.6976409,-0.6706548,,,,
31172959,3.6998162,2.740068,11.610684,,,,,,,
31172961,3.508178,3.0418983,11.040561,,,,,,,
31172962,,,,0.0066977935,-0.8148199,-0.8203243,,,,
31172964,3.2710254,3.257491,10.592606,,,,22.016521,1.1624432,-43.613365,
31172966,3.0242913,3.3988245,10.240471,,,,,,,
31172967,,,,-0.14936331,-0.8265378,-0.9375033,,,,
31172969,2.8949356,3.5090165,9.91229,,,,,,,
31172971,2.7512066,3.631186,9.68472,,,,,,,
31172972,,,,-0.3086202,-0.7487735,-1.0168655,,,,
31172974,2.552382,3.5856717,9.500268,,,,21.401558,1.0033798,-43.781593,
31172976,2.336789,3.5329711,9.275093,,,,,,,
31172977,,,,-0.45988762,-0.60496294,-1.0749223,,,,
31172979,2.1355689,3.5473442,9.1074095,,,,,,,
31172981,1.8624842,3.497039,8.812766,,,,,,,
31172982,,,,-0.60689396,-0.40948707,-1.1143371,,,,
31172984,1.5079534,3.4395478,8.570823,,,,22.476944,2.3417702,-44.079872,
31172986,1.1941457,3.4299657,8.393557,,,,,,,
31172987,,,,-0.75230247,-0.17832492,-1.126055,,,,
31172989,0.8156601,3.3796606,8.278574,,,,,,,
31172991,0.5258072,3.317378,8.118077,,,,,,,
31172992,,,,-0.90090674,0.0634899,-1.1148697,,,,
31172994,0.34614623,3.2359319,7.921648,,,,22.018494,0.84677887,-45.002556,
31172997,0.24074522,3.1401126,7.6653314,-1.0516415,0.2744121,-1.0887707,,,,
31172999,0.049106926,3.0083613,7.3946424,,,,,,,
31173002,-0.07785343,2.8909829,7.1215577,-1.2140943,0.45018056,-1.0616065,,,,
31173004,-0.21200022,2.7927685,6.992202,,,,22.479156,0.72027016,-44.061028,
31173007,-0.37968373,2.7089267,6.9131513,-1.3903953,0.5902627,-1.0424317,,,,
31173009,-0.56174004,2.646644,7.0520887,,,,,,,
31173012,-0.8108699,2.5532207,7.2988234,-1.5549785,0.6760164,-1.0291159,,,,
31173014,-1.0192765,2.469379,7.6246085,,,,22.786774,1.0151253,-44.366325,
31173017,-1.2492424,2.4358423,7.9935117,,,,,,,
31173018,,,,-1.6817448,0.7031807,-1.0179307,,,,
31173019,-1.4839993,2.3615823,8.410325,,,,,,,
31173022,-1.7019879,2.2585766,8.736111,,,,,,,
31173023,,,,-1.7440628,0.6850712,-1.0008864,,,,
31173024,-1.903208,2.1411984,9.138551,,,,22.78239,3.099699,-42.997704,
31173027,-2.118801,2.0477746,9.68472,,,,,,,
31173028,,,,-1.7483238,0.61582905,-0.9737223,,,,
31173029,-2.3823037,2.0118425,10.245262,,,,,,,
31173032,-2.6601791,2.035797,10.774663,,,,,,,
31173033,,,,-1.7131702,0.46988794,-0.94176435,,,,
31173034,-2.9332638,2.0381927,11.215431,,,,24.168293,2.2339401,-43.107964,
31173037,-3.179998,2.1507802,11.649012,,,,,,,
31173038,,,,-1.6332754,0.28399947,-0.895958,,,,
31173039,-3.3572636,2.2322264,12.116131,,,,,,,
31173042,-3.4458961,2.2777405,12.611995,,,,,,,
31173043,,,,-1.4798775,0.098110974,-0.8224548,,,,
31173044,-3.3812182,2.2178535,13.002458,,,,23.397633,4.5576487,-44.701683,
31173047,-3.2614443,2.1723394,13.306683,,,,,,,
31173048,,,,-1.262031,-0.09470173,-0.7244506,,,,
31173049,-3.0530376,2.105266,13.426456,,,,,,,
31173052,-2.7751622,2.0669384,13.3665695,,,,,,,
31173053,,,,-0.9989109,-0.29017755,-0.6307074,,,,
31173054,-2.5571737,2.028611,13.119836,,,,22.781391,4.7049847,-44.099663,
31173057,-2.2505524,2.0334017,12.899452,,,,,,,
31173058,,,,-0.7272688,-0.4584892,-0.55028003,,,,
31173059,-1.8600894,1.9375826,12.477848,,,,,,,
31173062,-1.3881801,1.8537409,11.893351,,,,,,,
31173063,,,,-0.4779971,-0.58099455,-0.4900926,,,,
31173064,-0.88752514,1.8321817,11.354368,,,,22.780437,5.1518445,-43.79534,
31173067,-0.31979674,1.7315716,10.662075,,,,,,,
31173068,,,,-0.2697381,-0.64331245,-0.46292838,,,,
31173069,0.19523114,1.6597072,9.914686,,,,,,,
31173072,0.65995395,1.5471196,9.150528,,,,,,,
31173073,,,,-0.10994857,-0.61668086,-0.46825472,,,,
31173074,1.1150949,1.417764,8.25941,,,,22.785225,2.7724528,-45.160545,
31173077,1.5199307,1.3435041,7.3706875,,,,,,,
31173078,,,,-0.0071506323,-0.4872513,-0.5087347,,,,
31173079,1.6995916,1.2596623,6.5993433,,,,,,,
31173082,1.8529022,1.2309165,5.9789143,,,,,,,
31173083,,,,0.038123067,-0.26993757,-0.57478106,,,,
31173084,1.8936255,1.1710294,5.3752537,,,,22.012451,5.26905,-45.053917,
31173087,1.8481112,1.2093571,4.9368815,,,,,,,
31173088,,,,0.034927275,-0.013209068,-0.647219,,,,
31173089,1.666055,1.2596623,4.654215,,,,,,,
31173092,1.4121343,1.2428938,4.474554,,,,,,,
31173093,,,,-0.0076832646,0.24085627,-0.7063411,,,,
31173094,1.095931,1.2548712,4.38113,,,,22.321133,4.536674,-45.037758,
31173097,0.7581686,1.2764306,4.4218535,,,,,,,
31173098,,,,-0.05881591,0.46615952,-0.7462885,,,,
31173099,0.42759258,1.2716396,4.4817405,,,,,,,
31173102,0.03712955,1.2644532,4.5967236,,,,,,,
31173103,,,,-0.103556976,0.64725435,-0.75853896,,,,
31173104,-0.40363848,1.2764306,4.7260795,,,,21.24725,3.4676218,-46.444954,
31173107,-0.7581693,1.3147583,4.924904,,,,,,,
31173108,,,,-0.13018857,0.7884017,-0.74256,,,,
31173110,-1.0911407,1.3195492,5.0279093,,,,,,,
31173112,-1.402553,1.3003854,5.195593,,,,,,,
31173113,,,,-0.13231911,0.90078706,-0.6983516,,,,
31173114,,,,,,,22.322594,3.2146254,-44.712883,
31173115,-1.6660557,1.3171538,5.408791,,,,,,,
31173117,-1.8768578,1.3315266,5.574079,,,,,,,
31173118,,,,-0.109415926,0.9748228,-0.63656634,,,,
31173120,-2.0589142,1.2908034,5.7537394,,,,,,,
31173122,-2.197852,1.2548712,5.9477735,,,,,,,
31173123,,,,-0.057218015,1.0046502,-0.56785685,,,,
31173124,,,,,,,22.322594,3.2146254,-44.712883,
31173125,-2.3272078,1.2165437,6.0843153,,,,,,,
31173127,-2.3775127,1.0752103,6.120248,,,,,,,
31173128,,,,0.020013588,0.9849428,-0.49648422,,,,
31173130,-2.3727217,0.957832,6.194508,,,,,,,14.0
31173132,-2.423027,0.8859676,6.2543945,,,,,,,
31173133,,,,0.102038875,0.916766,-0.42617682,,,,
31173134,,,,,,,23.550434,5.4421215,-44.862892,
31173135,-2.4469817,0.7158886,6.352609,,,,,,,
31173137,-2.353558,0.5889282,6.4316597,,,,,,,
31173138,,,,0.19098838,0.7846733,-0.362261,,,,
31173140,-2.3176258,0.4715498,6.446033,,,,,,,
31173142,-2.2673206,0.28949344,6.3358407,,,,,,,
31173143,,,,0.27780735,0.5700227,-0.31272623,,,,
31173144,,,,,,,23.093552,3.9262834,-47.17817,
31173145,-2.2289932,0.17211498,6.1825304,,,,,,,
31173147,-2.1738973,0.11701898,5.9765186,,,,,,,
31173148,,,,0.34438634,0.32181633,-0.27277887,,,,
31173150,-2.202643,0.093064204,5.6219883,,,,,,,
31173152,-2.2074337,0.14097376,5.334531,,,,,,,
31173153,,,,0.38539895,0.09384992,-0.24082097,,,,
31173154,,,,,,,23.556442,3.046516,-47.31124,
31173155,-2.202643,0.16492856,5.099774,,,,,,,
31173157,-2.2242022,0.22960648,4.9512544,,,,,,,
31173158,,,,0.4029758,-0.08511435,-0.21099359,,,,
31173160,-2.2625299,0.34458944,4.8338757,,,,,,,
31173162,-2.3248122,0.39489448,4.654215,,,,,,,
31173163,,,,0.3944537,-0.2150765,-0.184362,,,,
31173164,,,,,,,23.558666,2.2932568,-48.38581,
31173165,-2.3511624,0.48113173,4.5607915,,,,,,,
31173167,-2.4805183,0.5745554,4.520068,,,,,,,
31173168,,,,0.3811379,-0.267807,-0.15293673,,,,
31173170,-2.5667555,0.7063067,4.515277,,,,,,,
31173172,-2.7056932,0.7494253,4.623074,,,,,,,
31173173,,,,0.37687686,-0.2502302,-0.10979356,,,,
31173174,,,,,,,21.558762,1.5397596,-47.498238,
31173175,-2.8805633,0.81649864,4.884181,,,,,,,
31173177,-3.009919,0.9242953,5.2435026,,,,,,,
31173178,,,,0.39498633,-0.1714007,-0.055465106,,,,
31173180,-3.2207212,1.0871878,5.6459427,,,,,,,22.0
31173182,-3.3836138,1.1303064,6.0747337,,,,,,,
31173183,,,,0.44878215,-0.05795014,0.010048597,,,,
31173184,,,,,,,23.560566,1.3995371,-48.99447,
31173185,-3.534529,1.1925888,6.5131063,,,,,,,
31173187,-3.699817,1.1470747,6.8891964,,,,,,,
31173188,,,,0.5542432,0.07946886,0.100595996,,,,
31173190,-3.8124044,1.0512556,7.3131957,,,,,,,
31173192,-3.9273875,0.9242953,7.603049,,,,,,,
31173193,,,,0.7017822,0.22008364,0.21564445,,,,
31173194,,,,,,,22.171051,3.037086,-46.57177,
31173195,-3.9393647,0.68714285,7.9000883,,,,,,,
31173197,-3.9273875,0.4404086,8.142032,,,,,,,
31173198,,,,0.87648547,0.34205633,0.34081292,,,,
31173200,-3.8531275,0.1816969,8.331275,,,,,,,
31173202,-3.7836587,0.0020360053,8.448653,,,,,,,
31173203,,,,1.0538518,0.42461425,0.46544874,,,,
31173204,,,,,,,23.407154,0.0890522,-47.744987,
31173205,-3.6519072,-0.18720677,8.463026,,,,,,,
31173207,-3.5536928,-0.30218974,8.4007435,,,,,,,
31173208,,,,1.2120434,0.4603006,0.56824666,,,,
31173210,-3.414755,-0.3740541,8.33367,,,,,,,
31173212,-3.3524725,-0.46508232,8.204314,,,,,,,
31173213,,,,1.335614,0.47468162,0.65772885,,,,
31173214,,,,,,,22.024597,-0.24762535,-49.168373,
31173215,-3.244676,-0.57527435,7.931229,,,,,,,
31173217,-3.2255123,-0.62078834,7.583885,,,,,,,
31173218,,,,1.4155087,0.48853004,0.7338952,,,,
31173220,-3.1823936,-0.6447432,7.2485185,,,,,,,
31173223,-3.1105292,-0.62078834,6.8604507,1.4304225,0.5135637,0.7994089,,,,
31173224,,,,,,,23.10191,-0.81628704,-48.825462,
31173225,-3.0218966,-0.5609014,6.5897613,,,,,,,
31173228,-2.9859643,-0.46508232,6.3142815,1.367572,0.54445636,0.8579984,,,,
31173230,-2.8661904,-0.31895813,6.2184625,,,,,,,35.0
31173233,-2.7751622,-0.1752294,6.247208,1.2503929,0.54445636,0.90327203,,,,
31173234,,,,,,,22.48544,-0.37644863,-48.3816,
31173235,-2.758394,-0.055455476,6.4077053,,,,,,,
31173238,-2.73923,0.10743706,6.5394564,1.0858097,0.4890627,0.9272405,,,,
31173240,-2.8182807,0.34458944,6.8317046,,,,,,,
31173243,-2.9835687,0.7206795,7.246123,,,,,,,
31173244,,,,0.9121718,0.3985153,0.94002366,22.49104,-2.4772358,-50.83335,
31173245,-3.0985518,1.1350974,7.751569,,,,,,,
31173248,-3.1009471,1.4417187,8.252224,,,,,,,
31173249,,,,0.76729596,0.29944578,0.95120895,,,,
31173250,-2.9835687,1.6549163,8.676224,,,,,,,
31173253,-2.7200663,1.6764755,9.073873,,,,,,,
31173254,,,,0.658639,0.17161416,0.94854575,23.10419,-1.8597307,-49.587135,
31173255,-2.4517727,1.5662836,9.33498,,,,,,,
31173258,-2.2050385,1.3339221,9.380494,,,,,,,
31173259,,,,0.543058,-0.0068174875,0.9144574,,,,
31173260,-2.0062137,1.0991652,9.392472,,,,,,,
31173263,-1.8648803,0.90273595,9.363726,,,,,,,
31173264,,,,0.37687686,-0.20282598,0.8542699,22.492699,-4.8149347,-49.413353,
31173265,-1.8313438,0.6991203,9.40924,,,,,,,
31173268,-1.848112,0.61288303,9.493082,,,,,,,
31173269,,,,0.16968311,-0.3626155,0.79354995,,,,
31173270,-1.8840443,0.5314368,9.794911,,,,,,,
31173273,-1.9559087,0.4404086,10.151838,,,,,,,
31173274,,,,-0.045500122,-0.43239024,0.75040674,20.799736,-3.527831,-50.398964,
31173275,-1.9439311,0.3589623,10.664471,,,,,,,
31173278,-1.9894452,0.25595674,11.2849,,,,,,,
31173279,,,,-0.2313886,-0.40682393,0.7264383,,,,
31173280,-2.078078,0.21044263,11.93647,,,,,,,52.0
31173283,-2.2864847,0.35177588,12.657509,,,,,,,
31173284,,,,-0.362416,-0.27526388,0.7051331,21.723518,-4.8266077,-49.43235,
31173285,-2.5475917,0.61288303,13.507904,,,,,,,
31173288,-2.9404502,0.9961597,14.379858,,,,,,,
31173289,,,,-0.39863497,-0.03185118,0.6822299,,,,
31173290,-3.3069584,1.403391,15.275766,,,,,,,
31173293,-3.6734667,1.7267805,16.123766,,,,,,,
31173294,,,,-0.33951285,0.2642921,0.6678488,21.260784,-2.9358234,-50.70388,
31173295,-3.8986418,2.0142379,16.878342,,,,,,,
31173298,-4.0759068,2.105266,17.644896,,,,,,,
31173299,,,,-0.20742017,0.51516163,0.6635878,,,,
31173300,-4.1908903,2.019029,18.207832,,,,,,,
31173303,-4.2244267,1.84895,18.425821,,,,,,,
31173304,,,,-0.043902226,0.64672166,0.67477304,22.80091,-5.8305473,-48.62011,
31173305,-4.186099,1.6285659,18.437798,,,,,,,
31173308,-4.1693306,1.3554814,18.186274,,,,,,,
31173309,,,,0.11855046,0.67015743,0.6902194,,,,
31173310,-4.154958,1.1877979,17.807787,,,,,,,
31173313,-4.1046524,1.118329,17.400557,,,,,,,
31173314,,,,0.2501105,0.625949,0.6939478,21.723152,-3.8086424,-50.37275,
31173315,-4.0495567,1.1973798,17.031652,,,,,,,
31173318,-4.01602,1.3746452,16.62442,,,,,,,
31173319,,,,0.3374621,0.5119658,0.6955457,,,,
31173320,-3.9489467,1.5423288,16.106998,,,,,,,
31173323,-3.8195908,1.7411534,15.623111,,,,,,,
31173324,,,,0.3790074,0.31862053,0.69767624,21.726246,-4.5734835,-52.220985,
31173325,-3.6830485,1.9375826,15.105688,,,,,,,
31173328,-3.400382,1.9639329,14.518796,,,,,,,
31173329,,,,0.3678221,0.060826745,0.6896867,,,,
31173330,-2.9332638,1.8465545,13.919926,,,,,,,98.0
31173333,-2.4206314,1.568679,13.347406,,,,,,,
31173334,,,,0.29325366,-0.24756704,0.664653,21.724564,-4.8405056,-50.360756,
31173336,-1.907999,1.2716396,12.674277,,,,,,,
31173338,-1.3091294,0.95064545,12.051453,,,,,,,
31173339,,,,0.15157363,-0.59537554,0.6103246,,,,
31173341,-0.8348246,0.63683784,11.380719,,,,,,,
31173343,-0.40603396,0.41645378,10.801013,,,,,,,
31173344,,,,-0.06414223,-0.9330641,0.5187119,22.493046,-4.8195677,-49.722816,
31173346,0.025152147,0.26553866,10.319522,,,,,,,
31173348,0.36531013,0.1601376,9.962595,,,,,,,
31173349,,,,-0.33898023,-1.2100326,0.40526137,,,,
31173351,0.7485867,0.05713202,9.864381,,,,,,,
31173353,1.1582135,-0.08899215,9.814075,,,,,,,
31173354,,,,-0.63831925,-1.3943232,0.28062552,20.185223,-4.2718983,-50.250862,
31173356,1.4289026,-0.28542146,9.902708,,,,,,,
31173358,1.5774223,-0.5249692,10.0847645,,,,,,,
31173359,,,,-0.94777834,-1.4758159,0.1527939,,,,
31173361,1.6516821,-0.8339859,10.403364,,,,,,,
31173363,1.5702357,-1.049579,10.827363,,,,,,,
31173364,,,,-1.2401931,-1.4534453,0.036680184,20.189316,-6.642025,-50.99714,
31173366,1.4336935,-1.3514093,11.368741,,,,,,,
31173368,1.220496,-1.5646069,12.017916,,,,,,,
31173369,,,,-1.4814754,-1.3229506,-0.058660895,,,,
31173371,0.935434,-1.761036,12.758119,,,,,,,
31173373,0.59048504,-1.9143468,13.486343,,,,,,,
31173374,,,,-1.6439279,-1.0976473,-0.10872829,20.954468,-3.68217,-51.012383,
31173376,0.28386384,-1.991002,14.28883,,,,,,,
31173378,-0.13534491,-2.0245388,15.108083,,,,,,,
31173379,,,,-1.7168986,-0.81854826,-0.115119874,,,,
31173380,,,,,,,,,,139.0
31173381,-0.5737175,-2.1419172,15.8411,,,,,,,
31173383,-0.9042935,-2.1874313,16.504646,,,,,,,
31173384,,,,-1.6993217,-0.52719873,-0.074107215,19.108124,-2.9824047,-51.685463,
31173386,-1.2492424,-2.2473183,17.081959,,,,,,,
31173388,-1.4696264,-2.3000188,17.434092,,,,,,,
31173389,,,,-1.6023827,-0.24756704,0.013244387,,,,
31173391,-1.6181462,-2.3934426,17.750296,,,,,,,
31173393,-1.7091743,-2.501239,18.04015,,,,,,,
31173394,,,,-1.4436585,-0.0052195922,0.12296653,19.262592,-3.5673914,-51.52009,
31173396,-1.6636603,-2.5419624,18.14076,,,,,,,
31173398,-1.632519,-2.5683126,18.128782,,,,,,,
31173399,,,,-1.2433889,0.18066889,0.2417434,,,,
31173401,-1.467231,-2.5850809,18.009008,,,,,,,
31173403,-1.2612199,-2.6258042,17.77425,,,,,,,
31173404,,,,-1.0287384,0.2978479,0.35412872,18.648727,-3.1622982,-53.39721,
31173406,-0.96897143,-2.6497588,17.489187,,,,,,,
31173408,-0.5976722,-2.6497588,17.041233,,,,,,,
31173409,,,,-0.8279362,0.34205633,0.43988243,,,,
31173411,-0.17127708,-2.676109,16.53579,,,,,,,
31173413,0.3030277,-2.6880863,15.944105,,,,,,,
31173414,,,,-0.64258033,0.33459947,0.4979393,18.0322,-2.4322748,-53.266243,
31173416,0.71744543,-2.6473634,15.292535,,,,,,,
31173418,1.2803829,-2.5683126,14.5619135,,,,,,,
31173419,,,,-0.48545393,0.30157632,0.5176467,,,,
31173421,1.7834334,-2.4940526,13.886389,,,,,,,
31173423,2.387094,-2.429375,13.110254,,,,,,,
31173424,,,,-0.36348128,0.25044367,0.5006024,19.722202,-1.7984276,-51.99343,
31173426,2.9596133,-2.395838,12.322142,,,,,,,
31173428,3.5968106,-2.2832506,11.478932,,,,,,,
31173429,,,,-0.291576,0.1907889,0.44680667,,,,
31173431,4.1357937,-2.1922224,10.609375,,,,,,,189.0
31173433,4.6053066,-2.1467083,9.876358,,,,,,,
31173434,,,,-0.26547703,0.14498256,0.34613922,18.800045,-2.692256,-51.696495,
31173436,5.0221205,-2.050889,9.150528,,,,,,,
31173438,5.2976007,-1.9191378,8.637896,,,,,,,
31173439,,,,-0.27240124,0.11994887,0.20445918,,,,
31173441,5.4724703,-1.8065501,8.213896,,,,,,,
31173443,5.5826626,-1.6604261,7.7443824,,,,,,,
31173444,,,,-0.30648968,0.102904655,0.039343346,17.87706,-2.8513575,-51.562843,
31173446,5.553917,-1.4951379,7.4425516,,,,,,,
31173449,5.4437246,-1.3681778,7.2053995,-0.3459044,0.091186754,-0.12204409,,,,
31173451,5.264064,-1.1573756,6.963456,,,,,,,
31173454,5.0149336,-0.9585508,6.812541,-0.3773297,0.09598044,-0.26478937,17.105873,-0.52069855,-52.69236,
31173456,4.662799,-0.7884718,6.6879764,,,,,,,
31173459,4.317849,-0.61839294,6.635276,-0.39490655,0.1002415,-0.37770733,,,,
31173461,3.9369686,-0.47466418,6.496338,,,,,,,
31173464,3.5824378,-0.31895813,6.3190722,,,,18.027752,-0.92575645,-51.11709,
31173465,,,,-0.3975697,0.1002415,-0.4512105,,,,
31173466,3.1488562,-0.21116155,6.050779,,,,,,,
31173469,2.832653,-0.108155996,5.8184175,,,,,,,
31173470,,,,-0.39117813,0.09598044,-0.48955998,,,,
31173471,2.506868,0.009222448,5.554915,,,,,,,
31173474,2.207433,0.10504159,5.334531,,,,18.18203,-0.49509144,-52.046837,
31173475,,,,-0.3906455,0.091186754,-0.4884947,,,,
31173476,1.9247665,0.19127882,5.05426,,,,,,,
31173479,1.6780324,0.22242004,4.865017,,,,,,,
31173480,,,,-0.40289602,0.097045705,-0.4613305,,,,
31173481,1.5055579,0.25835222,4.642237,,,,,,,210.0
31173484,1.3690156,0.25356126,4.409876,,,,18.182377,-0.4997244,-52.356316,
31173485,,,,-0.42100552,0.11994887,-0.41925257,,,,
31173486,1.2037276,0.23918839,4.191888,,,,,,,
31173489,1.0144848,0.20804717,4.028995,,,,,,,
31173490,,,,-0.44710445,0.15936361,-0.36811996,,,,
31173491,0.9042927,0.19127882,3.8205886,,,,,,,
31173494,0.79410076,0.14336924,3.621764,,,,18.180096,0.5437193,-51.594627,
31173495,,,,-0.47746447,0.21742049,-0.3052694,,,,
31173496,0.6479766,0.09066872,3.4444985,,,,,,,
31173499,0.49945688,0.07150489,3.3894026,,,,,,,
31173500,,,,-0.51421607,0.29571736,-0.23709254,,,,
31173501,0.36291462,0.08348228,3.3846116,,,,,,,
31173504,0.3102141,0.18648785,3.4037752,,,,18.179398,0.5529852,-50.975685,
31173505,,,,-0.54723924,0.38679737,-0.17211147,,,,
31173506,0.20720854,0.19846526,3.4995947,,,,,,,
31173509,0.1449261,0.18888333,3.6002045,,,,,,,
31173510,,,,-0.5637508,0.47201848,-0.11085881,,,,
31173511,0.11378488,0.227211,3.7151875,,,,,,,
31173514,0.073061705,0.15055569,3.961922,,,,17.721382,-1.381917,-51.738503,
31173515,,,,-0.5600224,0.5428584,-0.057063006,,,,
31173516,-0.00598906,0.13378733,4.251775,,,,,,,
31173519,-0.013175502,0.18409237,4.613492,,,,,,,
31173520,,,,-0.52753186,0.58653426,-0.014985095,,,,
31173521,-0.116181076,0.14336924,5.023119,,,,,,,
31173524,-0.16648611,0.1146235,5.4519095,,,,18.028446,-0.9350214,-51.73603,
31173525,,,,-0.45562658,0.5918606,0.018570706,,,,
31173526,-0.19762734,0.07629584,5.847163,,,,,,,
31173529,-0.2694917,0.093064204,6.206485,,,,,,,
31173530,,,,-0.33951285,0.5497827,0.048398085,,,,
31173531,-0.24793239,0.049945578,6.469988,,,,,,,233.0
31173534,-0.16409063,-0.053059995,6.6855807,,,,17.410595,0.39158726,-51.147697,
31173535,,,,-0.18132122,0.46189848,0.07183388,,,,
31173536,-0.07066698,-0.19918418,6.8317046,,,,,,,
31173539,0.027547628,-0.26865306,6.826914,,,,,,,
31173540,,,,-0.0050201053,0.32288158,0.09313914,,,,
31173541,0.13534415,-0.3477039,6.8484735,,,,,,,
31173544,0.21199948,-0.42196366,6.795773,,,,17.562492,0.5644932,-49.598274,
31173545,,,,0.16435678,0.13006888,0.103259146,,,,
31173546,0.2814684,-0.5249692,6.620903,,,,,,,
31173549,0.38686943,-0.56808794,6.3262587,,,,,,,
31173550,,,,0.3071021,-0.12346384,0.101661265,,,,
31173551,0.46831566,-0.6543251,5.9477735,,,,,,,
31173554,0.5162253,-0.67588437,5.5165873,,,,18.024532,1.4327888,-51.144493,
31173555,,,,0.40031266,-0.4084218,0.093671784,,,,
31173557,0.5329936,-0.70702565,5.071028,,,,,,,
31173559,0.5809032,-0.7213985,4.567978,,,,,,,
31173560,,,,0.43173793,-0.67899877,0.08301915,,,,
31173562,0.68151325,-0.70702565,4.1200233,,,,,,,
31173564,0.6934907,-0.6902572,3.7080011,,,,18.179348,0.8431711,-51.28858,
31173565,,,,0.4077695,-0.88565993,0.077160195,,,,
31173567,0.6910952,-0.7333758,3.3846116,,,,,,,
31173569,0.7366092,-0.77889,3.080386,,,,,,,
31173570,,,,0.33320105,-1.0097631,0.07662757,,,,
31173572,0.7749369,-0.8531499,2.9342616,,,,,,,
31173574,0.82763755,-0.9896921,2.812092,,,,17.409378,0.40780067,-50.064583,
31173575,,,,0.21282628,-1.0369272,0.085149676,,,,
31173577,0.91387475,-1.0711384,2.8240695,,,,,,,
31173579,1.0001118,-1.2004942,2.910307,,,,,,,
31173580,,,,0.07380939,-0.960761,0.101661265,,,,
31173582,1.0552078,-1.3322455,3.1211088,,,,,,,
31173584,1.1414452,-1.4520195,3.3678432,,,,17.104656,-0.50448513,-51.609245,
31173585,,,,-0.07000118,-0.79724306,0.123499155,,,,
31173587,1.1773773,-1.6077255,3.6600916,,,,,,,
31173589,1.1462362,-1.7778045,3.9691083,,,,,,,
31173590,,,,-0.19783281,-0.5575587,0.14853285,,,,
31173592,1.2013321,-1.9670473,4.32843,,,,,,,
31173594,1.2684056,-2.1970134,4.819503,,,,16.640202,0.3961277,-50.08358,
31173595,,,,-0.30968547,-0.2640786,0.17516443,,,,
31173597,1.4097388,-2.6114311,5.3632765,,,,,,,
31173599,1.6037725,-2.9779394,5.9669375,,,,,,,
31173600,,,,-0.3970371,0.04218463,0.2012634,,,,
31173602,1.656473,-3.4091256,6.7718177,,,,,,,
31173604,1.6804278,-3.8738482,7.6246085,,,,16.027647,-1.5318432,-50.23124,
31173605,,,,-0.4545613,0.30583736,0.21937287,,,,
31173607,1.6229364,-4.225983,8.5828,,,,,,,
31173609,1.5438855,-4.4655313,9.576922,,,,,,,
31173610,,,,-0.46894237,0.49705216,0.23375392,,,,
31173612,1.4169251,-4.6643558,10.686029,,,,,,,
31173614,1.321106,-4.750593,11.78795,,,,15.257185,0.6444559,-51.82325,
31173615,,,,-0.4172771,0.6099701,0.25985292,,,,
31173617,1.2372643,-4.834435,12.873102,,,,,,,
31173619,1.1677954,-4.88474,13.900762,,,,,,,
31173620,,,,-0.2899781,0.6355364,0.29607186,,,,
31173622,1.100722,-4.939836,14.873326,,,,,,,
31173624,0.9090837,-4.7865252,15.714139,,,,17.409515,-0.3176632,-49.282356,
31173625,,,,-0.09343698,0.5748164,0.3440087,,,,
31173627,0.5210162,-4.3265934,16.399246,,,,,,,
31173629,0.053897917,-3.5600405,17.002907,,,,,,,
31173630,,,,0.17554206,0.46775743,0.41005507,,,,
31173631,,,,,,,,,,184.0
31173632,-0.49945763,-2.5156121,17.482002,,,,,,,
31173634,-0.76535577,-1.4448329,17.886837,,,,17.104713,-0.7946701,-51.29635,
31173635,,,,0.5132306,0.34951317,0.5006024,,,,
31173637,-0.6623502,-0.608811,18.121595,,,,,,,
31173639,-0.13055395,-0.3500993,18.109617,,,,,,,
31173640,,,,0.8695612,0.17054889,0.59967196,,,,
31173642,0.6719314,-0.53694665,17.829346,,,,,,,
31173644,1.6253318,-0.9609463,17.127472,,,,18.025665,-0.8979616,-49.260307,
31173645,,,,1.173694,-0.114409104,0.65240246,,,,
31173647,2.5667548,-1.4065053,16.097416,,,,,,,
31173649,3.3452854,-1.6987537,14.789485,,,,,,,
31173650,,,,1.3755614,-0.3983018,0.61778146,,,,
31173652,4.06872,-1.725104,13.347406,,,,,,,
