Date created: 2021-10-22-21-28-53-142000000
Timestamp,acc_x,acc_y,acc_z,gyro_x,gyro_y,gyro_z,mag_x,mag_y,mag_z,light
30327220,0.06108433,-0.09138766,9.136155,0.03179645,-0.025261726,0.06921216,,,,
30327225,0.0023951083,-0.091387644,9.04872,-0.0081509305,0.010957235,0.06708164,4.9570885,-8.577202,-47.02021,
30327230,-0.019164197,-0.15846105,8.945715,-0.05022884,0.045045663,0.06708164,,,,
30327235,-0.062282808,-0.15247235,8.963681,-0.098698325,0.072742514,0.07187533,5.263197,-8.551685,-45.620018,
30327240,-0.06587602,-0.13211077,9.052313,-0.14823307,0.09351516,0.07453848,,,,
30327245,-0.07066698,-0.12731983,9.229579,-0.18604992,0.11322253,0.07720164,6.798765,-6.609707,-45.44953,
30327250,-0.08384211,-0.1201334,9.434393,-0.21427941,0.13133201,0.07879954,,,,
30327255,-0.114983335,-0.14289044,9.685917,-0.23505205,0.13399518,0.07560374,6.3399944,-8.245159,-45.906303,
30327260,-0.14013585,-0.14289044,9.939838,-0.24623732,0.12174463,0.07507111,,,,
30327265,-0.11857655,-0.1788226,10.168607,-0.24197625,0.09458042,0.07773427,7.570114,-7.0611076,-46.818,
30327270,-0.086237594,-0.20397513,10.28359,-0.22706257,0.06368778,0.07507111,,,,
30327275,-0.098214984,-0.24110505,10.3949795,-0.20309414,0.030131977,0.07240795,7.2626896,-8.371613,-45.417595,
30327280,-0.101808205,-0.25308242,10.503974,-0.17326677,-0.0060869823,0.07613637,,,,
30327285,-0.08983081,-0.27104858,10.526731,-0.1386457,-0.036979627,0.079332165,4.649912,-8.4437275,-47.64846,
30327290,-0.039525762,-0.24230278,10.604584,-0.10455728,-0.058284897,0.08199533,,,,
30327295,-0.07665568,-0.25188473,10.708787,-0.07206675,-0.08331859,0.08093006,7.2604275,-5.5916862,-46.84272,
30327300,-0.08264438,-0.25308248,10.713577,-0.035315152,-0.11314597,0.08039743,,,,
30327305,-0.12576298,-0.25428018,10.701601,-1.6145402E-4,-0.14297333,0.0798648,5.4161167,-7.379347,-46.248833,
30327310,-0.20481378,-0.28422368,10.616562,0.036590137,-0.16161545,0.08572374,,,,
30327315,-0.18325448,-0.31895813,10.575838,0.076004885,-0.16960493,0.09424585,6.1847763,-7.3607254,-45.765648,
30327320,-0.12576298,-0.3489016,10.497985,0.1132891,-0.16161545,0.10383323,,,,
30327325,-0.026350625,-0.3872292,10.254844,0.14524703,-0.13604912,0.11288796,6.4928513,-7.650873,-45.754616,
30327330,0.05030468,-0.40998632,9.991341,0.17187862,-0.100895435,0.11768165,,,,
30327335,0.12696001,-0.4734665,9.762573,0.1867923,-0.056687,0.118746914,6.184986,-6.6398907,-46.857338,
30327340,0.20960401,-0.47466418,9.503861,0.18572704,-0.013543826,0.117149025,,,,
30327345,0.25032714,-0.40759084,9.263116,0.16708493,0.026403556,0.10756165,6.8002377,-7.0635147,-46.21807,
30327350,0.3162028,-0.31536487,9.057104,0.13512702,0.067948826,0.099572174,,,,
30327355,0.3317734,-0.21116155,8.903793,0.09358173,0.1126899,0.086256385,7.7250404,-8.231096,-46.33631,
30327360,0.35213497,-0.2051729,8.77324,0.0376554,0.16275729,0.07081006,,,,
30327365,0.3006322,-0.14528592,8.685805,-0.025727777,0.20217204,0.057494268,6.6489944,-8.837076,-46.356056,
30327370,0.24314068,-0.13330853,8.673828,-0.09070886,0.23626046,0.042580582,,,,
30327375,0.21319723,-0.066235125,8.773241,-0.16261414,0.26448995,0.028732156,6.341461,-9.567209,-45.58143,
30327380,0.15690346,-0.06982833,8.875048,-0.22919309,0.28472996,0.017546887,,,,
30327385,0.07905042,-0.059048682,9.051116,-0.2941742,0.29165417,0.007959516,5.418434,-7.699642,-47.947487,
30327390,-0.022757404,-0.04946676,9.235567,-0.3453068,0.28419733,-0.0026931195,,,,
30327395,-0.07905116,-0.056653216,9.519431,-0.3831237,0.27460995,-0.009617331,7.8767796,-6.319393,-46.818962,
30327400,-0.18924317,-0.055455476,9.790121,-0.40123317,0.26076153,-0.016541544,,,,
30327405,-0.23715273,-0.06144418,10.02368,-0.40602684,0.24478257,-0.019204704,7.5670013,-5.282933,-46.219612,
30327410,-0.32219225,-0.10096957,10.269217,-0.39910266,0.22187942,-0.016008914,,,,
30327415,-0.38687015,-0.16085653,10.387793,-0.3799279,0.18672572,-0.010682597,7.4175777,-7.5149345,-47.4356,
30327420,-0.42400005,-0.18720679,10.454866,-0.3564921,0.14997414,-0.0048236465,,,,
30327425,-0.40483624,-0.1967887,10.617759,-0.32400155,0.111092,0.0026331982,6.1844826,-7.6462765,-45.143272,
30327430,-0.41441816,-0.19918418,10.656086,-0.29044577,0.06528567,0.010090043,,,,
30327435,-0.36770633,-0.20756836,10.684832,-0.251031,0.01575092,0.019677414,7.107683,-6.766344,-46.36863,
30327440,-0.33776283,-0.24829152,10.69681,-0.20735519,-0.031120675,0.028199522,,,,
30327445,-0.2503279,-0.25308245,10.708787,-0.16474466,-0.070002794,0.030862683,7.568815,-6.6096153,-46.2042,
30327450,-0.14492682,-0.26865306,10.623747,-0.120003596,-0.09983017,0.031927943,,,,
30327455,-0.08863307,-0.31416714,10.536312,-0.0747299,-0.12166807,0.02713426,7.7237206,-6.7662716,-46.97236,
30327460,-0.03832802,-0.32973778,10.462053,-0.03851094,-0.1323207,0.019677414,,,,
30327465,0.0011973754,-0.3309355,10.37821,-0.0060204025,-0.13924493,0.010622675,6.338045,-6.193014,-46.703926,
30327470,-0.03832802,-0.3129694,10.1769905,0.01635013,-0.1424407,0.00316583,,,,
30327475,0.033536345,-0.25068697,10.065601,0.03499224,-0.13125543,-0.0032257512,6.185589,-7.082119,-46.852196,
30327480,0.10540068,-0.28901464,10.091951,0.05523225,-0.09769965,-0.010682597,,,,
30327485,0.16888088,-0.30099198,10.100335,0.079733305,-0.05881753,-0.016008914,7.26215,-7.3513317,-46.20324,
30327490,0.23595427,-0.38603148,10.0129,0.10103858,-0.018870145,-0.023998389,,,,
30327495,0.21319722,-0.38483375,9.943432,0.12021332,0.027468817,-0.03784681,6.3366356,-5.16115,-46.71592,
30327500,0.18684696,-0.35249478,9.895521,0.1298007,0.07061199,-0.057554185,,,,
30327505,0.101807475,-0.28661916,9.9063015,0.13352914,0.10310253,-0.0793921,6.4926033,-6.3450375,-47.162636,
30327510,-0.01796645,-0.24589601,9.924267,0.13565966,0.12174463,-0.09856684,,,,
30327515,-0.11378559,-0.19439323,9.957805,0.12926807,0.12600571,-0.10921948,6.4906883,-6.319557,-45.460564,
30327520,-0.27787587,-0.18720679,9.937443,0.12181122,0.121212,-0.11348052,,,,
30327525,-0.38207918,-0.15007688,9.97098,0.121278584,0.11375516,-0.10549106,5.5696144,-6.504137,-47.02897,
30327530,-0.46112996,-0.14289044,10.004517,0.121278584,0.09884147,-0.09963211,,,,
30327535,-0.41082492,-0.11055149,9.976969,0.11808279,0.072742514,-0.09004474,6.184023,-7.0612717,-45.459602,
30327540,-0.46592093,-0.09617859,9.960199,0.11222384,0.039186712,-0.080989994,,,,
30327545,-0.44795483,-0.06982835,9.966188,0.1063649,-7.606648E-4,-0.07885946,7.417715,-8.240398,-46.653374,
30327550,-0.50664407,-0.008743644,9.979364,0.10263647,-0.047099628,-0.0777942,,,,
30327555,-0.5509604,0.07270263,9.926662,0.10103858,-0.09397123,-0.07459842,6.338585,-7.213295,-45.91828,
30327560,-0.6204293,0.13019413,9.955409,0.097310156,-0.14031018,-0.066608936,,,,
30327565,-0.62042934,0.14336924,9.805692,0.08878805,-0.18345335,-0.056488924,6.6444435,-5.8819447,-45.926094,
30327570,-0.6252203,0.14097376,9.712268,0.078135416,-0.22073756,-0.041575238,,,,
30327575,-0.58210164,0.2092449,9.600878,0.061091196,-0.24736916,-0.028792074,5.41424,-6.630718,-45.483727,
30327580,-0.571322,0.20086072,9.566144,0.04457961,-0.26228285,-0.016541544,,,,
30327585,-0.6443841,0.27751604,9.562551,0.027002765,-0.27879444,-2.9960647E-5,7.569008,-7.625265,-45.109077,
30327590,-0.5653333,0.31464595,9.488291,0.012621708,-0.29850182,0.014883729,,,,
30327595,-0.56174004,0.32542562,9.507455,-0.0060204025,-0.31075236,0.029797418,7.2635975,-7.6600456,-47.128227,
30327600,-0.4946667,0.38052163,9.418822,-0.017738303,-0.31394812,0.043645844,,,,
30327605,-0.42519778,0.41166285,9.30863,-0.03744568,-0.3064913,0.054298483,6.800991,-7.3629684,-46.524117,
30327610,-0.38327694,0.4260357,9.259522,-0.05235937,-0.2899797,0.061222687,,,,
30327615,-0.295842,0.41405833,9.142143,-0.06940358,-0.2590871,0.066549,5.108326,-7.6718845,-45.78881,
30327620,-0.24194369,0.47634077,9.118189,-0.086447805,-0.2074218,0.0681469,,,,
30327625,-0.18924317,0.50987744,9.118189,-0.099763595,-0.13924493,0.0681469,5.418085,-7.695009,-47.638023,
30327630,-0.2299663,0.64043105,9.173285,-0.1082857,-0.060948055,0.0681469,,,,
30327635,-0.2503279,0.6655836,9.267906,-0.1098836,0.01575092,0.07187533,5.262657,-7.5314045,-46.405663,
30327640,-0.14492682,0.5541938,9.386482,-0.11094886,0.08978673,0.07560374,,,,
30327645,-0.047909938,0.53383225,9.506256,-0.10508992,0.1579636,0.069744796,6.6471806,-7.510393,-46.371468,
30327650,-0.025152892,0.507482,9.578121,-0.093904644,0.21548784,0.059092164,,,,
30327655,-0.13175169,0.51586616,9.617647,-0.07792569,0.26076153,0.04897216,7.1095963,-6.7918243,-48.070686,
30327660,-0.24793239,0.5661712,9.677533,-0.064077266,0.28899103,0.043645844,,,,
30327665,-0.3401583,0.7158886,9.744606,-0.047565684,0.29804575,0.044711106,6.4907455,-6.609743,-45.147667,
30327670,-0.46112996,0.7913462,9.836833,-0.032651994,0.28472996,0.054298483,,,,
30327675,-0.40723172,0.8021258,9.949421,-0.016140407,0.24957627,0.05696164,6.491596,-5.607992,-47.171196,
30327680,-0.38567242,0.8021258,10.004517,0.0035669683,0.20430256,0.053233214,,,,
30327685,-0.3245877,0.7673914,10.040448,0.024872238,0.1494415,0.04311321,6.0318375,-7.5197315,-46.386665,
30327690,-0.26230526,0.7853575,10.009307,0.048840664,0.09085199,0.025003733,,,,
30327695,-0.31979674,0.8284761,9.959002,0.07067856,0.026936186,0.0063616205,6.798418,-6.605074,-45.140068,
30327700,-0.31141257,0.8596173,9.920674,0.08719015,-0.03431647,-0.013878386,,,,
30327705,-0.32338998,0.89914274,9.911093,0.10370173,-0.085449114,-0.035183653,5.723074,-6.3520775,-46.872154,
30327710,-0.25631654,0.9183066,9.900312,0.117550164,-0.12965754,-0.058619447,,,,
30327715,-0.26470074,0.8955495,9.852403,0.13565966,-0.15948492,-0.0793921,5.724888,-7.6787586,-46.85676,
30327720,-0.33297187,0.84284896,9.754189,0.15430176,-0.18451862,-0.101229995,,,,
30327725,-0.4383729,0.8919563,9.7745495,0.16868281,-0.20316073,-0.11507843,7.4140263,-6.1650906,-45.903664,
30327730,-0.57012427,0.90992236,9.725443,0.18625967,-0.22872706,-0.11933947,,,,
30327735,-0.69588685,0.99855506,9.544584,0.19211863,-0.25642392,-0.11720895,7.4140263,-6.1650906,-45.903664,
30327740,-0.73062134,1.1542611,9.222392,0.17880283,-0.2835881,-0.107088946,,,,
30327745,0.9522023,0.199663,9.047523,0.12553965,-0.37307027,-0.11774158,4.6476326,-7.400284,-46.886772,
30327750,-0.008384556,0.5014933,9.721849,0.03499224,-0.5120871,-0.17473318,,,,
30327755,-0.95699406,1.1446793,9.210415,0.01954592,-0.5259356,-0.18804897,6.645092,-7.4825974,-44.51467,
30327760,-1.4828016,1.7004304,8.543274,0.030198557,-0.402365,-0.15396053,,,,
30327765,-1.6001799,2.0381927,8.601963,0.032329082,-0.24683654,-0.096436314,5.262867,-6.8105736,-47.497353,
30327770,-1.1654006,2.0070515,8.999613,0.0014364414,-0.16268072,-0.038912073,,,,
30327775,-0.74020326,1.7411535,9.379296,-0.055022527,-0.14776702,-0.0032257512,5.7245407,-7.6741276,-46.54728,
30327780,-0.58569485,1.4908259,9.673941,-0.09710044,-0.12965754,0.0042310935,,,,
30327785,-0.3389606,1.2129505,9.776945,-0.10295938,-0.06947017,-0.008552069,6.80381,-9.426693,-46.500145,
30327790,-0.15929969,0.9123179,9.954211,-0.08591517,0.012555129,-0.030922601,,,,
30327795,-0.15570647,0.72906375,10.238075,-0.05662042,0.09244989,-0.05702156,4.186014,-6.8269157,-47.52395,
30327800,-0.3245877,0.6919338,10.469239,-0.030521467,0.14251728,-0.06927209,,,,
30327805,-0.3209945,0.6236627,10.606978,-0.0070856675,0.1595615,-0.06873946,5.4157505,-6.3613796,-47.18923,
30327810,0.5305981,0.09066872,10.724358,-0.004422508,0.11162463,-0.08578368,,,,223.0
30327815,0.0203612,0.1876856,10.9363575,-0.01454251,0.025338292,-0.13585106,5.416813,-7.388611,-46.867775,
30327820,-0.7030733,0.75301856,10.556674,0.024872238,0.023740396,-0.15875421,,,,
30327825,-1.1258752,1.1794138,10.016493,0.08346173,0.09777621,-0.14384054,4.9531174,-5.9192066,-46.741554,
30327830,-1.2480447,1.4596847,9.823657,0.114354365,0.17181203,-0.115611054,,,,
30327835,-1.1007228,1.4608824,9.798505,0.10423437,0.18246466,-0.07726157,4.4946938,-7.559292,-47.50779,
30327840,-1.0432312,1.3830295,9.778144,0.06854804,0.13506043,-0.045836292,,,,
30327845,-0.9725647,1.1901934,9.903906,0.030731188,0.06262251,-0.023465758,7.4196835,-8.556063,-48.04255,
30327850,-0.84440655,0.99855506,9.853601,-0.0012267176,-0.018337512,-0.012280491,,,,
30327855,-0.7258304,0.8668037,9.947025,-0.017205669,-0.09450386,-0.012280491,4.184284,-5.9355125,-47.070015,
30327860,-0.594079,0.9183065,10.10872,-0.024129882,-0.14883229,-0.021867862,,,,207.0
30327865,-0.5509604,0.9901709,10.175793,-0.018270934,-0.17546387,-0.027726812,6.1842346,-6.3404408,-46.551292,
30327870,-0.65995467,1.0512556,10.241669,-0.0054877717,-0.1861165,-0.026661547,,,,
30327875,-0.65516376,0.99136865,10.386595,0.0056974953,-0.19091019,-0.022933127,6.799635,-6.6212883,-46.223198,
30327880,-0.5964745,0.9590297,10.48481,0.008360654,-0.19091019,-0.021335231,,,,
30327885,-0.5485649,0.893154,10.639318,0.0142196035,-0.18718177,-0.027726812,6.491852,-6.0455856,-46.85659,
30327890,-0.5976723,0.85003537,10.718369,0.03179645,-0.17439862,-0.038912073,,,,
30327895,-0.66714114,0.8727924,10.78664,0.05629751,-0.15628913,-0.045303658,7.4162407,-7.7865887,-45.884834,
30327900,-0.74140096,0.88117665,10.832154,0.080798574,-0.13498387,-0.04743419,,,,
30327905,-0.8036834,0.8835721,10.847725,0.10956068,-0.11421123,-0.038379446,4.493824,-7.5477104,-46.734123,
30327910,-0.8384178,0.9015382,10.808199,0.13565966,-0.09983017,-0.025596285,,,,184.0
30327915,-0.8420111,0.8991427,10.648901,0.1548344,-0.083851226,-0.011215228,4.6477413,-7.980654,-46.26098,
30327920,-0.83362687,0.94825,10.457262,0.16655229,-0.07053543,5.026711E-4,,,,
30327925,-0.87195456,0.97460026,10.307545,0.17028072,-0.06520911,0.011155306,6.0331917,-8.26141,-46.68757,
30327930,-0.8503952,1.072815,10.160223,0.16282387,-0.066807,0.025003733,,,,
30327935,-0.8156608,1.1554589,10.081171,0.15057334,-0.07266595,0.038319528,4.494034,-6.8268795,-47.825813,
30327940,-0.70666647,1.1698318,9.949421,0.12926807,-0.077992275,0.046841636,,,,
30327945,-0.54976267,1.1267133,9.964991,0.105832264,-0.08331859,0.05483111,6.341734,-8.268322,-47.453636,
30327950,-0.35692665,1.0141256,10.081171,,,,,,,
30327955,-0.2503279,0.90752685,10.167409,0.089320675,-0.0902428,0.057494268,6.4930077,-6.6398544,-47.159203,
30327960,-0.14492682,0.8045213,10.38899,0.07280909,-0.09450386,0.052167952,,,,161.0
30327965,-0.033537067,0.7386457,10.556674,0.070145935,-0.10249334,0.04417848,5.1102943,-7.987547,-47.178,
30327970,0.03353633,0.67995644,10.64411,0.07334173,-0.1237986,0.032993205,,,,
30327975,0.023954421,0.6715722,10.694414,0.07866804,-0.15309334,0.017546887,6.4914417,-6.619009,-45.76661,
30327980,0.053897902,0.7027135,10.8046055,0.07920068,-0.19091019,0.0036984617,,,,
30327985,0.18804471,0.6320469,10.910007,0.0829291,-0.22712916,-0.009617331,5.7267647,-8.427385,-47.621864,
30327990,0.34135532,0.6164763,10.960312,0.08505962,-0.2612176,-0.026661547,,,,
30327995,0.4383722,0.49071363,10.9627075,0.08878805,-0.2915776,-0.051695243,5.5740566,-8.878899,-48.084724,
30328000,0.49586368,0.46556112,10.895634,0.096244894,-0.3048934,-0.08738157,,,,
30328005,0.5006547,0.38770807,10.796222,0.1063649,-0.3000997,-0.12253528,4.34083,-7.4165344,-47.668037,
30328010,0.48029307,0.32063466,10.580629,0.11701753,-0.27772915,-0.14969948,,,,138.0
30328015,0.39405584,0.3194369,10.3949795,0.12394174,-0.2479018,-0.16887422,5.724594,-7.9643116,-46.234383,
30328020,0.3557282,0.3002731,10.234482,0.119680695,-0.19517125,-0.1800595,,,,
30328025,0.27787516,0.30506405,10.066798,0.1063649,-0.12965754,-0.18645106,6.4953403,-7.973484,-47.607994,
30328030,0.21080172,0.34818268,9.913488,0.07920068,-0.066274375,-0.19071212,,,,
30328035,0.14612384,0.38770807,9.908697,0.039785925,3.0459874E-4,-0.19071212,5.5733604,-8.869633,-47.465782,
30328040,0.09821424,0.48831815,9.949419,-0.00495514,0.0541004,-0.18964687,,,,
30328045,0.010779299,0.48352718,10.021284,-0.05608779,0.101504624,-0.18911423,4.494171,-7.5523434,-47.043587,
30328050,-0.04910767,0.47274756,10.102731,-0.10136149,0.13985412,-0.18378791,,,,
30328055,-0.12696072,0.4044764,10.210527,-0.13811307,0.17447518,-0.17207001,4.338743,-7.3887405,-45.81124,
30328060,-0.1569042,0.28350472,10.4081545,-0.17592992,0.19418256,-0.15449317,,,,117.0
30328065,-0.12696072,0.16373082,10.60099,-0.20309414,0.19471519,-0.12892684,6.186863,-7.3885193,-47.622444,
30328070,-0.10899464,0.12300768,10.768674,-0.22067098,0.17926887,-0.10229526,,,,
30328075,-0.01916419,0.12420542,10.973488,-0.23185626,0.1478436,-0.074065775,6.4948196,-7.9665356,-47.143806,
30328080,0.09701651,0.09785516,11.143566,-0.23185626,0.10736358,-0.050629973,,,,
30328085,0.2706887,0.10743707,11.43821,-0.22546467,0.06315514,-0.034651026,5.1109524,-8.719959,-46.859962,
30328090,0.46112925,0.073900364,11.767589,-0.20415941,0.019479342,-0.026661547,,,,
30328095,0.6851065,0.0595275,12.045464,-0.1706036,-0.023131197,-0.035183653,7.4198017,-8.268194,-48.51017,
30328100,0.862372,-0.062641904,12.178413,-0.11680781,-0.059882794,-0.052760504,,,,
30328105,1.0192757,-0.12492435,12.170029,-0.045435157,-0.085449114,-0.074065775,6.342081,-8.272955,-47.7631,
30328110,1.1546203,-0.22912765,12.050255,0.04457961,-0.09663438,-0.09430579,,,,98.0
30328115,1.2013321,-0.29620108,11.8538265,0.1313986,-0.09184069,-0.11348052,7.109907,-7.5196037,-47.4432,
30328120,1.2288802,-0.2818282,11.649012,0.21555442,-0.08598175,-0.12839422,,,,
30328125,1.2240891,-0.29859653,11.474142,0.28905758,-0.08331859,-0.13957947,7.571581,-8.383158,-46.493126,
30328130,1.3103263,-0.22553441,11.198662,0.35084286,-0.08491649,-0.14703631,,,,
30328135,1.3893772,-0.16684522,10.959114,0.4051713,-0.09663438,-0.15928686,7.110201,-7.2340508,-48.06556,
30328140,1.4983714,-0.18600905,10.785442,0.44565132,-0.11527649,-0.17366791,,,,
30328145,1.5870041,-0.19439322,10.669262,0.46855447,-0.13817964,-0.19976686,7.420746,-9.583296,-47.721092,
30328150,1.6504843,-0.21954575,10.417736,0.48293555,-0.16214807,-0.23279002,,,,
30328155,1.6828232,-0.23990732,10.090754,0.49412084,-0.17493124,-0.26847637,6.4966965,-8.715162,-47.908913,
30328160,1.6900098,-0.21355706,9.821262,0.49518606,-0.16694176,-0.31055427,,,,84.0
30328165,1.5929928,-0.15367009,9.550573,0.4861313,-0.14989756,-0.34730586,7.264658,-8.687275,-46.80677,
30328170,1.4181229,-0.06144418,9.314618,0.46802187,-0.12592912,-0.37447006,,,,
30328175,1.2013321,0.07150488,9.048719,0.43819445,-0.09503649,-0.39630795,8.340412,-8.366852,-46.164665,
30328180,0.92225885,0.18888333,8.961286,0.40250814,-0.06574174,-0.41068903,,,,
30328185,0.6755246,0.30745953,8.841511,0.36096287,-0.042305943,-0.41335216,5.4185715,-8.425106,-47.16526,
30328190,0.53419137,0.4008832,8.896607,0.3172871,-0.024729092,-0.40642798,,,,
30328195,0.4323835,0.48472494,8.890618,0.27680704,-0.013543826,-0.39417744,6.6487827,-9.557907,-45.264366,
30328200,0.38567165,0.4895159,8.76845,0.23472916,-0.0060869823,-0.3787311,,,,
30328205,0.39285815,0.4511882,8.634302,0.19637968,0.0024351259,-0.35902375,7.2694473,-11.066669,-48.171974,
30328210,0.35932142,0.41046512,8.51932,0.14950807,0.013620393,-0.33239216,,,,
30328215,0.39645132,0.41166285,8.352833,0.097310156,0.02853408,-0.30682585,6.4972363,-9.735445,-47.123253,
30328220,0.45514056,0.39489448,8.276178,0.036590137,0.05250251,-0.27859634,,,,
30328225,0.544971,0.41046512,8.219885,-0.026260411,0.08019936,-0.24557321,7.416689,-9.239832,-44.47512,
30328230,0.64917433,0.36375326,8.252224,-0.08964359,0.11055937,-0.22107214,,,,
30328235,0.76295954,0.35417134,8.352834,-0.14610255,0.14091939,-0.20189738,7.4177704,-8.530582,-46.340492,
30328240,1.0444283,0.3889058,8.562439,-0.19989836,0.1696815,-0.19284265,,,,
30328245,1.2516372,0.36974198,8.866664,-0.23824783,0.20749836,-0.19976686,7.417055,-7.507986,-46.971397,
30328250,1.3450608,0.37932387,9.127771,-0.2558247,0.24957627,-0.22107214,,,,
30328255,1.4049478,0.36375326,9.447568,-0.2542268,0.28952366,-0.25089955,8.0356865,-9.279137,-47.709328,
30328260,1.4169252,0.31105274,9.633217,-0.23238888,0.32414472,-0.2812595,,,,
30328265,1.2899648,0.35656685,9.699092,-0.19989836,0.34971103,-0.3100216,7.7261944,-8.825367,-46.638924,
30328270,1.0995243,0.44400182,9.702686,-0.16048361,0.3640921,-0.33505532,,,,
30328275,0.85039455,0.57096213,9.59968,-0.1231994,0.37314683,-0.35423005,7.573393,-9.709839,-46.477715,
30328280,0.6575585,0.72906375,9.514641,-0.08751307,0.37634262,-0.36754584,,,,
30328285,0.48867726,0.81410325,9.416426,-0.05768569,0.37581,-0.37180692,8.035744,-9.5693245,-47.39643,
30328290,0.3497395,0.8991427,9.373307,-0.02998883,0.36995104,-0.37180692,,,,
30328295,0.20241757,0.94585454,9.283478,-1.6145402E-4,0.35983104,-0.3664806,8.803394,-8.813658,-46.92179,
30328300,0.0479092,0.97699577,9.140945,0.03179645,0.35556996,-0.3547627,,,,
30328305,-0.0898308,0.97699577,9.0475235,0.066417515,0.3502437,-0.3366532,9.415525,-8.327347,-44.590736,
30328310,-0.24074596,1.0021483,9.012788,0.09890805,0.33799312,-0.3110869,,,,92.0
30328315,-0.42160457,1.0895833,8.998415,0.1298007,0.3124268,-0.28498793,8.957256,-8.956413,-46.76156,
30328320,-0.64917505,1.1842046,8.951703,0.16175862,0.27407733,-0.2610195,,,,
30328325,-0.7677512,1.301583,8.934935,0.19584705,0.22933625,-0.23225741,10.802868,-10.370062,-44.53257,
30328330,-0.8599771,1.4321368,8.825941,0.23259863,0.1766057,-0.19816896,,,,
30328335,-0.91866636,1.5171762,8.695387,0.26455653,0.12014674,-0.16461317,8.9555,-7.919918,-46.464073,
30328340,-0.99412394,1.5974247,8.524111,0.2906555,0.059959352,-0.13212264,,,,
30328345,-0.961785,1.6369501,8.319297,0.3092976,-0.0028911917,-0.10176263,9.417961,-8.359774,-46.75701,
30328350,-0.901898,1.6716845,8.09532,0.3092976,-0.061480686,-0.07353315,,,,
30328355,-0.8444065,1.6489275,7.8857155,0.29331863,-0.114743866,-0.051162608,9.725222,-8.928528,-45.659416,
30328360,-0.7258303,1.6656959,7.722823,0.26508915,-0.16427861,-0.035183653,,,,
30328365,-0.62162703,1.7303739,7.611433,0.21981548,-0.20688915,-0.026661547,10.648621,-8.196005,-46.88305,
30328370,-0.53538984,1.7603173,7.5575347,0.16921546,-0.22979231,-0.021867862,,,,
30328375,-0.4743051,1.7663059,7.4760885,0.1164849,-0.23831442,-0.0208026,10.803638,-8.933031,-47.02543,
30328380,-0.44795486,1.7663059,7.314394,0.05576488,-0.22659653,-0.010682597,,,,
30328385,-0.37249726,1.7171986,7.147908,-0.011346721,-0.19250809,0.0068942523,9.574507,-9.8407955,-47.355003,
30328390,-0.36650857,1.7507353,7.0461,-0.080588855,-0.13817964,0.026601626,,,,
30328395,-0.33656508,1.7758878,7.1407213,-0.15675518,-0.07532912,0.051635325,10.651955,-11.13492,-46.22988,
30328400,-0.34974024,1.7830744,7.4030266,-0.22972573,-0.011945931,0.084125854,,,,
30328405,-0.35932216,1.7794812,7.7707324,-0.2931089,0.047708824,0.11768165,8.80311,-8.230968,-47.392845,
30328410,-0.406034,1.8369726,8.271387,-0.33571947,0.09830884,0.1517701,,,,
30328415,-0.4168136,1.8345771,8.694189,-0.3532963,0.13133201,0.1906522,8.03644,-9.57859,-48.015373,
30328420,-0.346147,1.8681139,9.081059,-0.3511658,0.1462457,0.22846907,,,,
30328425,-0.23236178,1.8237975,9.327793,-0.32772997,0.14890887,0.2657533,9.113293,-9.562248,-47.988777,
30328430,-0.0898308,1.7675037,9.518234,-0.29257628,0.14571308,0.29664594,,,,
30328435,0.0059883296,1.7579218,9.682324,-0.24357416,0.13932149,0.32008174,9.574396,-9.260424,-47.980797,
30328440,0.13893738,1.6968371,9.882347,-0.18445203,0.12547307,0.3344628,,,,
30328445,0.34375077,1.6872553,10.079973,-0.111481495,0.10310253,0.34511545,9.726749,-9.672522,-46.11506,
30328450,0.4790953,1.6321592,10.155432,-0.03797831,0.06741619,0.34724596,,,,
30328455,0.6156376,1.6633004,10.147047,0.029133294,0.014153026,0.34245226,10.1875725,-8.788013,-46.578133,
30328460,0.7617618,1.6381478,10.066799,0.08719015,-0.05615437,0.32647333,,,,101.0
30328465,0.9773549,1.6824642,9.913488,0.12820281,-0.14084281,0.30143964,10.1875725,-8.788013,-46.578133,
30328470,1.2408575,1.7100122,9.750595,0.1463123,-0.21754178,0.26735118,,,,
30328475,1.536699,1.7555263,9.63681,0.15536703,-0.2628155,0.2204796,9.575861,-10.582474,-47.655922,
30328480,1.666055,1.771097,9.501465,0.16868281,-0.26441336,0.16881432,,,,
30328485,1.7079759,1.6956394,9.454754,0.17880283,-0.22553125,0.11821429,8.648836,-8.661633,-46.46311,
30328490,1.6253319,1.6117976,9.434393,0.17933546,-0.16214807,0.066549,,,,
30328495,1.463637,1.5543061,9.515839,0.17454177,-0.09556912,0.023938468,8.805271,-9.562284,-47.686897,
30328500,1.1917503,1.5962269,9.669149,0.16708493,-0.042838577,-0.0032257512,,,,
30328505,0.86955833,1.6621027,9.839228,0.15430176,-0.006619614,-0.012813122,10.034714,-9.3822975,-46.72982,
30328510,0.57491446,1.7040235,9.969782,0.14737755,0.023740396,-0.0053562773,,,,
30328515,0.3269824,1.7746902,10.089556,0.14684492,0.051437244,0.0154163595,10.958912,-10.107653,-46.853188,
30328520,0.17367183,1.81182,10.073985,0.15163861,0.076470934,0.044711106,,,,
30328525,0.037129544,1.8956618,10.009307,0.14950807,0.10043936,0.078266904,10.80546,-9.391472,-48.103416,
30328530,-0.07905116,1.9423736,9.951816,0.13619228,0.12760359,0.11821429,,,,
30328535,-0.16409063,2.027413,9.969782,0.1132891,0.1494415,0.16029221,9.423346,-12.049633,-47.023674,
30328540,-0.18684769,2.036995,10.0452385,0.09251647,0.16382255,0.20769642,,,,
30328545,-0.22277987,1.9699216,10.11351,0.06695014,0.16914888,0.25829646,9.575321,-9.562193,-48.441566,
30328550,-0.13055396,1.9256053,10.173397,0.04138382,0.16488782,0.30676594,,,,
30328555,0.0095815435,1.8501477,10.426121,0.015284867,0.16222465,0.35576805,9.728609,-9.407814,-48.130013,
30328560,0.1329487,1.7399557,10.715973,-0.0017593494,0.15849625,0.39678073,,,,110.0
30328565,0.31260955,1.6489275,11.19986,9.038095E-4,0.15636571,0.4303365,10.192827,-10.884167,-48.720436,
30328570,0.4479541,1.6177862,11.592718,0.023806974,0.14571308,0.4500439,,,,
30328575,0.54018,1.5806563,11.928085,0.064286985,0.122809894,0.45909864,11.267712,-10.55216,-47.30465,
30328580,0.6336037,1.5746677,12.262255,0.1164849,0.08073199,0.458566,,,,
30328585,0.7042703,1.5099897,12.510187,0.17241125,0.026403556,0.4521744,9.886702,-12.646164,-47.933815,
30328590,0.8468013,1.43573,12.601215,0.232066,-0.0348491,0.4404565,,,,
30328595,0.94621366,1.3602724,12.595226,0.2906555,-0.093438596,0.42501017,10.19236,-11.167404,-47.943336,
30328600,1.0564057,1.2848147,12.514978,0.34658182,-0.13817964,0.40317228,,,,
30328605,1.0635922,1.2584646,12.475452,0.39398602,-0.16481124,0.37547544,9.423052,-12.335186,-46.401314,
30328610,1.0001119,1.2943966,12.394007,0.4349987,-0.1674744,0.35097438,,,,124.0
30328615,0.90309507,1.3938091,12.404785,0.47814184,-0.15043019,0.3243428,10.962738,-12.908424,-46.82067,
30328620,0.820451,1.5902383,12.417961,0.5244808,-0.114743866,0.29771122,,,,
30328625,0.7629595,1.6776733,12.468266,0.5708198,-0.08065543,0.27161223,9.119087,-12.678682,-49.34542,
30328630,0.75217986,1.7004304,12.425147,0.6166261,-0.057219636,0.24338275,,,,
30328635,0.79769397,1.6357524,12.229916,0.65710616,-0.044969104,0.20822906,10.961796,-11.593325,-47.609734,
30328640,0.90549046,1.4884305,11.995159,0.6927925,-0.03431647,0.17094484,,,,
30328645,0.9018973,1.4177638,11.746029,0.7258156,-0.012478563,0.13099745,10.65634,-13.219496,-47.598503,
30328650,0.89590853,1.3231424,11.387905,0.7476535,0.02160987,0.091050066,,,,
30328655,0.85877866,1.1854024,10.995047,0.7551104,0.059426717,0.048439533,11.424551,-11.747629,-48.525032,
30328660,0.7198409,1.0476624,10.499184,0.74072933,0.09351516,0.005296357,,,,134.0
30328665,0.6611517,0.8596173,10.07159,0.6938577,0.10736358,-0.041575238,7.579939,-13.125725,-48.140404,
30328670,0.5425755,0.667979,9.77455,0.61023456,0.09244989,-0.096436314,,,,
30328675,0.4778976,0.4224425,9.448765,0.4957187,0.04717619,-0.15875421,10.042934,-13.399405,-49.159325,
30328680,0.38327616,0.15175343,9.140946,0.34498394,-0.025794357,-0.22586581,,,,
30328685,0.33776212,-0.0865967,8.840313,0.17187862,-0.1019607,-0.2876511,11.425684,-14.078377,-46.640846,
30328690,0.19642888,-0.3093762,8.540878,-0.020401461,-0.16694176,-0.34411004,,,,
30328695,0.073061734,-0.57168114,8.376789,-0.22919309,-0.19091019,-0.38938376,9.734652,-13.830086,-48.07865,
30328700,-0.0682715,-0.67588437,8.3743925,-0.4422458,-0.15682177,-0.41441745,,,,
30328705,-0.3066216,-0.7848786,8.549263,-0.6339932,-0.07639438,-0.41974378,9.581364,-13.984465,-48.390205,
30328710,-0.60964966,-0.792065,9.021172,-0.800707,0.02800145,-0.40483007,,,,143.0
30328715,-0.9486098,-0.83518374,9.695499,-0.9343976,0.13665834,-0.3680785,9.885538,-12.920134,-46.53779,
30328720,-1.2672086,-0.80284476,10.392584,-1.024945,0.24531521,-0.31375003,,,,
30328725,-1.5642478,-0.7261895,11.078888,-1.0686208,0.34811312,-0.2503669,9.118738,-12.674049,-49.035957,
30328730,-1.8277504,-0.66869795,11.808311,-1.063827,0.4397258,-0.17260265,,,,
30328735,-2.0517278,-0.56928563,12.457486,-1.0164229,0.51429427,-0.09004474,11.115467,-10.720432,-48.544624,
30328740,-2.257739,-0.5393421,13.007248,-0.9306691,0.55797005,-0.0010952242,,,,
30328745,-2.3331966,-0.5177828,13.477961,-0.8097617,0.55797005,0.09051743,11.271437,-11.90432,-48.991325,
30328750,-2.3164282,-0.48783934,13.654028,-0.67127746,0.5164248,0.17733642,,,,
30328755,-2.1499424,-0.5824607,13.4719715,-0.5365217,0.44931316,0.25616592,11.117573,-11.761564,-49.151558,
30328760,-1.9690838,-0.6303703,13.115046,-0.4102879,0.3710163,0.3195491,,,,170.0
30328765,-1.7642703,-0.59324044,12.695836,-0.29950052,0.29804575,0.37174705,10.6553955,-11.904394,-48.38758,
30328770,-1.517536,-0.5177828,12.255068,-0.19830045,0.23093416,0.4148902,,,,
30328775,-1.3103272,-0.50341,11.775972,-0.11094886,0.16382255,0.4452502,11.116758,-12.040167,-48.064995,
30328780,-1.034847,-0.5249692,11.375927,-0.045967788,0.090319365,0.46229443,,,,
30328785,-0.8024857,-0.5668901,10.975883,0.0035669683,0.008826707,0.45909864,11.424431,-12.035498,-48.057396,
30328790,-0.56653106,-0.61599743,10.639318,0.038720664,-0.07905754,0.44258702,,,,
30328795,-0.38567242,-0.5992291,10.271612,0.061091196,-0.16161545,0.41275966,11.734703,-12.933811,-49.277412,
30328800,-0.2814691,-0.55491275,9.908697,0.07334173,-0.234586,0.37387756,,,,
30328805,-0.26470074,-0.42675465,9.489488,0.076004885,-0.28838181,0.3360607,9.578892,-11.925369,-48.72364,
30328810,-0.2778759,-0.29620108,9.140946,0.062689096,-0.31767654,0.30303752,,,,194.0
30328815,-0.30063292,-0.1752294,8.904991,0.04138382,-0.3283292,0.27214488,11.734301,-12.638994,-49.28083,
30328820,-0.235955,-0.043478087,8.921761,0.015284867,-0.3219376,0.24285012,,,,
30328825,-0.2994352,0.05473654,8.949308,-1.6145402E-4,-0.29743657,0.2172838,11.116062,-12.030901,-47.446083,
30328830,-0.26829395,0.06791167,9.016381,-0.012944615,-0.25429338,0.19970696,,,,
30328835,-0.24314144,-0.012336865,9.009195,-0.012944615,-0.2010302,0.18745641,11.885052,-11.00358,-48.522194,
30328840,-0.23954822,-0.094980866,9.000811,-0.016673038,-0.14510387,0.17573853,,,,
30328845,-0.17367256,-0.24230278,8.932539,-0.025195146,-0.09077543,0.16455325,10.039768,-11.331045,-48.873817,
30328850,-0.1844522,-0.30218977,8.926551,-0.036380414,-0.046566997,0.1517701,,,,
30328855,-0.20960474,-0.35129708,8.966076,-0.052892,-0.011945931,0.14058483,11.885454,-11.298397,-48.518776,
30328860,-0.2539211,-0.4051953,9.065489,-0.068870954,0.004565653,0.13206272,,,,211.0
30328865,-0.3030284,-0.36566997,9.047523,-0.078458324,0.006163548,0.123007976,9.73316,-12.362944,-48.55999,
30328870,-0.44316387,-0.32973778,9.1205845,-0.08378464,0.014153026,0.12034482,,,,
30328875,-0.46951416,-0.28661916,9.064291,-0.08698043,0.019479342,0.11768165,12.348078,-12.60881,-47.873024,
30328880,-0.45633903,-0.3249468,8.973263,-0.09283938,0.017881447,0.11555113,,,,
30328885,-0.42879102,-0.2890146,8.931342,-0.10508992,0.014153026,0.10756165,10.963608,-12.920006,-47.594337,
30328890,-0.38088143,-0.24829149,8.993625,-0.11574255,0.0056309165,0.09637638,,,,
30328895,-0.38447466,-0.17762487,9.066686,-0.12266676,-0.005021719,0.086256385,10.658318,-12.666918,-50.081093,
30328900,-0.42400005,-0.14648366,9.09663,-0.1184057,-0.012478563,0.081462696,,,,
30328905,-0.4551413,-0.13929722,9.142144,-0.1082857,-0.016739618,0.08359322,11.271143,-12.189873,-48.368965,
30328910,-0.3856724,-0.17043845,9.191251,-0.099763595,-0.018870145,0.08945217,,,,226.0
30328915,-0.2850623,-0.24948922,9.142143,-0.08751307,-0.017272249,0.09744165,10.040775,-12.06809,-48.865257,
30328920,-0.17606804,-0.31656262,9.118189,-0.0747299,-0.015141722,0.103300594,,,,
30328925,-0.15450874,-0.2973988,9.116991,-0.0662078,-0.011945931,0.10969217,10.654179,-11.88818,-47.30445,
30328930,-0.114983335,-0.32374907,9.065489,-0.05981621,-2.2803302E-4,0.113953225,,,,
30328935,-0.18564995,-0.24350056,9.13376,-0.036913045,0.024273029,0.12194271,12.350779,-12.21059,-50.818108,
30328940,-0.22397761,-0.13809948,9.182867,-0.0060204025,0.055165667,0.13312797,,,,
30328945,-0.32578546,-0.08180572,9.169692,0.02806803,0.09298252,0.15549852,11.733696,-12.196766,-49.285973,
30328950,-0.42040682,0.039165914,9.174483,0.073874354,0.12866884,0.18426064,,,,
30328955,-0.48987573,0.17331272,9.136156,0.12820281,0.16648571,0.21462063,10.8099,-11.766233,-49.159157,
30328960,-0.52580786,0.28709796,8.996019,0.18199861,0.19737835,0.24498065,,,,
30328965,-0.5401808,0.39369676,8.80558,0.22993548,0.22028153,0.26841646,12.193731,-11.735956,-48.506035,
30328970,-0.48748025,0.42124474,8.629511,0.27148074,0.2234773,0.28705856,,,,
30328975,-0.41441816,0.43561763,8.48698,0.30130813,0.21122678,0.2971786,12.194536,-12.32559,-48.4992,
30328980,-0.33177415,0.48472494,8.324088,0.3226134,0.17980151,0.2993091,,,,
30328985,-0.2874578,0.5446119,8.0438175,0.33007023,0.14997414,0.2961133,11.733658,-12.919914,-48.349007,
30328990,-0.27308494,0.7194818,7.914461,0.33379865,0.12600571,0.29291752,,,,
30328995,-0.20720926,0.8164987,7.854574,0.3396576,0.10576568,0.29078698,11.889837,-13.382971,-49.887398,
30329000,-0.09462176,0.89315397,7.7575574,0.33859235,0.08659094,0.29025435,,,,
30329005,0.0083838105,0.94585454,7.739591,0.33060285,0.067948826,0.28013438,12.193209,-11.729008,-48.041832,
30329010,0.07905042,1.0332896,7.7000656,0.32527655,0.050371982,0.26415542,,,,248.0
30329015,0.2251746,1.0943742,7.689286,0.3162218,0.035990924,0.2391217,11.885536,-11.733677,-48.04943,
30329020,0.36890337,1.1614475,7.606642,0.3061018,0.022142502,0.203968,,,,
30329025,0.5258072,1.1674364,7.539569,0.2895902,0.018946711,0.15816168,10.8133335,-13.403946,-50.223457,
30329030,0.6695359,1.1818092,7.386258,0.2656218,0.02160987,0.1001048,,,,
30329035,0.7354115,1.1866002,7.3359528,0.23739232,0.022142502,0.04417848,13.271736,-12.313881,-48.78205,
30329040,0.69947934,1.2021707,7.307207,0.20223862,0.022675134,-0.009617331,,,,
30329045,0.65636075,1.2201369,7.2413316,0.16601968,0.022142502,-0.056488924,11.734703,-12.933811,-49.277412,
30329050,0.5365868,1.2153459,7.229354,,,,,,,
30329055,0.4323835,1.2488825,7.3299646,0.121278584,0.023207765,-0.09111,11.1201,-14.110842,-48.50524,
30329060,0.27787513,1.366261,7.4425516,0.07653752,0.026403556,-0.12253528,,,,
30329065,0.1664854,1.4021932,7.703659,0.0376554,0.030131977,-0.14117737,12.810394,-13.191444,-47.85479,
30329070,-0.004791327,1.4908259,7.862958,-6.940858E-4,0.030131977,-0.15715633,,,,
30329075,-0.07186473,1.531549,8.098913,-0.028390938,0.023740396,-0.1667437,12.348288,-11.887978,-48.96473,
30329080,-0.20122057,1.4932214,8.381579,-0.05235937,0.021077238,-0.16461317,,,,
30329085,-0.38327694,1.4872327,8.675026,-0.06727306,0.016283551,-0.15289527,11.888273,-13.3621235,-48.494804,
30329090,-0.5832994,1.4788485,8.978054,-0.06674042,0.00669618,-0.13425316,,,,
30329095,-0.6359999,1.4141707,9.291862,-0.052892,-7.606648E-4,-0.10282789,11.427717,-13.815987,-48.810524,
30329100,-0.55694914,1.4081819,9.447567,-0.024662513,-0.01460909,-0.066608936,,,,
30329105,-0.47310737,1.301583,9.543386,0.015284867,-0.038044892,-0.03678155,13.273613,-13.062508,-49.547157,
30329110,-0.39884752,1.2452893,9.579319,0.050971195,-0.06307858,-0.020269966,,,,
30329115,-0.32578543,1.2201369,9.659567,0.08452699,-0.09450386,-0.0117478585,12.350046,-12.924473,-49.262215,
30329120,-0.31141257,1.1794138,9.915883,0.11382174,-0.12646176,-0.0053562773,,,,
30329125,-0.31261033,1.2620578,10.151838,0.15110599,-0.17067018,-0.008019437,12.9656105,-14.075878,-47.995445,
30329130,-0.3425538,1.2213346,10.204538,0.20117337,-0.25216284,-0.0117478585,,,,
30329135,-0.29344648,1.200973,10.079973,0.25443652,-0.37999448,-0.014943649,12.96735,-14.099041,-49.542778,
30329140,-0.050305404,1.0656285,9.670347,0.28799233,-0.5456429,-0.017074179,,,,
30329145,0.2635023,0.99376416,9.222393,0.28799233,-0.7214114,-0.026128916,11.118635,-12.788794,-48.8301,
30329150,0.49466592,0.9542387,8.888224,0.24804495,-0.87800515,-0.04743419,,,,
30329155,0.8036827,0.89554954,8.514528,0.18306388,-0.9951841,-0.07885946,12.042896,-12.93609,-49.734,
30329160,1.1570158,0.8632105,8.225874,0.10370173,-1.0452515,-0.119872116,,,,
30329165,1.4504619,0.73984337,8.151614,0.015817499,-1.0132936,-0.16887422,12.965015,-12.765411,-49.093987,
30329170,1.5510719,0.57335764,8.242641,-0.0848499,-0.9062347,-0.22639845,,,,
30329175,1.4348913,0.41166282,8.652268,-0.18658257,-0.7656199,-0.28498793,10.04072,-11.777906,-49.178154,
30329180,1.1031175,0.26793414,9.095432,-0.28458682,-0.6202114,-0.33345744,,,,
30329185,0.62042856,0.1601376,9.687115,-0.3730037,-0.46841136,-0.36221954,11.733255,-12.625097,-48.352425,
30329190,0.2946435,0.08587776,10.315928,-0.43691948,-0.3246008,-0.3648827,,,,
30329195,-0.022757404,0.0355727,10.966301,-0.4758016,-0.2010302,-0.34304482,12.351126,-12.215223,-51.127556,
30329200,-0.28865552,-0.01113911,11.519656,-0.48166054,-0.10036281,-0.3009669,,,,
30329205,-0.5341921,0.0032337606,12.002345,-0.46994266,-0.031120675,-0.25356266,10.963764,-11.908989,-48.998924,
30329210,-0.7198416,0.047550097,12.520967,-0.44277844,0.011489866,-0.20136477,,,,265.0
30329215,-0.78332186,0.16732404,12.8910675,-0.3996353,0.034393027,-0.1433079,12.501614,-11.010456,-49.590126,
30329220,-0.796497,0.22960648,13.07552,-0.3453068,0.029066715,-0.07832683,,,,
30329225,-0.67073435,0.23439744,12.808424,-0.2877826,3.0459874E-4,-0.014411018,12.501614,-11.010456,-49.590126,
30329230,-0.44436163,0.12300768,12.457486,-0.24730258,-0.030588042,0.04151532,,,,
30329235,-0.16648611,0.042759143,12.187995,-0.24463941,-0.05295858,0.086256385,12.961187,-9.964638,-49.12652,
30329240,0.088632345,0.008024722,12.007135,-0.27127102,-0.062013317,0.12247534,,,,
30329245,0.4910727,-0.0865967,11.931679,-0.31228366,-0.04976279,0.15496588,11.27043,-11.167274,-48.999886,
30329250,0.83961487,-0.2423028,11.855022,-0.35702473,-0.017272249,0.17999958,,,,
30329255,1.3378744,-0.45430267,11.884967,-0.40123317,0.029599346,0.18745641,11.423954,-10.4371605,-49.623573,
30329260,1.8421226,-0.78847194,11.799928,-0.4507679,0.0791341,0.16774905,,,,
30329265,2.3020544,-1.1082683,11.717283,-0.50296587,0.13665834,0.11927955,11.118534,-11.340181,-50.54931,
30329270,2.612269,-1.407703,11.670571,-0.5530332,0.20590046,0.04897216,,,,
30329275,2.7787547,-1.5789797,11.71369,-0.6031006,0.28526258,-0.034651026,11.729065,-8.80636,-49.32534,
30329280,2.7859411,-1.7322904,11.771181,-0.6451785,0.35823315,-0.12839422,,,,
30329285,2.6781447,-1.7849909,11.864605,-0.6883217,0.4210837,-0.22639845,11.422827,-9.987984,-49.164513,
30329290,2.3954782,-1.8915896,12.064628,-0.72880167,0.47061843,-0.32493532,,,,
30329295,1.9259644,-1.890392,12.422751,-0.75916165,0.49831527,-0.40802586,13.422321,-9.807909,-48.962105,
30329300,1.4480665,-1.9993863,12.924604,-0.76448804,0.5116311,-0.46288693,,,,
30329305,1.073174,-2.0389118,13.402502,-0.7325301,0.48819527,-0.49058378,13.419601,-9.192793,-47.26687,
30329310,0.6898975,-2.1419172,13.558208,-0.6675491,0.4328016,-0.4969754,,,,
30329315,0.47190893,-2.2137816,13.564198,-0.58179533,0.3710163,-0.48792064,13.42037,-7.755762,-49.759727,
30329320,0.3341689,-2.189827,13.463587,-0.48751953,0.3076331,-0.47513744,,,,
30329325,0.154508,-2.0449004,13.337825,-0.38898262,0.23626046,-0.46448484,14.18955,-7.744089,-49.74073,
30329330,-0.01437325,-1.8077478,13.124627,-0.291511,0.15849625,-0.45063642,,,,
30329335,-0.14971778,-1.5658047,12.826389,-0.20309414,0.08179725,-0.4303964,13.72677,-7.4446945,-48.981895,
30329340,-0.21918665,-1.4160873,12.336515,-0.12852569,0.017348815,-0.4032322,,,,
30329345,-0.20840698,-1.3118839,11.906527,-0.06567516,-0.03431647,-0.37500268,14.186522,-6.4011955,-48.67301,
30329350,-0.088633075,-1.2436128,11.421442,-0.016673038,-0.07426385,-0.34251216,,,,
30329355,0.0095815435,-1.1921101,10.808199,0.014752236,-0.099297546,-0.3148153,14.340677,-6.2584,-49.135124,
30329360,0.18924244,-1.0843134,10.2296915,0.02220908,-0.10515649,-0.29297742,,,,
30329365,0.434779,-0.9489689,9.82246,0.009425919,-0.09290596,-0.27859634,13.574163,-9.344816,-47.72558,
30329370,0.60964894,-0.8687204,9.479906,-0.017738303,-0.06467648,-0.2722048,,,,
30329375,0.78691435,-0.78966963,9.10741,-0.05022884,-0.019935407,-0.27486792,14.49576,-6.4173737,-50.05802,
30329380,0.91507244,-0.7441555,8.8103695,-0.08857833,0.04184987,-0.28498793,,,,
30329385,1.0336485,-0.73577136,8.479794,-0.13225411,0.116950944,-0.29936898,14.033125,-5.9752007,-49.610344,
30329390,1.1426429,-0.69385046,8.062981,-0.18178888,0.20110677,-0.31268477,,,,
30329395,1.2396598,-0.7261895,7.804269,-0.24836783,0.28739312,-0.33185953,13.5716915,-7.2857246,-48.059,
30329400,1.1833661,-0.77888995,7.749173,-0.321871,0.3694184,-0.35795847,,,,
30329405,0.99052995,-0.7022347,7.822235,-0.38951528,0.43919316,-0.38885114,14.495604,-7.4283905,-48.65342,
30329410,0.7952985,-0.60402006,7.927636,-0.44437635,0.48819527,-0.4202764,,,,
30329415,0.5365869,-0.4806529,8.030642,-0.49018267,0.5148269,-0.4437122,15.107828,-6.509117,-46.946434,
30329420,0.3066209,-0.44831398,8.237851,-0.52906483,0.51429427,-0.45969114,,,,
30329425,0.016767994,-0.38004282,8.603161,-0.551968,0.4786079,-0.4687459,15.721687,-4.164398,-48.505974,
30329430,-0.16049743,-0.3644722,8.866663,-0.56368583,0.4024416,-0.4687459,,,,
30329435,-0.25511885,-0.37644958,9.035545,-0.5658164,0.28313208,-0.46341956,14.6466465,-5.5074215,-48.51716,
30329440,-0.23715276,-0.35009933,9.036743,-0.56368583,0.13825622,-0.45862588,,,,
30329445,-0.23475726,-0.35608804,8.945715,-0.56634897,-0.009282772,-0.457028,16.489998,-4.141144,-47.71331,
30329450,-0.099412724,-0.36447218,8.8475,-0.5727406,-0.14883229,-0.4623543,,,,
30329455,0.040722772,-0.41837046,8.621127,-0.5855237,-0.26334813,-0.47460485,15.721687,-4.164398,-48.505974,
30329460,0.11498262,-0.49023482,8.4929695,-0.60895956,-0.341645,-0.49164906,,,,
30329465,0.12216903,-0.5213761,8.451048,-0.63825434,-0.38425553,-0.5086933,15.415123,-3.604909,-50.22248,238.0
30329470,0.13414645,-0.5429354,8.452246,-0.6718101,-0.3959734,-0.5252049,,,,
30329475,0.06707303,-0.54053986,8.585196,-0.7085617,-0.39171237,-0.5422491,16.026329,-2.8168325,-47.43064,
30329480,-0.029943846,-0.60042685,8.782822,-0.7479764,-0.37466815,-0.5507712,,,,
30329485,-0.24553691,-0.65432507,8.991229,-0.77780384,-0.32939443,-0.55130386,15.566202,-3.7106066,-47.586494,
30329490,-0.37369502,-0.7764945,9.174482,-0.78206486,-0.244706,-0.5342596,,,,
30329495,-0.5880903,-0.86512715,9.3649235,-0.75809646,-0.12699439,-0.50176907,16.026274,-2.5266476,-47.743538,
30329500,-0.7473897,-0.9789124,9.733828,-0.703768,0.014153026,-0.45276695,,,,
30329505,-0.92944604,-1.0807203,9.938641,-0.6307975,0.1478436,-0.3947101,14.641209,-1.5273762,-48.563377,
30329510,-1.2085192,-1.114257,10.297962,-0.5386522,0.26342466,-0.33399007,,,,
30329515,-1.4229146,-1.0376016,10.681238,-0.42253846,0.34278682,-0.2626174,16.949318,-2.657732,-47.564278,212.0
30329520,-1.6696489,-1.026822,11.02499,-0.29257628,0.36888576,-0.18538581,,,,
30329525,-1.8684736,-0.8423702,11.402278,-0.15142886,0.34012365,-0.10815421,16.33432,-2.6717024,-47.888954,
30329530,-1.8445189,-0.72858495,11.668177,0.0030343365,0.24957627,-0.03411839,,,,
30329535,-1.6600671,-0.61839294,11.736447,0.16442177,0.100972,0.030862683,16.485714,-0.7553663,-48.06214,
30329540,-1.3546433,-0.55850595,11.578346,0.32847232,-0.07532912,0.07720164,,,,
30329545,-0.95220304,-0.53455114,11.175905,0.4850661,-0.26441336,0.103300594,16.484615,-0.45128345,-47.446632,
30329550,-0.54616946,-0.5010145,10.611771,0.62088716,-0.44870394,0.10702902,,,,
30329555,-0.17127708,-0.46508232,9.671544,0.71409774,-0.6132872,0.08838691,17.10085,-1.4668598,-46.955254,
30329560,0.073061734,-0.388427,8.722935,0.7593714,-0.7299335,0.05376585,,,,
30329565,0.27907288,-0.26146662,7.8378057,0.7684262,-0.78692514,0.014351098,17.409359,-1.3286791,-47.87777,196.0
30329570,0.31380737,-0.11893566,7.05688,0.73646826,-0.7778704,-0.021335231,,,,
30329575,0.34494856,-0.015930071,6.5466433,0.6762809,-0.7102262,-0.04849945,16.332214,-1.6305752,-47.28199,
30329580,0.30662087,0.036770448,6.1825304,0.5947882,-0.610624,-0.06394576,,,,
30329585,0.26350227,0.09545968,5.8783045,0.49199027,-0.49983662,-0.07193525,16.023455,-0.4629202,-47.76751,
30329590,0.068270765,0.21044263,5.576474,0.37001762,-0.38798395,-0.07832683,,,,
30329595,-0.071864724,0.3086573,5.4279547,0.23100074,-0.2867839,-0.07086999,16.025331,-1.2115469,-48.532616,
30329600,-0.27068943,0.4164538,5.5034122,0.08133121,-0.19357336,-0.046901554,,,,
30329605,-0.65037274,0.47873625,5.777694,-0.059283577,-0.11101544,-0.0117478585,15.564253,-1.6584625,-48.384132,
30329610,-1.0324516,0.5362277,6.29392,-0.18285413,-0.047632262,0.052167952,,,,
30329615,-1.2468469,0.55539155,6.9802246,-0.27553207,-0.010880668,0.15123746,15.5635395,-0.6358633,-49.015053,
30329620,-1.2252877,0.53023905,7.6641335,-0.33785,-0.004489087,0.26255754,,,,
30329625,-0.9785533,0.5038887,8.251026,-0.3751342,-0.039642785,0.36588806,15.408703,-1.7827263,-46.68415,
30329630,-0.61084735,0.530239,8.701376,-0.39750475,-0.09556912,0.44738072,,,,
30329635,-0.12696072,0.48472494,9.154121,-0.40229842,-0.1440386,0.49638283,16.640293,-1.920723,-47.270973,
30329640,0.25152487,0.4440018,9.725443,-0.38898262,-0.15682177,0.5128944,,,,
30329645,0.5437733,0.32303014,10.135069,-0.34211105,-0.1472344,0.5086334,16.330685,-0.8865814,-46.826363,
30329650,0.8731515,0.21762908,10.397374,-0.2707384,-0.116341755,0.4921218,,,,
30329655,1.1941457,0.10983255,10.529126,-0.18604992,-0.06574174,0.46069652,17.563694,-1.188201,-48.49462,
30329660,1.343863,0.0032337457,10.744719,-0.10242675,-0.0028911917,0.4132923,,,,
30329665,1.4372867,-0.07581703,10.845329,-0.017205669,0.066883564,0.36748597,16.332317,-0.3293724,-48.999474,171.0
30329670,1.4756144,-0.09737635,11.108831,0.079733305,0.12920149,0.33073437,,,,
30329675,1.4336934,-0.118935645,11.187882,0.18945546,0.1766057,0.30197227,18.17472,-0.39780712,-45.548042,
30329680,1.395366,-0.14408818,11.144764,0.29811233,0.19950888,0.27534068,,,,
30329685,1.3235016,-0.11893566,10.944741,0.39345342,0.20004152,0.24924171,18.177002,-1.4412518,-46.309715,
30329690,1.1977389,-0.06982835,10.693216,0.47441342,0.1845952,0.22314274,,,,
30329695,1.0264621,-0.012336865,10.342278,0.53460085,0.16701834,0.20130485,18.638565,-1.7244349,-45.985435,
30329700,0.8456036,-0.019523293,9.993736,0.56975454,0.15530044,0.18639116,,,,
30329705,0.69947934,-0.024314255,9.725443,0.58040714,0.14198464,0.17520589,17.409817,-1.9136829,-47.56144,
30329710,0.6156376,0.0319795,9.442777,0.56975454,0.12760359,0.1672164,,,,
30329715,0.45154732,0.05593428,9.277489,0.5447208,0.121212,0.16348799,17.869682,-1.4505539,-46.626793,157.0
30329720,0.35333273,-0.017127812,9.151726,0.5015776,0.11801621,0.16348799,,,,
30329725,0.21918593,-0.04347807,9.259522,0.44937974,0.10842884,0.1720101,17.10191,-2.494091,-46.633797,
30329730,0.1329487,-0.118935645,9.409239,0.3881271,0.07700357,0.17999958,,,,
30329735,0.08623685,-0.18840453,9.605669,0.32421127,0.016283551,0.19331537,19.715656,-1.1323538,-46.894096,
30329740,0.17367181,-0.32135358,9.747003,0.25496915,-0.07426385,0.20290273,,,,
30329745,0.1724741,-0.3429129,9.895521,0.18199861,-0.17652914,0.2023701,18.792511,-2.302472,-45.355858,
30329750,0.22517462,-0.3225513,10.033262,0.12021332,-0.2713376,0.20183748,,,,
30329755,0.35692593,-0.29859653,10.165013,0.06588488,-0.32779655,0.20663117,19.714493,-1.4063244,-45.498055,
30329760,0.5054456,-0.26505986,10.353058,0.024339607,-0.33578604,0.21249011,,,,
30329765,0.58928734,-0.30937624,10.586617,-6.940858E-4,-0.29530603,0.2188817,16.638672,-1.6096926,-46.191277,146.0
30329770,0.595276,-0.33213323,11.009419,-0.010281456,-0.22499864,0.224208,,,,
30329775,0.46472248,-0.3033875,11.53882,-0.0060204025,-0.14137545,0.23432802,18.638165,-1.429616,-45.988853,
30329780,0.19163792,-0.29979426,12.047859,0.027002765,-0.057752267,0.2556333,,,,
30329785,-0.0011981055,-0.27464175,12.498209,0.091451205,0.02160987,0.2923849,18.023792,-2.899147,-45.05854,
30329790,-0.1473223,-0.2698508,12.88987,0.17986809,0.082329884,0.34032175,,,,
30329795,-0.291051,-0.24110505,13.2012825,0.26828495,0.115353055,0.38985652,18.484547,-2.5926924,-44.741096,
30329800,-0.35093796,-0.19199774,13.268355,0.36309338,0.12973413,0.42980388,,,,
30329805,-0.4156159,-0.030302942,13.305485,0.4632282,0.13239728,0.47294706,18.943748,-1.397151,-44.12446,
30329810,-0.34974024,0.15654437,13.258774,0.561765,0.12440779,0.5112965,,,,
30329815,-0.17367256,0.37333518,12.986887,0.6469861,0.099906735,0.53206915,20.023685,-3.0138912,-44.852684,130.0
30329820,0.10659844,0.5398209,12.497011,0.6997167,0.059426717,0.53206915,,,,
30329825,0.4994569,0.65839714,11.964018,0.70930403,-0.0114132995,0.5096986,18.023842,-3.189333,-44.745644,
30329830,0.91746795,0.5925214,11.306458,0.66243243,-0.11261334,0.46229443,,,,
30329835,1.3246992,0.50987744,10.372222,0.5569714,-0.20848705,0.3914544,20.946968,-2.5692368,-45.608696,
30329840,1.6349137,0.36854422,9.598482,0.4062366,-0.2745334,0.311027,,,,
30329845,1.8229588,0.19127882,9.14933,0.23685968,-0.30223024,0.22953433,19.254242,-3.4562092,-44.092888,
30329850,1.9786649,-0.12971531,9.035545,0.06535225,-0.3118176,0.15390062,,,,
30329855,2.1044276,-0.55491275,9.039139,-0.099763595,-0.32033974,0.08945217,19.87077,-4.1862326,-44.22387,
30329860,2.152337,-1.0040649,9.172088,-0.2574226,-0.32140496,0.023938468,,,,
30329865,2.1319757,-1.3837483,9.33498,-0.40655947,-0.30968708,-0.051162608,19.257133,-4.073642,-45.942833,118.0
30329870,2.02897,-1.6149119,9.754189,-0.5301301,-0.2734681,-0.13638368,,,,
30329875,1.7379193,-1.6652169,10.37342,-0.612688,-0.1994323,-0.2173437,19.098618,-2.2769556,-43.95565,
30329880,1.26601,-1.6795899,11.058527,-0.6451785,-0.09983017,-0.27966163,,,,
30329885,0.7006771,-1.6316803,11.693329,-0.6345259,0.004565653,-0.3158806,21.407131,-3.7021294,-42.953148,
30329890,0.1389374,-1.6268893,12.342504,-0.59298056,0.09724357,-0.33079425,,,,
30329895,-0.52820337,-1.5729911,12.865915,-0.5232059,0.15476781,-0.31854373,19.865784,-0.79119205,-43.953773,
30329900,-1.2540333,-1.4616013,13.247993,-0.4321258,0.18672572,-0.27327,,,,
30329905,-1.7498975,-1.2855337,13.507903,-0.3245342,0.197911,-0.19497319,18.946236,-1.7197657,-45.977837,
30329910,-2.1499424,-1.2052852,13.595339,-0.20788783,0.19364993,-0.09377315,,,,
30329915,-2.312835,-1.1801326,13.529463,-0.08431727,0.18086678,0.015948992,19.407719,-1.5676699,-46.122887,92.0
30329920,-2.3835015,-1.2100761,13.159361,0.032329082,0.1579636,0.12939955,,,,
30329925,-2.3224168,-1.2843359,12.776085,0.12660491,0.12866884,0.24231748,21.099072,-1.6754999,-45.150978,
30329930,-2.1439536,-1.3430252,12.323339,0.19957545,0.088188834,0.34085438,,,,
30329935,-1.9115922,-1.2843359,11.929283,0.26029548,0.035458293,0.42128175,22.17102,0.43236542,-43.291557,
30329940,-1.6109595,-1.2172625,11.490911,0.29651445,-0.022598566,0.48626286,,,,
30329945,-1.2264855,-1.1166524,11.101645,0.3162218,-0.08971017,0.5363302,20.791458,-1.9703541,-44.84568,
30329950,-0.8527907,-1.159771,10.55907,0.31196076,-0.16055019,0.5645597,,,,
30329955,-0.35692665,-1.2160647,10.145849,0.28905758,-0.22712916,0.5709513,21.101753,-3.0137634,-45.909233,
30329960,0.05389791,-1.2735562,9.816471,0.24804495,-0.29051232,0.56083125,,,,
30329965,0.41801062,-1.334641,9.49907,0.20223862,-0.34111235,0.53686285,20.025791,-4.0550194,-45.45965,46.0
30329970,0.7557731,-1.3226635,9.248743,0.14684492,-0.37999448,0.4937197,,,,
30329975,1.0923378,-1.3202682,9.071478,0.087722786,-0.40822396,0.4404565,20.025791,-4.0550194,-45.45965,
30329980,1.2300779,-1.274754,8.948111,0.025937501,-0.42526817,0.37920386,,,,
30329985,1.3199084,-1.1525846,8.785217,-0.03851094,-0.42526817,0.31848386,19.715488,-3.011612,-44.396095,
30329990,1.2468462,-1.0016694,8.710958,-0.10029623,-0.40023446,0.26095963,,,,
30329995,1.188157,-0.9441779,8.733715,-0.16154887,-0.36135235,0.20822906,20.02388,-4.02954,-43.757576,
30330000,1.1186881,-0.89147747,8.701376,-0.21268152,-0.3064913,0.15816168,,,,
30330005,0.995321,-0.851952,8.604359,-0.26807523,-0.23192284,0.11235534,19.257206,-5.377159,-44.380104,
30330010,0.9593888,-0.91423446,8.437873,-0.32666472,-0.13445124,0.07081006,,,,
30330015,0.8312307,-1.0088558,8.3875675,-0.39430895,-0.03218594,0.034058474,18.944214,-1.1139145,-44.901543,20.0
30330020,0.7354115,-1.081918,8.380382,-0.45609424,0.072742514,0.008492148,,,,
30330025,0.54377323,-1.1537824,8.454641,-0.5093574,0.17021413,-0.00588891,19.25652,-4.499655,-44.85456,
30330030,0.3401576,-1.2256467,8.754076,-0.5471743,0.24158679,-0.0069541736,,,,
30330035,0.20840627,-1.3118839,9.167296,-0.56368583,0.26608786,0.0036984617,20.023823,-3.739355,-44.070457,
30330040,0.12216903,-1.4484262,9.461941,-0.56208795,0.24052152,0.02127531,,,,
30330045,0.12456451,-1.5214883,9.675138,-0.5540985,0.17394257,0.0345911,19.406887,-3.5827532,-42.84951,
30330050,0.16888086,-1.5262792,9.9194765,-0.5327932,0.088188834,0.042580582,,,,
30330055,0.24314073,-1.4927425,10.08716,-0.49817216,-0.009282772,0.03938479,19.2552,-3.0348291,-45.490623,
30330060,0.40723097,-1.4256692,10.253646,-0.44757214,-0.09237333,0.02180794,,,,
30330065,0.64558107,-1.3585958,10.520742,-0.37247106,-0.15096281,-0.0026931195,20.176277,-2.8502483,-43.922203,17.0
30330070,0.8216488,-1.2999065,10.620154,-0.2829889,-0.1775944,-0.032520495,,,,
30330075,0.81566006,-1.247206,10.572245,-0.17859307,-0.16960493,-0.06501104,19.871529,-3.6174421,-45.623314,
30330080,0.7294228,-1.1669574,10.561464,-0.061946742,-0.13178807,-0.09270789,,,,
30330085,0.61803305,-1.1346185,10.424923,0.058428038,-0.08331859,-0.11028474,20.945404,-2.5483904,-44.216103,
30330090,0.42040613,-0.99448305,10.319522,0.17294389,-0.0348491,-0.11827421,,,,
30330095,0.27787519,-0.9549576,10.02368,0.282666,0.0077614435,-0.11827421,18.637753,-2.0030384,-44.898872,
30330100,0.18205601,-0.86752266,9.588901,0.37161553,0.04717619,-0.10975211,,,,
30330105,0.17726503,-0.81841534,9.016381,0.43446606,0.078601465,-0.097501576,20.484348,-3.140398,-43.911186,
30330110,0.17726505,-0.7597261,8.415115,0.4632282,0.11588568,-0.09111,,,,
30330115,0.23595425,-0.7166075,7.947998,0.4632282,0.15316992,-0.083653145,21.561966,-2.5552664,-45.28405,
30330120,0.23236106,-0.75134194,7.543162,0.43606395,0.18566045,-0.075131044,,,,
30330125,0.26949096,-0.77529675,7.2461224,0.3817355,0.19737835,-0.06181524,19.100296,-2.878172,-44.722466,
30330130,0.2251746,-0.82560176,7.0065746,0.31036285,0.18832362,-0.04956471,,,,
30330135,0.14253062,-0.81841534,6.85566,0.23046811,0.17340992,-0.035716288,20.332245,-4.034137,-44.368904,
30330140,0.062282085,-0.7237939,6.753852,0.15057334,0.15423518,-0.016541544,,,,
30330145,-0.04910768,-0.60162455,6.6724057,0.06748278,0.13985412,0.005296357,19.40715,-3.1521082,-43.62832,
30330150,-0.12815845,-0.44352302,6.7466655,,,,,,,
30330155,-0.23475724,-0.32973775,7.0149593,-0.0076182983,0.13239728,0.024471099,21.253944,-2.5553026,-44.98217,
30330160,-0.33536738,-0.18121809,7.40662,-0.0763278,0.117483586,0.04417848,,,,
30330165,-0.38926563,-0.07342155,7.737196,-0.12639517,0.08392778,0.06441848,21.25319,-2.2558527,-44.676125,
30330170,-0.44076842,0.031979486,8.004292,-0.15782045,0.03172987,0.08465848,,,,
30330175,-0.4467571,0.09426194,8.164789,-0.18445203,-0.027392253,0.100637436,20.791733,-3.4212818,-43.281227,
30330180,-0.39884755,0.11821672,8.225874,-0.19084361,-0.07852491,0.11661639,,,,
30330185,-0.33896056,0.172115,8.225874,-0.19031098,-0.11261334,0.13153009,19.870884,-3.898363,-44.69149,
30330190,-0.29105103,0.1936743,8.189941,-0.18338676,-0.11953755,0.14697641,,,,
30330195,-0.26829398,0.19606978,8.247433,-0.17326677,-0.09663438,0.16402063,20.331688,-4.7503347,-42.96775,
30330200,-0.22996631,0.16852176,8.415115,-0.1572878,-0.05615437,0.17946695,,,,
30330205,-0.17726578,0.06671394,8.663048,-0.13811307,-0.012478563,0.19917431,19.714794,-3.002346,-43.77717,
30330210,-0.046712197,-0.014732346,8.801987,-0.11627518,0.012022498,0.2204796,,,,
30330215,0.057491124,-0.08659671,8.904992,-0.08857833,0.017881447,0.23539327,20.177338,-3.8774805,-43.60076,
30330220,0.25990906,-0.17403165,8.932539,-0.059283577,0.018946711,0.24764381,,,,
30330225,0.4587338,-0.2303254,9.138551,-0.025727777,0.022675134,0.2508396,20.023285,-2.7190723,-44.856117,
30330230,0.70307255,-0.28542143,9.323002,0.020611184,0.03812145,0.24870908,,,,
30330235,0.8132646,-0.27464175,9.525421,0.0696133,0.0541004,0.23539327,20.024364,-4.759637,-43.28483,
30330240,0.9246543,-0.19439323,9.730234,0.13193123,0.062089875,0.21035959,,,,
30330245,0.9725639,-0.11414471,9.721849,0.19957545,0.04717619,0.17946695,18.179142,-4.5090485,-44.41697,
30330250,1.0072982,-0.012336865,9.705082,0.25923023,8.372305E-4,0.13685639,,,,
30330255,0.96178424,0.105041586,9.558958,0.29864496,-0.075861745,0.085191116,18.947372,-4.050515,-44.093636,
30330260,0.962982,0.17810369,9.434392,0.31995022,-0.16374597,0.02713426,,,,
30330265,0.91507244,0.14456698,9.24994,0.32900497,-0.2479018,-0.032520495,18.023632,-3.9101648,-43.653954,16.0
30330270,0.9534001,-0.009941384,9.057104,0.3274071,-0.31820917,-0.08471841,,,,
30330275,0.86955833,-0.2267322,8.707365,0.30663443,-0.36508077,-0.13531843,18.79311,-3.612938,-44.257317,
30330280,0.770146,-0.42076594,8.4666195,0.26721966,-0.38425553,-0.1800595,,,,
30330285,0.7246319,-0.6698957,8.399546,0.21022812,-0.3634829,-0.22000687,17.565533,-5.40979,-44.886086,
30330290,0.61324215,-0.83638144,8.463026,0.13406175,-0.30702394,-0.2503669,,,,
30330295,0.40962642,-0.9310028,8.603161,0.038720664,-0.23139022,-0.27007425,17.10316,-4.536972,-45.21723,
30330300,0.19642888,-1.0088558,8.938528,-0.05662042,-0.13977754,-0.27327,,,,
30330305,0.071863994,-0.9908898,9.388878,-0.1487657,-0.033251204,-0.26581317,18.178192,-4.062188,-44.112633,
30330310,-3.7252903E-7,-0.9477712,9.974573,-0.23292153,0.07540567,-0.2503669,,,,
30330315,-0.14372908,-0.7920651,10.622549,-0.30376157,0.16169202,-0.23279002,17.408234,-3.6293163,-43.982033,
30330320,-0.34494928,-0.608811,11.3459835,-0.34743738,0.21442257,-0.21041949,,,,
30330325,-0.46112996,-0.5549128,12.001148,-0.3612858,0.2469131,-0.1768637,16.947598,-3.6479015,-44.767097,
30330330,-0.46831644,-0.5501218,12.619181,-0.33678472,0.25863102,-0.13425316,,,,
30330335,-0.4132204,-0.6291726,12.982096,-0.2760647,0.25383732,-0.08525105,17.56554,-4.5415497,-45.9795,
30330340,-0.37489277,-0.66510475,13.231226,-0.17912571,0.23892362,-0.035716288,,,,
30330345,-0.24913013,-0.69744366,13.287519,-0.055022527,0.23040152,0.008492148,18.176243,-2.0100422,-44.91027,
30330350,-0.14253134,-0.76212156,13.2611685,0.08505962,0.22454257,0.054298483,,,,
30330355,-0.041921243,-0.7429578,13.20248,0.23472916,0.20856363,0.09424585,18.946503,-4.0389338,-43.319984,
30330360,0.19882435,-0.82200855,13.024017,0.37001762,0.16808361,0.12460587,,,,
30330365,0.5030501,-0.93818927,12.664696,0.4861313,0.101504624,0.13792168,19.101654,-3.6198502,-45.023384,
30330370,0.7318183,-1.0364039,12.273034,0.58040714,0.020544607,0.13046482,,,,
30330375,0.90429276,-1.182528,11.693329,0.63580084,-0.068404905,0.11608376,17.869247,-3.760458,-43.35,
30330380,0.99053,-1.2831382,11.123204,0.6565735,-0.14457123,0.094778486,,,,
30330385,1.0324509,-1.3753641,10.521939,0.64379036,-0.1861165,0.07560374,18.181221,-5.4050827,-45.180367,
30330390,1.0815582,-1.3202682,10.072787,0.59425557,-0.1861165,0.06282058,,,,
30330395,1.0348463,-1.151387,9.697895,0.5186219,-0.14190806,0.04417848,17.71666,-3.924099,-44.28048,
30330400,0.87914026,-0.8411724,9.519432,0.42274815,-0.05562174,0.031395316,,,,
30330405,0.650372,-0.62198615,9.568539,0.31515652,0.058894087,0.026601626,18.02452,-4.9350786,-43.177773,
30330410,0.4503496,-0.41357955,9.853601,0.20223862,0.18193203,0.03352584,,,,
30330415,0.28386384,-0.34650612,10.300358,0.105832264,0.28792575,0.049504794,16.334358,-4.69837,-45.38926,
30330420,0.30542314,-0.34171516,10.772266,0.03179645,0.35876578,0.06708164,,,,
30330425,0.45274508,-0.40639308,11.05134,-0.026260411,0.37527737,0.07720164,17.408634,-3.9241352,-43.978615,
30330430,0.7437957,-0.5788675,11.058527,-0.07206675,0.34172156,0.06921216,,,,
30330435,1.0132871,-0.8160199,11.047747,-0.11361202,0.28153417,0.04045005,18.950539,-6.1188736,-44.379143,
30330440,1.2300779,-0.9849011,10.846527,-0.15675518,0.20749836,-0.0032257512,,,,
30330445,1.2696033,-1.1106638,10.672854,-0.2057573,0.13825622,-0.057554185,16.949547,-5.7000484,-43.969475,
30330450,1.3103263,-1.150189,10.551884,-0.25848785,0.0860583,-0.10655632,,,,
30330455,1.2815807,-1.2220535,10.580629,-0.31601208,0.05356777,-0.14703631,15.871632,-4.6891594,-44.317513,
30330460,1.2875694,-1.347816,10.791431,-0.3698079,0.04344777,-0.17899422,,,,
30330465,1.2564282,-1.4508216,11.052538,-0.40762475,0.046110928,-0.20935424,17.71828,-4.2351313,-45.36019,
30330470,1.1953435,-1.5825729,11.325623,-0.4267995,0.049839348,-0.23758371,,,,
30330475,1.1138971,-1.7227085,11.574753,-0.42413634,0.05623093,-0.26315004,17.104023,-5.416794,-44.897484,
30330480,0.9773549,-1.8173298,11.772379,-0.39750475,0.06741619,-0.28498793,,,,
30330485,0.8911177,-1.8388892,11.89934,-0.34797,0.084460415,-0.2999016,16.794483,-3.804596,-45.23339,
30330490,0.8000894,-1.848471,11.965216,-0.2797931,0.099906735,-0.31055427,,,,
30330495,0.69468844,-1.8796123,11.882572,-0.20735519,0.11055937,-0.31854373,16.332539,-4.2399282,-44.311256,
30330500,0.5617393,-1.9047649,11.74004,-0.1370478,0.11428779,-0.32387006,,,,
30330505,0.39405584,-1.8616463,11.525645,-0.07153411,0.1126899,-0.32014164,16.793129,-3.0629177,-44.932472,
30330510,0.17846277,-1.7921774,11.293283,-0.01986883,0.10842884,-0.30416265,,,,
30330515,-0.044316724,-1.6532396,11.233397,0.03179645,0.09617831,-0.2780637,15.565445,-4.279397,-46.18705,
30330520,-0.24433918,-1.5442454,11.204651,0.081863835,0.06475304,-0.23758371,,,,
30330525,-0.47190964,-1.4508216,10.985464,0.13512702,0.0077614435,-0.17952687,16.641895,-3.968237,-46.163887,
30330530,-0.51023734,-1.3334432,10.644109,0.17773756,-0.048164897,-0.11827421,,,,
30330535,-0.37129956,-1.2052851,10.393782,0.20436914,-0.07905754,-0.05702156,17.565945,-4.8363676,-45.976067,
30330540,-0.180859,-1.0016695,10.102732,0.22780496,-0.08331859,-0.0074868053,,,,
30330545,0.026349902,-0.89147747,9.867973,0.23739232,-0.05615437,0.02127531,15.872961,-5.2857447,-44.774864,
30330550,0.20601079,-0.8088334,9.576923,0.23419654,-0.007152246,0.03352584,,,,
30330555,0.36291462,-0.8267995,9.38289,0.22088075,0.050904613,0.037786894,15.718975,-5.430855,-44.46749,
30330560,0.49586368,-0.86512727,9.184065,0.2001081,0.103635155,0.0345911,,,,
30330565,0.6443833,-0.92740965,9.04872,0.16601968,0.14198464,0.028199522,14.17959,-3.7038221,-45.763893,
30330570,1.0108916,-0.9860988,8.9816475,0.119680695,0.1446478,0.010090043,,,,
30330575,1.3426654,-1.0795226,8.889421,0.06801541,0.09564568,-0.023998389,15.412119,-5.1569195,-45.561638,
30330580,1.748699,-1.1274321,8.56124,0.0014364414,0.004033021,-0.07726157,,,,
30330585,2.0876591,-1.2460083,8.260608,-0.08005622,-0.09983017,-0.15236264,15.255089,-2.9458027,-45.436394,
30330590,2.3487663,-1.2915224,7.974348,-0.17912571,-0.18238808,-0.24131213,,,,
30330595,2.502077,-1.2591834,7.8366084,-0.28245628,-0.21647651,-0.3377185,16.488567,-4.8457603,-45.538475,
30330600,2.4182353,-1.2543925,7.8653536,-0.37886265,-0.20049757,-0.43412483,,,,
30330605,2.2098286,-1.2160648,8.265399,-0.465149,-0.15362598,-0.5230743,16.64325,-4.709914,-46.464775,
30330610,1.8265519,-1.1262343,8.8475,-0.54025006,-0.10249334,-0.60083854,,,,
30330615,1.2360666,-1.0196356,9.580517,-0.592448,-0.070002794,-0.6594281,15.87393,-3.9961233,-47.266,
30330620,0.57371676,-0.9322006,10.313533,-0.59564376,-0.050828055,-0.6940491,,,,
30330625,-0.12456524,-0.81003124,10.877668,-0.5530332,-0.04017542,-0.69298387,13.25848,-4.6115503,-46.395348,
30330630,-0.70187557,-0.69504815,11.37952,-0.48006266,-0.038044892,-0.6498407,,,,
30330635,-1.1115024,-0.58365846,11.627453,-0.37939525,-0.04443647,-0.5768702,15.562359,-2.6463156,-45.432228,
30330640,-1.3881803,-0.44591847,11.688538,-0.25795522,-0.05242595,-0.48365957,,,,
30330645,-1.5390954,-0.33572644,11.495702,-0.12959096,-0.042838577,-0.38725322,15.562166,-1.6306667,-46.52732,
30330650,-1.6289258,-0.278235,11.07769,-0.0076182983,-0.009815404,-0.29510793,,,,
30330655,-1.660067,-0.17403166,10.573442,0.103169106,0.0439804,-0.19763634,13.7199135,-3.3010273,-47.946693,
30330660,-1.5870049,-0.14049494,9.987747,0.19797757,0.11588568,-0.10549106,,,,
30330665,-1.4312987,-0.14049497,9.475115,0.2640239,0.19737835,-0.018139442,13.717386,-3.701561,-45.156364,19.0
30330670,-1.2839768,-0.18960226,8.956494,0.30184072,0.2666205,0.066016376,,,,
30330675,-0.99891496,-0.23032542,8.485783,0.30876496,0.30337206,0.13738903,14.178986,-3.2615957,-45.76902,
30330680,-0.68989813,-0.2854214,8.070168,0.2895902,0.31295943,0.19704379,,,,
30330685,-0.33416963,-0.2818282,7.7419863,0.24804495,0.299111,0.23539327,15.409821,-3.1001434,-46.049812,
30330690,0.027547643,-0.23152314,7.5239983,0.19105336,0.26821837,0.25510067,,,,
30330695,0.27308416,-0.13690174,7.4856706,0.12873544,0.23253205,0.25350276,14.178986,-3.2615957,-45.76902,
30330700,0.5665303,-0.07102609,7.428179,0.073874354,0.18832362,0.23486066,,,,
30330705,0.8084736,-0.0027549565,7.514416,0.020611184,0.14198464,0.20876169,14.640238,-2.8169975,-46.072227,
30330710,1.0588012,0.051143326,7.50723,-0.028390938,0.08659094,0.16987957,,,,
30330715,1.1917502,0.09306419,7.4904613,-0.08378464,0.031197242,0.118746914,14.640238,-2.8169975,-46.072227,22.0
30330720,1.26601,0.13378733,7.4617157,-0.13385202,-0.0028911917,0.06069006,,,,
30330725,1.2456484,0.19487204,7.564721,-0.1706036,-0.02100067,-0.0021604877,14.7921715,-1.9209433,-45.459785,
30330730,1.0324509,0.26194543,7.692879,-0.20149624,-0.019935407,-0.058619447,,,,
30330735,0.71624774,0.337403,7.9192524,-0.21694256,-0.006619614,-0.104425795,14.793123,-2.3678036,-45.76409,
30330740,0.40603322,0.42843118,8.255817,-0.22013836,0.010424603,-0.13052474,,,,
30330745,0.086236864,0.48831815,8.724133,-0.2025615,0.023207765,-0.13638368,13.25531,-2.543191,-46.109856,
30330750,-0.24194369,0.5002955,9.269104,-0.1572878,0.018414078,-0.12253528,,,,
30330755,-0.49706218,0.48352718,9.61046,-0.09550254,-0.0039564553,-0.09004474,14.330946,-2.5106344,-45.000114,
30330760,-0.7078642,0.5338322,9.869171,-0.011879352,-0.03218594,-0.043173134,,,,
30330765,-0.8060789,0.6009056,10.027273,0.08559226,-0.05295858,0.012753202,15.1010895,-2.0775805,-46.37887,26.0
30330770,-0.846802,0.7410412,9.987747,0.18253125,-0.07373122,0.07240795,,,,
30330775,-0.8635704,0.8620128,9.925466,0.2656218,-0.09610175,0.12780167,14.177586,-1.3614922,-46.874413,
30330780,-0.8012879,1.0296962,9.828448,0.33220074,-0.11953755,0.17999958,,,,
30330785,-0.6623502,1.1350974,9.736223,0.3849313,-0.13977754,0.23379537,14.333208,-2.5407467,-47.011665,
30330790,-0.44436163,1.1207244,9.606867,0.42274815,-0.14883229,0.28972173,,,,
30330795,-0.10420368,1.0668262,9.429602,0.45683658,-0.15043019,0.34511545,13.258287,-3.5959005,-47.49047,
30330800,0.22038366,0.99615955,9.209217,0.48133767,-0.14670175,0.39092177,,,,
30330805,0.6156376,0.9183065,8.903793,0.48666397,-0.13817964,0.41915125,12.486013,-2.8427324,-45.661232,
30330810,0.9737616,0.9099224,8.5828,0.47334817,-0.13072282,0.43246704,,,,
30330815,1.3762021,0.90153825,8.2881565,0.44352078,-0.12060281,0.42980388,13.411022,-3.289483,-46.871162,30.0
30330820,1.7127669,0.88596755,7.970755,0.3865292,-0.1035586,0.40956387,,,,
30330825,2.0541224,0.893154,7.763546,0.31568918,-0.07905754,0.37174705,13.258032,-3.158307,-47.805077,
30330830,2.276902,0.88357204,7.678507,0.2336639,-0.045501735,0.32327753,,,,
30330835,2.4613538,0.8512332,7.610235,0.14258386,-0.0028911917,0.26522067,12.796495,-3.020216,-47.972908,
30330840,2.6134667,0.77577555,7.7252183,0.04511224,0.058361456,0.2023701,,,,
30330845,2.6410148,0.6595949,8.183952,-0.03904357,0.1377236,0.13632378,13.716326,-2.6743307,-45.47782,
30330850,2.547591,0.53742546,8.816359,-0.10722044,0.21122678,0.069744796,,,,
30330855,2.3260093,0.39130127,9.681127,-0.1455699,0.25650048,0.0021005664,12.798372,-3.7688427,-48.738014,
30330860,2.02897,0.2727251,10.572245,-0.1455699,0.25596786,-0.05915208,,,,
30330865,1.7139645,0.18169689,11.371137,-0.10455728,0.20749836,-0.10975211,12.950615,-3.6005697,-47.49807,35.0
30330870,1.4289026,0.08468002,12.022707,-0.0294562,0.11854885,-0.14969948,,,,
30330875,1.0875468,0.14097378,12.629961,0.07174383,-0.014076458,-0.18325529,12.182049,-3.1862307,-48.60534,
30330880,0.66354716,0.23439743,12.995271,0.19211863,-0.17120282,-0.2136153,,,,
30330885,0.31740052,0.37333518,13.094683,0.3279397,-0.32726392,-0.2338553,12.335051,-2.4491663,-48.764824,
30330890,0.015570238,0.45238596,12.912626,0.470685,-0.46201974,-0.23438793,,,,
30330895,-0.14852004,0.4188493,12.494616,0.6033103,-0.56694824,-0.21681109,13.257162,-3.1467257,-47.03141,
30330900,-0.15331098,0.22481552,11.841848,0.7124998,-0.6340598,-0.19071212,,,,
30330905,-0.19523187,0.112228036,11.375928,0.7854704,-0.6527019,-0.15609106,10.337023,-3.951291,-48.642372,
30330910,-0.23116404,0.011617921,10.911205,0.83660305,-0.6212766,-0.115611054,,,,
30330915,-0.28626007,-0.07222384,10.276403,0.85844094,-0.5562956,-0.06980473,10.950983,-3.0551805,-48.482704,44.0
30330920,-0.32698318,-0.021918789,9.741013,0.8483209,-0.46468294,-0.016008914,,,,
30330925,-0.32937866,0.004431486,9.278687,0.8089062,-0.3570913,0.04311321,12.798216,-4.7798605,-47.333427,
30330930,-0.28266683,-0.013534591,8.91098,0.74072933,-0.2479018,0.104365855,,,,
30330935,-0.14971778,-0.03629163,8.578009,0.64538825,-0.13871229,0.15762904,11.25939,-5.086443,-46.594337,
30330940,-0.0023958385,-0.068630606,8.322891,0.52980715,-0.025794357,0.19970696,,,,
30330945,0.06467754,-0.041082606,8.227072,0.40410605,0.087123565,0.23432802,12.49102,-3.6330528,-49.211525,
30330950,0.10779618,-0.01233685,8.327681,0.28106812,0.18885624,0.26309013,,,,
30330955,0.11857581,0.043956883,8.731319,0.16229124,0.25969625,0.28972173,11.413876,-3.934949,-48.615776,
30330960,0.13175096,0.01640889,9.1661,0.060025934,0.2836647,0.31369016,,,,
30330965,0.101807475,0.027188525,9.6356125,-0.021999355,0.27674046,0.33286488,10.645262,-5.1119957,-47.692665,
30330970,-0.010780022,0.15534663,10.194956,-0.07153411,0.2469131,0.34511545,,,,
30330975,-0.14852002,0.37812614,10.803408,-0.08378464,0.19524783,0.3610944,10.95158,-4.3656483,-47.384163,
30330980,-0.18564996,0.6787587,11.378323,-0.063012004,0.12920149,0.37654072,,,,
30330985,-0.18804543,0.9997528,11.792741,-0.012411983,0.050904613,0.38985652,12.955265,-5.2544966,-49.6455,
30330990,0.005988322,1.2045662,11.890955,0.041916452,-0.038044892,0.3882586,,,,
30330995,0.20361532,1.1374929,11.752018,0.081863835,-0.12805966,0.37068176,12.953178,-5.2267017,-47.788704,
30331000,0.5413778,0.99376416,11.480131,0.10157121,-0.21381336,0.33765858,,,,
30331005,0.97855264,0.72906375,11.093262,0.103169106,-0.27772915,0.2859933,11.413353,-3.9279995,-48.151558,
30331010,1.5534675,0.41645378,10.623747,0.078135416,-0.32406816,0.21355537,,,,
30331015,2.0409474,-0.021918774,10.206934,0.025937501,-0.3624176,0.13153009,12.183805,-4.222726,-48.90281,58.0
30331020,2.5775347,-0.5884494,9.658369,-0.058218315,-0.37946182,0.038852163,,,,
30331025,3.0374665,-1.1573756,9.143341,-0.16847308,-0.35655865,-0.07033736,11.876728,-5.537863,-47.811882,
30331030,3.2255116,-1.67959,8.87385,-0.29896787,-0.28252286,-0.18858159,,,,
30331035,3.1883817,-2.0820305,8.958889,-0.43905002,-0.18398598,-0.30682585,12.028322,-3.7689342,-47.983345,
30331040,2.8745737,-2.2916346,9.305037,-0.5722079,-0.081720695,-0.41441745,,,,
30331045,2.3224158,-2.3575106,9.888335,-0.6851259,0.014153026,-0.50443226,10.027124,-3.2027006,-47.5754,
30331050,1.5462811,-2.2748663,10.633329,-0.7676838,0.09884147,-0.56461966,,,,
30331055,0.7641573,-2.1922226,11.35317,-0.80656594,0.17234465,-0.5891207,11.257439,-3.034297,-47.391975,
30331060,0.06946851,-2.1455107,12.008334,-0.8081638,0.2250752,-0.58432704,,,,
30331065,-0.53898305,-2.19342,12.608401,-0.774608,0.24584784,-0.55663013,12.031755,-5.4066486,-49.04766,77.0
30331070,-1.0791634,-2.1646743,12.996469,-0.7202796,0.24584784,-0.5054975,,,,
30331075,-1.540293,-2.1239514,13.259972,-0.64251536,0.23732574,-0.43891853,11.259142,-3.7806072,-48.002342,
30331080,-1.9451289,-1.9945955,13.328243,-0.5471743,0.22028153,-0.35582796,,,,
30331085,-2.2553434,-1.885601,13.44083,-0.44384372,0.18779097,-0.25835636,12.182396,-3.1908627,-48.914787,
30331090,-2.4685411,-1.8568554,13.442028,-0.32826263,0.12920149,-0.15609106,,,,
30331095,-2.4637501,-1.8652395,13.333033,-0.21694256,0.039719343,-0.05222787,11.106148,-3.6494312,-48.936256,
30331100,-2.3619423,-1.8592509,13.010841,-0.12053624,-0.07319859,0.043645844,,,,
30331105,-2.109219,-1.8688326,12.570074,-0.044902526,-0.18718177,0.1235406,11.412603,-3.6285486,-47.845528,
30331110,-1.8469143,-1.8257141,12.025103,0.011023813,-0.2846534,0.18692379,,,,
30331115,-1.5331066,-1.7825954,11.542414,0.048840664,-0.35815656,0.23645854,12.02597,-1.4219713,-48.784416,104.0
30331120,-1.1677961,-1.7514542,11.162729,0.076004885,-0.40023446,0.27427542,,,,
30331125,-0.86596584,-1.6736012,10.682437,0.08719015,-0.4092892,0.29877648,9.10833,-4.430724,-49.905495,
30331130,-0.6659434,-1.6412622,10.186573,0.08346173,-0.37520078,0.3104944,,,,
30331135,-0.44076842,-1.5358613,9.772154,0.06854804,-0.31607866,0.31795123,9.87599,-2.806816,-50.524254,
30331140,-0.4168136,-1.435251,9.481104,0.04138382,-0.24843442,0.32008174,,,,
30331145,-0.3641131,-1.2927201,9.3253975,0.0051648635,-0.18292072,0.32540804,10.644409,-3.3639336,-49.105812,
30331150,-0.44196618,-1.1262343,9.193647,-0.03158673,-0.13125543,0.33393016,,,,
30331155,-0.48508477,-0.9369915,9.134957,-0.06833832,-0.0902428,0.34990913,9.414354,-3.9699306,-48.974617,
30331160,-0.49346894,-0.7980538,9.0595,-0.10722044,-0.070002794,0.37014914,,,,
30331165,-0.3605199,-0.77170354,8.938528,-0.15089624,-0.06574174,0.38186702,10.182043,-2.4911165,-49.43696,
30331170,-0.17007935,-0.75613296,8.822348,-0.20043097,-0.07639438,0.3845302,,,,123.0
30331175,0.09462103,-0.87111586,8.696585,-0.25156367,-0.09290596,0.3781386,11.416227,-6.281912,-47.81472,
30331180,0.3353666,-1.0160424,8.612743,-0.30855525,-0.11900492,0.3610944,,,,
30331185,0.5078411,-1.132223,8.515726,-0.36927527,-0.14084281,0.33286488,11.416191,-4.255245,-50.314415,
30331190,0.6120444,-1.2496015,8.330077,-0.42466897,-0.13711439,0.30090702,,,,
30331195,0.61923087,-1.2963133,8.204314,-0.48325846,-0.11101544,0.27107963,11.104389,-2.612936,-48.638786,
30331200,0.572519,-1.2903247,8.221083,-0.5381195,-0.068404905,0.25297013,,,,
30331205,0.512632,-1.3094884,8.453444,-0.58179533,-0.028457515,0.23858906,10.951223,-2.4794436,-49.41796,
30331210,0.44316316,-1.2987088,8.748088,-0.60682905,0.0072288117,0.2274038,,,,
30331215,0.37010106,-1.2651721,9.319409,-0.5961764,0.023740396,0.22154486,8.796108,-1.4802637,-49.48313,
30331220,0.32338926,-1.2879292,9.729036,-0.55729425,0.01575092,0.21408801,,,,145.0
30331225,0.2647,-1.2735562,10.040448,-0.4944437,-0.025261726,0.20822906,8.954008,-3.702962,-50.382057,
30331230,0.26709548,-1.2675676,10.099138,-0.42786473,-0.08331859,0.19970696,,,,
30331235,0.21679044,-1.2040874,10.00811,-0.35915527,-0.14457123,0.18585852,11.1032715,-1.2955189,-49.27311,
30331240,0.2275701,-1.109466,9.751793,-0.30535945,-0.19836704,0.1704122,,,,
30331245,0.18445148,-0.9633418,9.442777,-0.27020574,-0.23085758,0.15975957,7.2578278,-1.9388876,-49.05178,
30331250,0.18085825,-0.8902797,9.076268,-0.25209627,-0.2377818,0.15390062,,,,
30331255,0.26829326,-0.911839,8.6977825,,,,10.642387,-2.7580824,-48.029533,
30331260,0.33895984,-0.9178277,8.548065,-0.24836783,-0.20422599,0.15283535,,,,
30331265,0.3593214,-0.9645395,8.522913,-0.24570467,-0.13338596,0.15443325,9.100401,-0.12806511,-48.098335,
30331270,0.41801062,-1.0555677,8.670235,-0.24410678,-0.04124068,0.15975957,,,,164.0
30331275,0.35453042,-1.0974886,8.967274,-0.23079099,0.066883564,0.1666838,9.103889,-2.0559645,-48.849754,
30331280,0.29584122,-1.1310253,9.266708,-0.19616993,0.16914888,0.1720101,,,,
30331285,0.22517462,-1.0938954,9.513443,-0.14450465,0.24797836,0.18639116,10.177767,-0.9869137,-47.442528,
30331290,0.2682932,-0.9908898,9.645195,-0.07899095,0.29484996,0.19970696,,,,
30331295,0.37968296,-0.92501414,9.602076,-0.0022919807,0.3001763,0.20982695,10.026007,-1.8852835,-48.209724,
30331300,0.43118575,-0.9010593,9.433194,0.079733305,0.27407733,0.20982695,,,,
30331305,0.45274505,-0.82560176,9.17089,0.15004072,0.21602045,0.20023957,9.100182,-1.7171383,-45.91323,
30331310,0.5114343,-0.7477488,8.878641,0.20649968,0.1361257,0.18585852,,,,
30331315,0.5832986,-0.7166076,8.587591,0.24804495,0.04344777,0.17147748,10.948357,-2.007103,-47.411552,
30331320,0.6156376,-0.659116,8.395952,0.26881757,-0.05562174,0.15230273,,,,176.0
30331325,0.61443985,-0.6195907,8.150416,0.28319865,-0.15628913,0.12886693,9.717989,-1.8853207,-47.907875,
30331330,0.5689258,-0.5908449,7.7563596,0.27947024,-0.25589126,0.104365855,,,,
30331335,0.55335516,-0.5129919,7.401829,0.25869757,-0.33578604,0.07879954,10.179523,-2.023409,-47.740013,
30331340,0.4108242,-0.40279987,7.1059875,0.21289125,-0.37520078,0.056429006,,,,
30331345,0.27787516,-0.20756833,7.0772414,0.15376914,-0.37253764,0.04524374,10.179176,-2.018776,-47.43055,
30331350,0.12815773,-0.023116514,7.1215577,0.08399436,-0.3352534,0.04524374,,,,
30331355,0.026349902,0.106239334,7.2533092,0.017948026,-0.26388073,0.0596248,10.639622,-0.98454285,-47.74061,
30331360,-0.11258786,0.21403587,7.3718853,-0.041706733,-0.16853966,0.08838691,,,,
30331365,-0.2611075,0.32183242,7.6365857,-0.08378464,-0.04923016,0.12567115,10.027208,-3.6379786,-47.106056,
30331370,-0.34494928,0.41645378,8.036631,-0.11361202,0.08339515,0.17627116,,,,
30331375,-0.2970397,0.46556112,8.417511,-0.13331938,0.20110677,0.24018696,10.02566,-1.8806515,-47.900276,
30331380,-0.16289291,0.53503,8.834326,-0.13917832,0.29005626,0.3078312,,,,
30331385,0.077852696,0.6140808,9.237963,-0.13118885,0.35184154,0.36908385,9.563309,-2.0211658,-46.981544,
30331390,0.5270049,0.5745554,9.524223,-0.105622545,0.38699526,0.41755334,,,,
30331395,1.1905525,0.45118824,9.611658,-0.06727306,0.3843321,0.44631547,10.02338,-0.8372059,-47.138588,
30331400,2.019388,0.2906912,9.588901,-0.020934092,0.34225416,0.44631547,,,,
30331405,2.9320652,0.1206122,9.564946,0.02220908,0.29591522,0.40796596,10.332581,-1.5765305,-47.58663,
30331410,3.5524943,0.012815662,9.557759,0.060558565,0.26235944,0.3259407,,,,
30331415,3.9321775,-0.096178606,9.68951,0.10529964,0.24584784,0.203968,12.176281,-0.21488667,-47.092247,
30331420,4.099861,-0.16205427,9.788923,0.15749757,0.24158679,0.054298483,,,,191.0
30331425,3.9752965,-0.21355706,9.847612,0.21289125,0.238391,-0.111882634,12.176281,-0.21488667,-47.092247,
30331430,3.6171722,-0.17522942,9.776945,0.272546,0.22667311,-0.27912897,,,,
30331435,3.145263,-0.104562774,9.560155,0.32421127,0.20643309,-0.43891853,10.64225,-2.0326185,-48.81176,
30331440,2.539207,-0.048269033,9.2188,0.3577671,0.18139939,-0.57793546,,,,
30331445,1.9115915,0.0535388,8.857082,0.3652239,0.16488782,-0.691386,9.564838,-2.7651596,-47.437187,
30331450,1.3151174,0.0990529,8.497761,0.34764707,0.16542046,-0.77500916,,,,
30331455,0.88273346,0.07629584,8.352834,0.29651445,0.18193203,-0.8192176,9.564838,-2.7651596,-47.437187,
30331460,0.544971,0.12300768,8.294145,0.22567444,0.21282467,-0.83306605,,,,
30331465,0.18684694,0.11941446,8.369602,0.14684492,0.2533047,-0.8165544,12.793585,-1.389452,-47.37281,
30331470,-0.12336751,-0.030302957,8.567229,0.062689096,0.29112154,-0.7739439,,,,
30331475,-0.35093796,-0.18840455,8.866664,-0.017738303,0.32041627,-0.71482176,11.253695,-0.66880417,-46.955162,
30331480,-0.54497176,-0.43154562,9.235568,-0.09230675,0.34225416,-0.6397207,,,,
30331485,-0.69109595,-0.71540976,9.87516,-0.15142886,0.35503736,-0.55982596,12.329447,-0.34837914,-46.313072,
30331490,-0.82164955,-0.94298023,10.577035,-0.17433202,0.34278682,-0.47833326,,,,
30331495,-0.87554777,-1.2064829,11.1411705,-0.16048361,0.29591522,-0.39417744,10.792002,-1.5417309,-45.718422,
30331500,-0.9066889,-1.2867315,11.44899,-0.12426465,0.23412994,-0.3142827,,,,
30331505,-0.764158,-1.4232737,11.51247,-0.08431727,0.1696815,-0.24131213,11.407154,-0.51674366,-46.798347,
30331510,-0.52461016,-1.4604036,11.546007,-0.049163576,0.13346253,-0.1800595,,,,
30331515,-0.31740126,-1.5574205,11.58074,-0.016140407,0.13079938,-0.1299921,11.408913,-1.5532398,-47.095833,
30331520,-0.12456524,-1.6640193,11.716085,0.02540487,0.1494415,-0.09483842,,,,207.0
30331525,-0.052700885,-1.7766068,11.7616005,0.07334173,0.17394257,-0.07566368,12.327917,0.39561558,-45.857414,
30331530,-0.013175502,-1.8388892,11.789148,0.11541964,0.19151941,-0.071402624,,,,
30331535,-0.031141587,-1.7993639,12.011927,0.15909545,0.20110677,-0.07672894,12.943895,-0.18236637,-45.68064,
30331540,-0.073062465,-1.6783922,12.040672,0.19797757,0.17980151,-0.07672894,,,,
30331545,-0.14612454,-1.4939404,11.91491,0.23952284,0.13878886,-0.071402624,12.022068,-0.06749439,-46.943016,
30331550,-0.08144663,-1.3070929,11.831069,0.27148074,0.09351516,-0.06394576,,,,
30331555,-0.029943854,-1.1442003,11.774775,0.29811233,0.047708824,-0.052760504,12.789684,-0.034975052,-45.531425,
30331560,0.032338597,-0.8998616,11.696922,0.31249338,0.012022498,-0.04849945,,,,
30331565,0.1089939,-0.6339635,11.686142,0.31888497,-0.018337512,-0.050629973,11.715797,-1.9722672,-45.845222,
30331570,0.14971705,-0.38722923,11.601103,0.3226134,-0.05295858,-0.05808682,,,,
30331575,0.2215814,-0.24589601,11.404673,0.313026,-0.09397123,-0.07086999,10.638195,-1.6891603,-45.56579,
30331580,0.41801062,-0.26745537,11.063317,0.272546,-0.13764702,-0.09377315,,,,
30331585,0.6371969,-0.3345287,10.753103,0.20543443,-0.1658765,-0.12839422,11.40493,0.236516,-45.723778,
30331590,0.820451,-0.46029133,10.547092,0.118615426,-0.15522386,-0.17100474,,,,
30331595,0.9306431,-0.7058279,10.495589,0.033394344,-0.10835228,-0.21095213,13.099571,-1.6518068,-45.504997,
30331600,1.0013096,-1.0088558,10.555475,-0.044902526,-0.039642785,-0.24717109,,,,
30331605,1.0013096,-1.4053075,10.774662,-0.11574255,0.03279513,-0.2844553,12.174421,-0.47959137,-45.07728,
30331610,0.8240442,-1.7071378,11.083679,-0.17326677,0.08552568,-0.32227215,,,,
30331615,0.600067,-1.9167422,11.413058,-0.21960573,0.111092,-0.3547627,11.711266,-0.030469894,-44.165413,
30331620,0.4251971,-1.9945955,11.716085,-0.25049838,0.11215727,-0.380329,,,,
30331625,0.19882435,-2.0425048,12.028696,-0.26807523,0.09351516,-0.39524272,11.865879,-0.47267914,-44.31121,
30331630,-0.027548365,-2.097601,12.329328,-0.27553207,0.06528567,-0.3920469,,,,
30331635,-0.21559343,-2.2089908,12.456289,-0.26807523,0.02853408,-0.370209,14.020052,-0.15675926,-45.035103,
30331640,-0.36650857,-2.3634992,12.43952,-0.25475943,-0.0039564553,-0.33718586,,,,
30331645,-0.44436163,-2.4796798,12.373644,-0.23824783,-0.027924884,-0.28818372,13.095129,0.7229538,-44.449257,
30331650,-0.49945763,-2.5814877,12.323339,-0.22120363,-0.0348491,-0.22852898,,,,
30331655,-0.47190964,-2.640177,12.205961,-0.20362677,-0.019402776,-0.16408055,12.786295,0.4443121,-43.06083,
30331660,-0.3605199,-2.6281996,12.080198,-0.18125623,0.014153026,-0.08844683,,,,
30331665,-0.18205673,-2.6665273,11.841848,-0.15995097,0.067948826,-0.013345755,13.094315,0.4443493,-43.362694,
30331670,0.07905045,-2.6138268,11.802322,-0.1354499,0.13985412,0.046309,,,,226.0
30331675,0.2706887,-2.533578,11.843046,-0.103492014,0.21761836,0.091050066,13.093161,1.0386181,-43.060066,
30331680,0.44316316,-2.4724934,11.932877,-0.058218315,0.28952366,0.1299322,,,,
30331685,0.49825916,-2.3814652,12.023905,0.004632232,0.34385207,0.15762904,13.092503,1.7710304,-43.378105,
30331690,0.6036602,-2.2461207,12.059837,0.08399436,0.37527737,0.17307536,,,,
30331695,0.69947934,-2.1239512,12.080198,0.17187862,0.3624942,0.1789343,11.095152,1.272975,-45.124413,
30331700,0.69828165,-1.9742339,11.816696,0.2640239,0.30070892,0.17627116,,,,
30331705,0.78092563,-1.8269119,11.441803,0.34232077,0.20962888,0.16508588,12.169706,0.5962801,-42.14933,
30331710,0.8036827,-1.6185052,10.959114,0.4083671,0.094047785,0.15017219,,,,
30331715,0.8336262,-1.3597934,10.418934,0.45523867,-0.022598566,0.13046482,14.476816,1.0712109,-42.252205,
30331720,0.9066883,-1.1442003,9.921872,0.47494608,-0.12699439,0.109159544,,,,
30331725,0.94741136,-1.0423925,9.558957,0.470685,-0.20475863,0.08945217,11.709579,-0.29749393,-42.3052,
30331730,0.9761571,-0.91782767,9.227183,0.4573692,-0.26441336,0.06921216,,,,
30331735,0.98573905,-0.86752266,8.916969,0.4318029,-0.311285,0.048439533,11.85981,1.3448715,-41.08236,
30331740,1.0264622,-0.72858495,8.679817,0.39718184,-0.34856918,0.0345911,,,,
30331745,0.98933226,-0.553715,8.41871,0.35031024,-0.36454815,0.019144783,12.476372,1.3379955,-42.15029,
30331750,0.995321,-0.43873203,8.148021,0.2959818,-0.3501671,0.012753202,,,,
30331755,1.0360441,-0.35968125,7.934823,0.23259863,-0.311285,0.009024779,12.321354,2.0750227,-42.007927,
30331760,1.1186881,-0.27344403,7.656947,0.1601607,-0.2479018,0.010622675,,,,
30331765,1.1462362,-0.30698067,7.4281793,0.0696133,-0.16321336,0.0132858325,11.862501,0.87484837,-42.93403,
30331770,1.1270722,-0.25428018,7.267682,-0.027325673,-0.06307858,0.016481625,,,,
30331775,1.0887446,-0.24709374,7.2604957,-0.13278675,0.049839348,0.02127531,13.400768,0.4652319,-42.271965,
30331780,1.1138971,-0.22792992,7.3623033,-0.23824783,0.16701834,0.027666891,,,,
30331785,1.1665976,-0.18361355,7.6293993,-0.33785,0.278871,0.034058474,12.322763,1.0431595,-41.99595,
30331790,1.2204959,-0.1967887,7.9192524,-0.4273321,0.3779405,0.036721632,,,,
30331795,1.2456484,-0.21355705,8.313309,-0.49657422,0.46955317,0.027666891,12.32106,1.7894697,-41.385567,
30331800,1.261219,-0.28781688,8.6714325,-0.54664165,0.54944795,0.01222057,,,,
30331805,1.1989367,-0.34171516,9.058302,-0.5743385,0.6197553,-0.0048236465,12.166731,1.6489916,-40.768715,
30331810,1.2085185,-0.39321795,9.500268,-0.5727406,0.6783448,-0.026128916,,,,
30331815,1.077965,-0.4519072,9.917082,-0.54664165,0.717227,-0.047966816,13.398262,1.8011789,-41.668434,
30331820,0.9761571,-0.49382806,10.404561,-0.49178058,0.7124333,-0.06980473,,,,
30331825,0.8468012,-0.5249692,10.763883,-0.40869,0.6543764,-0.09217526,12.16382,3.279756,-40.168617,
30331830,0.7162477,-0.5117941,10.878866,-0.30802262,0.54838264,-0.115611054,,,,
30331835,0.655163,-0.43992975,10.858504,-0.19457203,0.42001843,-0.13744895,14.164877,3.438984,-41.358803,
30331840,0.6036602,-0.32854,10.641713,-0.08005622,0.28952366,-0.16727632,,,,
30331845,0.5904851,-0.26026887,10.402166,0.03179645,0.16435519,-0.20136477,13.087091,2.8561687,-39.831215,
30331850,0.50664335,-0.20637062,10.003319,0.12873544,0.049306717,-0.23172477,,,,
30331855,0.39285812,-0.13690174,9.496675,0.211826,-0.04923016,-0.26368266,12.778725,2.860765,-39.219887,
30331860,0.22397687,-0.08539896,8.957692,0.26935023,-0.12699439,-0.289249,,,,
30331865,0.098214254,0.045154624,8.411524,0.30184072,-0.17013757,-0.30735847,14.010256,3.0129528,-40.1196,
30331870,-0.11019237,0.19127882,8.001896,0.3162218,-0.18505125,-0.3142827,,,,
30331875,-0.26470074,0.34578717,7.6557493,0.31568918,-0.17493124,-0.30948898,13.396036,2.5544386,-40.593857,
30331880,-0.43238425,0.43681538,7.3491282,0.30184072,-0.13977754,-0.2945753,,,,
30331885,-0.538983,0.48831815,7.2006087,0.27840495,-0.0902428,-0.2743353,12.318836,2.5427284,-40.310997,
30331890,-0.6575592,0.4871204,6.977829,0.23899022,-0.03218594,-0.25569317,,,,
30331895,-0.7066665,0.5506006,6.840089,0.19211863,0.037056185,-0.238649,13.547823,3.3077164,-39.670227,
30331900,-0.68510723,0.5434142,6.8520665,0.13672492,0.13026676,-0.22160476,,,,
30331905,-0.7282258,0.6272559,7.0269365,0.087722786,0.2399889,-0.2002995,12.935104,2.2503004,-40.75657,
30331910,-0.81925404,0.5422164,7.3347554,0.04457961,0.34491736,-0.16887422,,,,
30331915,-0.9030957,0.45717692,7.7982802,0.01315434,0.42321423,-0.1331879,13.7012825,3.4597754,-39.513405,
30331920,-0.9318415,0.46436337,8.229467,-0.0017593494,0.46422687,-0.09590368,,,,208.0
30331925,-0.8983048,0.42124474,8.642687,3.7117774E-4,0.46103105,-0.062347874,13.7012825,3.4597754,-39.513405,
30331930,-0.84440655,0.3889058,8.882235,0.009425919,0.4146921,-0.033585757,,,,
30331935,-0.83003366,0.42962894,8.978053,0.02167645,0.34118894,-0.0090847,11.700811,3.8716536,-39.567932,
30331940,-0.7988925,0.56138027,9.069082,0.027535396,0.25117415,0.012753202,,,,
30331945,-0.70307326,0.72187734,9.136155,0.030731188,0.15423518,0.034058474,12.932587,2.7180061,-39.05964,
30331950,-0.5365876,0.79613715,9.258326,0.033394344,0.0658183,0.058026902,,,,
30331955,-0.27667814,0.8081145,9.42481,0.041916452,-2.2803302E-4,0.081462696,14.4704,2.893394,-38.71389,
30331960,0.00718607,0.76140267,9.57333,0.06375436,-0.04923016,0.09424585,,,,
30331965,0.23116331,0.6823519,9.620042,0.087722786,-0.077992275,0.103300594,14.009386,3.0245342,-39.345932,
30331970,0.47310665,0.590126,9.579319,0.1132891,-0.08811228,0.099572174,,,,194.0
30331975,0.61683536,0.55898476,9.476313,0.14045334,-0.08118806,0.086256385,14.470114,3.4760814,-39.184937,
30331980,0.68750197,0.59731245,9.40924,0.16282387,-0.058284897,0.073473215,,,,
30331985,0.75217986,0.60569656,9.336178,0.17773756,-0.02632699,0.06282058,14.007977,4.056398,-39.357918,
30331990,0.76655275,0.61647624,9.285873,0.18998809,0.014153026,0.05589638,,,,
30331995,0.74499345,0.6392333,9.299047,0.19584705,0.048774086,0.052700587,14.778749,3.9021316,-40.575073,
30332000,0.7665528,0.66199034,9.326595,0.19744493,0.07220988,0.046309,,,,
30332005,0.7964963,0.6775609,9.279883,0.19478178,0.088188834,0.037786894,15.54575,3.5086374,-38.07521,
30332010,0.7952985,0.6703745,9.288269,0.18892282,0.10043936,0.025536364,,,,
30332015,0.765355,0.6643858,9.306233,0.17827019,0.11055937,0.012753202,13.3917885,3.9135485,-38.443,
30332020,0.7246319,0.6356401,9.281081,0.16388914,0.11588568,0.0015679346,,,,180.0
30332025,0.6683382,0.60809207,9.4571495,0.14684492,0.11588568,-0.00588891,15.699303,4.09366,-38.542458,
30332030,0.5605416,0.6021034,9.798505,0.14577965,0.109494105,-0.013878386,,,,
30332035,0.43358126,0.52664584,10.247658,0.16548704,0.08179725,-0.013878386,13.69981,3.9135847,-38.744873,
30332040,0.33656436,0.5434142,10.48481,0.19318388,0.036523554,-0.013345755,,,,
30332045,0.25990903,0.5817418,10.615364,0.22993548,-0.016739618,-0.012813122,13.543034,5.6871076,-38.305016,
30332050,0.17486957,0.6320468,10.67046,0.27041548,-0.062013317,-0.0090847,,,,
30332055,0.0754572,0.6751654,10.612968,0.30716705,-0.09769965,-0.0032257512,14.77429,4.5404096,-37.332527,
30332060,-0.016768724,0.69432926,10.644109,0.3380597,-0.13019018,0.007959516,,,,
30332065,-0.11019238,0.6571994,10.701601,0.3684197,-0.17120282,0.025003733,15.390814,3.8103862,-37.4635,
30332070,-0.14372908,0.6356401,10.777058,0.4035734,-0.22659653,0.045776367,,,,168.0
30332075,-0.104203686,0.51706386,10.682437,0.430205,-0.2846534,0.063885845,14.620754,5.6918683,-39.052086,
30332080,0.011977032,0.46316564,10.483612,0.44565132,-0.33259025,0.078266904,,,,
30332085,0.10659842,0.46436337,10.247658,0.44405344,-0.36667868,0.08732165,13.235821,5.0974345,-37.9963,
30332090,0.20241757,0.45717692,10.03446,0.4248787,-0.38425553,0.0899848,,,,
30332095,0.32338923,0.41525608,9.89672,0.39025763,-0.38265762,0.088919535,13.699873,4.491639,-39.52539,
30332100,0.38327622,0.35417134,9.818867,0.34232077,-0.36028707,0.084125854,,,,
30332105,0.3653101,0.2978776,9.858392,0.29385126,-0.31820917,0.08039743,13.388008,5.5558944,-37.069237,
30332110,0.38567168,0.3338098,9.921872,0.23739232,-0.25589126,0.081462696,,,,
30332115,0.25631583,0.2607477,10.002121,0.18732494,-0.18025756,0.08306059,12.007265,3.892537,-38.477196,
30332120,0.24433844,0.18289465,10.088358,0.12607229,-0.09450386,0.09424585,,,,157.0
30332125,0.14013512,0.13139185,10.204538,0.0696133,0.001369862,0.1118227,14.469759,2.6124735,-37.782066,
30332130,-0.031141587,0.0990529,10.305149,0.020611184,0.11215727,0.13472587,,,,
30332135,-0.23954822,0.18409237,10.592607,-0.016140407,0.23945627,0.16987957,14.158058,5.555986,-37.823906,
30332140,-0.48149154,0.28470248,11.010616,-0.033184625,0.3608963,0.21035959,,,,
30332145,-0.69948006,0.4595724,11.520855,-0.035315152,0.4429216,0.25297013,14.005486,4.379011,-37.50454,
30332150,-0.796497,0.5182617,12.038278,-0.021999355,0.4716837,0.28865647,,,,
30332155,-0.75936705,0.6128831,12.423949,0.006762759,0.45091107,0.30836385,15.23707,4.2410135,-38.09137,
30332160,-0.7521806,0.73265696,12.782073,0.051503826,0.38486475,0.31475544,,,,
30332165,-0.6108474,0.77457786,12.9437685,0.097310156,0.2735447,0.31209224,15.851408,4.987397,-38.084732,
30332170,-0.33776283,0.62605816,12.883881,0.13885544,0.12547307,0.29771122,,,,145.0
30332175,0.07785269,0.2942844,12.737757,0.1681502,-0.043371208,0.27001438,14.774153,5.2658734,-38.114754,
30332180,0.6288128,-0.13929725,12.229916,0.17400914,-0.22020495,0.21834905,,,,
30332185,1.1162926,-0.47825742,11.614277,0.14471439,-0.35868922,0.1384543,14.005594,3.7986403,-36.87876,
30332190,1.4157274,-0.7621216,11.080086,0.08612489,-0.44976923,0.05110269,,,,
30332195,1.495976,-0.8998617,10.62734,0.0035669683,-0.48545557,-0.032520495,14.464861,5.5722365,-37.04264,
30332200,1.5115466,-1.0124491,10.385397,-0.089110956,-0.46521556,-0.11081737,,,,
30332205,1.3797953,-1.0795226,10.3554535,-0.18711518,-0.40769133,-0.17739634,14.464861,5.5722365,-37.04264,
30332210,1.0755695,-1.0879066,10.527928,-0.27872786,-0.3267313,-0.23172477,,,,
30332215,0.64079016,-1.0891044,10.759092,-0.35915527,-0.2329881,-0.26474792,14.6176605,6.456709,-37.20385,
30332220,0.28625932,-1.030415,11.064515,-0.40922266,-0.11421123,-0.2780637,,,,133.0
30332225,-0.04192123,-1.012449,11.47534,-0.42466897,0.026936186,-0.26687846,14.311264,6.1456404,-37.98169,
30332230,-0.31141257,-1.0471835,11.790345,-0.41135317,0.17607309,-0.23012687,,,,
30332235,-0.5078418,-1.0950931,11.961622,-0.37779737,0.31775314,-0.18272264,14.004288,6.131706,-38.608223,
30332240,-0.6898982,-1.0759293,12.070616,-0.33199105,0.43599737,-0.13052474,,,,
30332245,-0.8539884,-1.0783248,12.17961,-0.27819523,0.5238816,-0.07832683,15.237694,5.5352674,-40.27305,
30332250,-1.0300561,-1.0376017,12.235905,-0.2174752,0.5707532,-0.023465758,,,,
30332255,-1.1737849,-1.0280197,12.299385,-0.15249412,0.5691553,0.03352584,15.541174,6.608861,-37.801697,
30332260,-1.2420559,-0.9633418,12.355679,-0.08005622,0.5121637,0.088919535,,,,
30332265,-1.2073215,-0.9058503,12.431136,-0.006553035,0.40350685,0.13525851,13.695433,6.866399,-38.469643,
30332270,-1.0623951,-0.84835887,12.270639,0.06481962,0.2666205,0.16828167,,,,120.0
30332275,-0.83362687,-0.8220086,12.002345,0.13619228,0.117483586,0.18585852,15.693974,7.4933333,-37.962906,
30332280,-0.5952768,-0.82200855,11.680153,0.19478178,-0.031120675,0.18905433,,,,
30332285,-0.2970397,-0.82440406,11.283702,0.2336639,-0.17067018,0.17573853,15.388269,7.1729994,-39.35968,
30332290,-0.10540142,-0.88309324,10.850121,0.26455653,-0.2798597,0.14857431,,,,
30332295,-0.023955144,-0.829195,10.503973,0.29491654,-0.35922185,0.118746914,15.9977,10.010905,-37.520203,
30332300,-0.028746106,-0.80404246,10.072787,0.3140913,-0.41461554,0.09318059,,,,
30332305,-0.06467829,-0.6890595,9.719454,0.32527655,-0.4508345,0.069744796,14.769173,8.660914,-37.844666,
30332310,-0.1233675,-0.62797487,9.410439,0.31995022,-0.4710745,0.051635325,,,,
30332315,-0.21559344,-0.5501218,8.991228,0.30184072,-0.48012924,0.038319528,13.69437,7.893629,-38.7911,
30332320,-0.2850623,-0.43992978,8.59837,0.26721966,-0.46468294,0.025536364,,,,107.0
30332325,-0.41202268,-0.36806542,8.303726,0.21981548,-0.4204745,0.0154163595,15.385588,8.511263,-38.601418,
30332330,-0.4958644,-0.3033875,8.097715,0.16761756,-0.35549343,0.011155306,,,,
30332335,-0.47310737,-0.29500335,7.981535,0.11222384,-0.28412077,0.011687938,15.081953,6.4266524,-39.668182,
30332340,-0.46951416,-0.3441106,7.8521786,0.054166984,-0.21647651,0.012753202,,,,
30332345,-0.4647232,-0.4686755,7.724021,-0.01454251,-0.1589523,0.012753202,14.15694,6.873402,-38.458244,
30332350,-0.47550285,-0.64354545,7.611433,-0.09230675,-0.10941754,0.016481625,,,,
30332355,-0.5294011,-0.7453533,7.5287895,,,,14.003397,7.156621,-39.084404,
30332360,-0.5773107,-0.83638144,7.479682,-0.17752782,-0.068404905,0.019677414,,,,
30332365,-0.6300112,-0.8579407,7.5958624,-0.27286893,-0.043371208,0.02713426,14.003481,6.721342,-38.615067,
30332370,-0.6359999,-0.824404,7.777919,-0.3719384,-0.031120675,0.04151532,,,,92.0
30332375,-0.60725415,-0.78847194,7.9923143,-0.46301845,-0.03378384,0.06069006,14.464357,7.315666,-38.76525,
30332380,-0.44196615,-0.76930803,8.325286,-0.5471743,-0.042838577,0.081462696,,,,
30332385,-0.28985327,-0.7621216,8.695387,-0.61162275,-0.048697527,0.10276797,15.382923,8.836192,-36.593315,
30332390,-0.0347348,-0.79925156,9.1864605,-0.65316796,-0.048697527,0.11235534,,,,
30332395,0.18445148,-0.8256018,9.617646,-0.66914696,-0.04124068,0.11288796,14.774179,7.870595,-41.394966,
30332400,0.34854174,-0.8303927,9.942234,-0.6542333,-0.02366383,0.1001048,,,,
30332405,0.40723097,-0.87590677,10.172199,-0.6057638,0.009359339,0.078266904,14.310211,8.041112,-39.396545,
30332410,0.4479541,-0.86273164,10.378211,-0.5295974,0.051437244,0.053233214,,,,
30332415,0.46831566,-0.82200855,10.440494,-0.43319106,0.09671094,0.026601626,15.847948,9.520018,-40.613533,
30332420,0.41920838,-0.7932629,10.369827,-0.32506683,0.13239728,5.026711E-4,,,,50.0
30332425,0.34854174,-0.7381668,10.070392,-0.21800782,0.1595615,-0.025596285,15.230562,8.380049,-37.365646,
30332430,0.17486957,-0.659116,9.696697,-0.115209915,0.18832362,-0.052760504,,,,
30332435,-0.0023958385,-0.5321557,9.302641,-0.025195146,0.21602045,-0.072467886,13.692156,9.515129,-38.80993,
30332440,-0.14253134,-0.45669812,8.967274,0.04457961,0.24211943,-0.08418578,,,,
30332445,-0.25631657,-0.41477725,8.557648,0.09464699,0.25863102,-0.09217526,13.38419,9.224907,-38.195175,
30332450,-0.43358195,-0.38722923,8.230665,0.12447437,0.26555523,-0.09004474,,,,
30332455,-0.56413555,-0.39202023,7.8533764,0.13406175,0.26235944,-0.080989994,14.614447,9.683495,-38.324646,
30332460,-0.65995467,-0.41597497,7.586281,0.119680695,0.25064152,-0.06714157,,,,
30332465,-0.69588685,-0.39321795,7.350326,0.08878805,0.23253205,-0.04370576,15.844103,10.58431,-38.45925,
30332470,-0.75577384,-0.32494682,7.2616935,0.038720664,0.21069415,-0.01760681,,,,21.0
30332475,-0.8024857,-0.23511636,7.234145,-0.020401461,0.1899215,0.007426884,14.769411,9.236653,-38.779915,
30332480,-0.8767455,-0.056653216,7.4162016,-0.08112148,0.18139939,0.040982686,,,,
30332485,-0.75337833,0.0259908,7.685693,-0.13491727,0.17873624,0.08039743,16.305866,10.153719,-38.133255,
30332490,-0.60485864,0.033177227,8.106099,-0.16740781,0.18512782,0.117149025,,,,
30332495,-0.44196615,0.085877754,8.54567,-0.17912571,0.1931173,0.14484589,16.460533,9.421324,-37.966164,
30332500,-0.35692668,0.1541489,8.872653,-0.16101623,0.19897625,0.1618901,,,,
30332505,-0.31261033,0.19487204,9.246347,-0.12426465,0.20536782,0.1720101,15.226734,11.180821,-37.39817,
30332510,-0.29823744,0.282307,9.616449,-0.06780569,0.20057414,0.17414062,,,,
30332515,-0.23116404,0.3122505,9.889533,0.009958549,0.18033414,0.1720101,17.38271,9.301821,-37.013252,
30332520,-0.112587854,0.35417134,10.101533,0.09837542,0.14251728,0.16029221,,,,16.0
30332525,-0.045514457,0.32782108,10.175793,0.1953144,0.08179725,0.14697641,18.919888,10.0645275,-36.829086,
30332530,-0.010780022,0.2667364,10.085962,0.29385126,0.001369862,0.12141008,,,,
30332535,-0.06587602,0.18289465,9.9721775,0.3833334,-0.07905754,0.09584375,16.921558,10.158424,-38.42752,
30332540,-0.16049743,0.09545968,9.844019,0.46429342,-0.1541586,0.068679534,,,,
30332545,-0.33297187,0.10743707,9.773353,0.54312295,-0.2212702,0.042580582,16.615902,8.679665,-38.418,
30332550,-0.5521582,0.17451048,9.861985,0.6112998,-0.2878492,0.026068995,,,,
30332555,-0.7390055,0.25835222,9.852403,0.6752156,-0.35922185,0.020742677,16.00019,9.688292,-39.37358,
30332560,-0.9402257,0.34219396,9.930256,0.74285984,-0.43858397,0.027666891,,,,
30332565,-1.1677961,0.48472494,9.999725,0.8136999,-0.523805,0.046841636,15.076818,8.810677,-37.993507,
30332570,-1.3402706,0.61647624,9.998528,0.88134414,-0.60955876,0.081462696,,,,15.0
30332575,-1.4516604,0.76978683,9.936245,0.9415315,-0.6969104,0.12886693,15.999184,10.425337,-39.38214,
30332580,-1.5163382,0.92070204,9.669149,0.99000096,-0.7815988,0.18532589,,,,
30332585,-1.4097395,1.090781,9.205624,1.0198283,-0.8540367,0.24338275,15.385595,9.379503,-39.694824,
30332590,-1.1162933,1.1818092,8.50854,1.0176978,-0.89931047,0.2993091,,,,
30332595,-0.7905083,1.2764306,7.9815345,0.9702936,-0.9120936,0.35044172,16.3102,8.359331,-39.814774,
30332600,-0.39405656,1.3794361,7.643772,0.8935946,-0.89345145,0.39092177,,,,
30332605,0.045513734,1.2872102,7.3934445,0.8041125,-0.8439167,0.42234704,15.233061,8.925676,-40.312424,
30332610,0.5485642,1.0991652,7.26888,0.69865143,-0.7752072,0.44205442,,,,
30332615,1.0072985,0.88836306,7.2185745,0.58360296,-0.6995735,0.44205442,15.078045,9.662703,-40.170044,
30332620,1.3666201,0.67995644,7.308405,0.460565,-0.6260703,0.41915125,,,,
30332625,1.8696706,0.50508654,7.349128,0.32314605,-0.5435124,0.37547544,16.000933,8.520601,-38.58622,
30332630,2.2984614,0.38770807,7.4964504,0.18199861,-0.43645343,0.3104944,,,,
30332635,2.5236363,0.29308665,7.78271,0.046710137,-0.29264286,0.2274038,14.155283,9.211101,-39.878235,
30332640,2.6757493,0.17451046,8.142032,-0.06940358,-0.11953755,0.13792168,,,,
30332645,2.704495,-0.006348163,8.548065,-0.17486465,0.058361456,0.04524374,14.004103,8.015596,-40.796745,
30332650,2.597896,-0.103365034,9.07028,-0.26541206,0.22720572,-0.04743419,,,,
30332655,2.3343935,-0.15726332,9.683521,-0.3495679,0.3779405,-0.13744895,15.6952915,8.778322,-40.76351,
30332660,1.9259644,-0.16085653,10.356651,-0.40709212,0.49831527,-0.2136153,,,,
30332665,1.5546652,-0.21715026,11.0022335,-0.4273321,0.5936564,-0.27327,14.620005,8.741133,-42.1827,
30332670,1.1294677,-0.18840453,11.760402,-0.42573422,0.6511806,-0.3180111,,,,
30332675,0.60605574,-0.22313896,12.650322,-0.38205844,0.6591701,-0.349969,14.462553,9.510588,-39.87406,
30332680,0.19523115,-0.22194123,13.41927,-0.29737,0.60643953,-0.36115426,,,,
30332685,-0.085039854,-0.31416717,14.00736,-0.18178888,0.48233634,-0.35742584,16.926075,9.22996,-41.357185,
30332690,-0.37728822,-0.38243827,14.26727,-0.04436989,0.3001763,-0.3435774,,,,
30332695,-0.47430512,-0.415975,14.210976,0.10103858,0.087123565,-0.32120687,16.463657,8.511391,-39.65796,
30332700,-0.5341921,-0.3980089,13.893576,0.23845759,-0.12965754,-0.29191214,,,,
30332705,-0.4347797,-0.35968122,13.378548,0.3577671,-0.3086218,-0.26368266,15.540678,9.2205305,-40.617706,
30332710,-0.20002282,-0.3309355,12.803633,0.44884712,-0.43698606,-0.23172477,,,,
30332715,0.04551372,-0.3896247,12.367656,0.5148934,-0.52220714,-0.20189738,13.079714,9.756599,-41.768486,
30332720,0.2647,-0.39321792,11.930481,0.557504,-0.56268716,-0.18219002,,,,13.0
30332725,0.34015754,-0.26625758,11.603498,0.5798745,-0.5594914,-0.16727632,15.081011,7.7417526,-40.45726,
30332730,0.32698244,-0.029105201,11.311251,0.58733135,-0.5152829,-0.15715633,,,,
30332735,0.292248,0.35417137,11.09925,0.5857335,-0.43911657,-0.14597106,15.698376,7.145241,-41.51835,
30332740,0.2766774,0.6284536,10.972289,0.5750808,-0.35549343,-0.1299921,,,,
30332745,0.30422541,0.88357216,10.724358,0.557504,-0.26707655,-0.106023684,13.692219,10.0931835,-39.590446,
30332750,0.36411238,0.9913686,10.403364,0.5218177,-0.17706177,-0.07832683,,,,
30332755,0.5904851,0.9362727,10.07638,0.47334817,-0.08917754,-0.05702156,15.696648,8.036644,-41.064415,
30332760,0.8767448,0.760205,9.750595,0.40783447,-7.606648E-4,-0.0426405,,,,
30332765,1.1797729,0.5470074,9.330189,0.33220074,0.08179725,-0.042107873,15.696299,8.041277,-40.75495,
30332770,1.3594337,0.3194369,9.012788,0.24431653,0.17021413,-0.056488924,,,,
30332775,1.4780098,0.22960648,8.761263,0.14471439,0.25596786,-0.08844683,15.388086,9.05689,-41.548195,
30332780,1.5163376,0.07390037,8.748088,0.041916452,0.3326668,-0.124665804,,,,
30332785,1.536699,-0.050664514,8.7971945,-0.07046885,0.37527737,-0.16621107,18.002861,8.668248,-40.55007,
30332790,1.5211284,-0.2435005,8.859478,-0.18977834,0.38220155,-0.21095213,,,,
30332795,1.5079533,-0.4758619,8.92176,-0.31334892,0.35556996,-0.25942162,16.927631,8.340874,-41.65638,
30332800,1.5546652,-0.7549352,9.125376,-0.43638685,0.31295943,-0.31055427,,,,
30332805,1.6385069,-1.0364039,9.3242,-0.5540985,0.26502258,-0.36381742,15.851381,7.882304,-41.677834,
30332810,1.7163601,-1.3909347,9.600878,-0.6611575,0.21974888,-0.41654798,,,,
30332815,1.7690605,-1.7191154,9.865578,-0.7607596,0.17873624,-0.47140902,14.619198,9.33077,-42.189552,
30332820,1.7834333,-2.0664597,10.163815,-0.85716593,0.13239728,-0.52467227,,,,
30332825,1.7678628,-2.285646,10.595001,-0.95676804,0.08392778,-0.5736744,15.080011,9.347038,-41.559227,
30332830,1.6564729,-2.3623013,11.169916,-1.0526417,0.049839348,-0.6120239,,,,
30332835,1.5055578,-2.3000188,11.810707,-1.1202861,0.04451303,-0.64078593,15.541494,9.499135,-41.704277,
30332840,1.275592,-2.3227758,12.452695,-1.1426566,0.08019936,-0.6594281,,,,
30332845,1.0695808,-2.2796574,13.173735,-1.1091008,0.15157202,-0.671146,15.84478,11.588377,-40.32804,
30332850,0.78571653,-2.2988212,13.7163105,-1.0260102,0.2501089,-0.6732765,,,,
30332855,0.45633826,-2.2401319,14.181032,-0.897646,0.3592984,-0.6647544,15.849623,8.9188,-41.38035,
30332860,0.10779617,-2.1598835,14.418185,-0.734128,0.45996583,-0.6365249,,,,
30332865,-0.2754804,-2.0484939,14.490049,-0.55356586,0.5425237,-0.5912512,14.000891,11.242381,-41.91755,
30332870,-0.6671411,-1.8772168,14.323565,-0.36714473,0.6037764,-0.5289333,,,,15.0
30332875,-1.0408359,-1.6580305,13.963045,-0.17806046,0.6341364,-0.45116904,15.076635,10.694567,-40.18203,
30332880,-1.2660108,-1.4436352,13.470774,-0.009748825,0.63999534,-0.35902375,,,,
30332885,-1.347457,-1.2112738,12.768898,0.13992071,0.6213532,-0.2642153,17.68935,12.938442,-40.607315,
30332890,-1.3678186,-0.9417825,11.867001,0.26349127,0.5856669,-0.17579843,,,,
30332895,-1.2791859,-0.7381668,11.111227,0.35244077,0.5414585,-0.09004474,16.305676,11.169368,-39.22837,
30332900,-1.1210843,-0.5022122,10.444086,0.4062366,0.47754267,-0.015476282,,,,
30332905,-0.9210619,-0.32015586,9.755386,0.42647657,0.3891258,0.046841636,16.612827,11.180986,-38.756577,
30332910,-0.6204293,-0.18481131,9.167295,0.42008498,0.2943173,0.093713224,,,,
30332915,-0.30422613,-0.09737635,8.694189,0.39558393,0.19364993,0.11927955,16.305885,11.8902,-40.32007,
30332920,0.08623685,-0.14289044,8.257015,0.3513755,0.08499304,0.123007976,,,,
30332925,0.4239993,-0.31776038,7.7599525,0.28479654,-0.02366383,0.10809428,17.841125,12.823479,-38.59028,16.0
30332930,0.6671404,-0.42076594,7.3946424,0.19584705,-0.124331236,0.07400585,,,,
30332935,0.89590865,-0.51658505,7.0628686,0.09251647,-0.21221547,0.028732156,16.92123,11.899538,-40.30487,
30332940,0.9917277,-0.5285624,6.910756,-0.023597252,-0.264946,-0.02453102,,,,
30332945,0.9989142,-0.47705972,6.9466877,-0.13917832,-0.28305548,-0.080989994,17.689194,11.927424,-39.202736,
30332950,0.87914026,-0.37644958,7.1586876,-0.24836783,-0.2734681,-0.12786157,,,,
30332955,0.7677505,-0.2902124,7.392247,-0.34797,-0.24843442,-0.16993949,17.689194,11.927424,-39.202736,
30332960,0.5329936,-0.20277739,7.6629357,-0.43106055,-0.21061757,-0.20509319,,,,
30332965,0.40603322,-0.14528592,7.9659643,-0.4987048,-0.16321336,-0.22959425,18.612282,13.387728,-41.053856,
30332970,0.319796,-0.066235125,8.221083,-0.55037004,-0.11208071,-0.2503669,,,,
30332975,0.1365419,-0.021918774,8.377986,-0.5807301,-0.05562174,-0.26634583,17.689941,11.627974,-39.50878,
30332980,0.0011973679,0.0044315085,8.483387,-0.59511113,0.008294076,-0.2722048,,,,
30332985,-0.14612456,0.061922975,8.525309,-0.5988395,0.07593831,-0.26528054,16.77029,11.279772,-42.158623,
30332990,-0.22158213,0.08468001,8.4139185,-0.58658904,0.14997414,-0.25303003,,,,
30332995,-0.25990978,0.08228455,8.435478,-0.57700163,0.23093416,-0.24131213,15.689854,12.758367,-40.80973,
30333000,-0.30781937,0.01521115,8.461828,-0.56688166,0.3055026,-0.22373529,,,,
30333005,-0.3245877,0.009222433,8.439071,-0.5391848,0.36515734,-0.20722371,17.84422,12.058638,-40.438522,
30333010,-0.44555938,-0.029105216,8.520517,-0.5008353,0.41842052,-0.19390792,,,,
30333015,-0.5880903,-0.021918774,8.610348,-0.4587574,0.4429216,-0.17153738,18.612804,13.380778,-41.51806,
30333020,-0.7210394,-0.09617862,8.684607,-0.4140163,0.42747527,-0.13798158,,,,
30333025,-0.87315226,-0.20517288,8.839115,-0.3730037,0.36782053,-0.106023684,19.687222,13.429548,-39.325195,14.0
30333030,-1.08635,-0.2578734,9.163703,-0.32772997,0.26821837,-0.07459842,,,,
30333035,-1.2528356,-0.25068697,9.433194,-0.2829889,0.13399518,-0.03784681,17.839779,14.433397,-39.382774,
30333040,-1.3438638,-0.20756835,9.649985,-0.2275952,-0.027392253,-2.9960647E-5,,,,
30333045,-1.4348919,-0.13211079,9.841623,-0.15568992,-0.1994323,0.04417848,18.608547,13.871648,-38.273796,
30333050,-1.5247225,-0.06863059,9.776945,-0.08218674,-0.36454815,0.09051743,,,,
30333055,-1.5115473,0.045154624,9.458347,-0.0150751425,-0.50729346,0.13685639,16.765556,13.368978,-40.480522,
30333060,-1.4983721,0.07629585,9.148132,0.037122767,-0.6132872,0.18479325,,,,
30333065,-1.4097395,0.12420541,8.804382,0.07174383,-0.68252933,0.23432802,18.14973,13.394621,-40.136856,
30333070,-1.3306887,0.14696246,8.391161,0.0829291,-0.7150199,0.28439543,,,,
30333075,-1.2204967,0.16492856,8.119274,0.07707015,-0.7192809,0.33339754,17.690163,13.217046,-41.693886,12.0
30333080,-1.1402481,0.21403587,7.8354106,0.052036457,-0.6905188,0.38399756,,,,
30333085,-1.0240675,0.30626178,7.5958624,0.0142196035,-0.630864,0.4388586,16.457535,13.36894,-40.17865,
30333090,-0.82404494,0.4380131,7.4952526,-0.0294562,-0.53179455,0.49798074,,,,
30333095,-0.5054463,0.51945937,7.636586,-0.07419727,-0.40822396,0.564027,16.9193,12.938351,-39.852646,
30333100,-0.17606804,0.5362277,7.8761334,-0.12053624,-0.2734681,0.62847555,,,,
30333105,0.09701651,0.5290413,8.077354,-0.15462464,-0.1424407,0.6790755,18.613052,12.074944,-40.110054,
30333110,0.34135532,0.5410187,8.326484,-0.17806046,-0.02366383,0.71103346,,,,
30333115,0.65636075,0.56617117,8.678619,-0.18711518,0.07806884,0.721686,17.843662,11.34244,-39.037354,
30333120,0.95699334,0.64761746,9.045127,-0.17965834,0.15263727,0.71422917,,,,
30333125,1.192948,0.73026145,9.396065,-0.16314675,0.1899215,0.691326,19.228798,11.789464,-40.09143,
30333130,1.468428,0.7949394,9.620042,-0.13598254,0.19578046,0.6529766,,,,
30333135,1.7498966,0.76858914,9.702686,-0.11467729,0.18033414,0.6066376,19.844528,12.517318,-41.322655,
30333140,2.014597,0.7805666,9.705082,-0.09177412,0.15743096,0.5464502,,,,
30333145,2.2529473,0.73026145,9.68951,-0.068870954,0.14251728,0.4772081,17.076794,11.010469,-40.754997,
30333150,2.3930826,0.7578095,9.803296,-0.03904357,0.12813623,0.40849862,,,,
30333155,2.4769244,0.7110976,9.938641,-0.0060204025,0.10683094,0.34405017,17.691818,10.879347,-40.273888,
30333160,2.5032744,0.59491694,10.042844,0.03392698,0.08499304,0.2790691,,,,
30333165,2.51645,0.49909782,10.15663,0.08239647,0.051437244,0.21249011,19.077236,9.875444,-39.763504,
30333170,2.3691278,0.41286057,10.247657,0.12926807,0.0072288117,0.14591114,,,,
30333175,2.1643145,0.3493804,10.3949795,0.17773756,-0.04976279,0.084125854,18.924294,9.716435,-40.38453,11.0
30333180,1.8828458,0.4224425,10.47403,0.221946,-0.12060281,0.035123736,,,,
30333185,1.5115466,0.5110752,10.49559,0.26721966,-0.1861165,5.026711E-4,19.075336,11.6374035,-40.248253,
30333190,1.2192981,0.5673689,10.513556,0.3114281,-0.244706,-0.017074179,,,,
30333195,0.9186657,0.6536062,10.480019,0.34658182,-0.29424077,-0.023998389,17.689941,11.627974,-39.50878,
30333200,0.7342138,0.6703745,10.38899,0.37268075,-0.32779655,-0.025596285,,,,
30333205,0.5617393,0.6955271,10.263227,0.39238816,-0.33951446,-0.019737335,20.153194,10.9167,-40.213097,
30333210,0.46711794,0.72906375,10.077578,0.4014429,-0.32726392,-0.003758383,,,,
30333215,0.33297116,0.7614027,9.917082,0.4115629,-0.2867839,0.017014256,16.923985,9.257756,-39.50039,
30333220,0.28625932,0.78655523,9.80689,0.41635656,-0.21168284,0.044711106,,,,
30333225,0.30182993,0.755414,9.836832,0.42647657,-0.11101544,0.07613637,19.077637,9.580626,-39.76008,
30333230,0.28985253,0.6907361,9.834437,0.44245553,-0.0012932966,0.10969217,,,,
30333235,0.32338926,0.5841373,9.79611,0.45896712,0.109494105,0.14218272,19.847229,10.165721,-40.831062,
30333240,0.352135,0.48232943,9.859589,0.47441342,0.21602045,0.17254274,,,,
30333245,0.29823673,0.35057813,9.860787,0.4850661,0.2953826,0.19864169,18.154709,9.99958,-40.40695,
30333250,0.20361531,0.309855,9.871567,0.48772922,0.34544998,0.22154486,,,,
30333255,0.08863233,0.35177588,9.871567,0.48187026,0.37208158,0.24977434,19.078854,9.564412,-40.843224,
30333260,-0.059887327,0.36614874,9.814075,0.46961975,0.37847313,0.28812385,,,,
30333265,-0.22876856,0.36016005,9.845217,0.44618398,0.36569,0.32860383,20.465054,8.984205,-41.575844,
30333270,-0.33297187,0.35417137,9.844019,0.4168892,0.33160156,0.36695334,,,,
30333275,-0.5198192,0.3302166,9.957805,0.38599655,0.28259942,0.40743336,20.927658,8.687126,-42.179955,
30333280,-0.5449717,0.21523361,10.29916,0.35829973,0.19578046,0.44258702,,,,
30333285,-0.46232772,0.005629219,10.688425,0.3295376,0.05729619,0.4692186,20.771946,9.433418,-41.418648,
30333290,-0.35692668,-0.2518847,10.761488,0.30184072,-0.10249334,0.48573023,,,,
30333295,-0.4096272,-0.36087897,10.72795,0.27361128,-0.24364074,0.49957862,21.080906,8.118355,-40.931435,
30333300,-0.5090395,-0.28302592,10.699205,0.24644706,-0.3501671,0.5150249,,,,
30333305,-0.52101696,-0.006348163,10.827363,0.23685968,-0.40822396,0.5315365,18.775482,7.9104476,-42.68879,
30333310,-0.4587345,0.3038663,11.007024,0.23952284,-0.42952922,0.539526,,,,
30333315,-0.36770633,0.5757531,11.384312,0.25816494,-0.43645343,0.53899336,20.467056,6.641875,-40.46531,
30333320,-0.16528839,0.7039112,11.726865,0.27840495,-0.45403028,0.5267429,,,,
30333325,0.0383273,0.64761746,11.790345,0.30130813,-0.4748029,0.5017091,20.314,6.1949964,-40.618706,
30333330,0.22996557,0.49191135,11.651407,0.32048285,-0.47693345,0.4670881,,,,
30333335,0.40004456,0.28590024,11.384312,0.32367864,-0.4508345,0.42501017,21.235294,7.968648,-41.23539,
30333340,0.48268855,0.0930642,10.932764,0.31515652,-0.3970387,0.39198703,,,,
30333345,0.48268858,-0.0051504225,10.408154,0.28532916,-0.31394812,0.37867123,18.928474,7.779271,-41.754875,
30333350,0.4778976,-0.15486783,9.984156,0.23100074,-0.22180285,0.37920386,,,,
30333355,0.55694836,-0.31536487,9.597284,0.13512702,-0.13871229,0.38985652,20.931404,6.3216324,-42.616768,
30333360,0.6719314,-0.41357952,9.267906,0.012621708,-0.059882794,0.39358494,,,,
30333365,0.89830405,-0.53095794,9.131365,-0.12479728,0.016283551,0.39198703,20.314602,5.7527695,-40.61357,
30333370,1.1498294,-0.56090146,9.08585,-0.26860788,0.09617831,0.37227967,,,,
30333375,1.4097388,-0.6567206,9.154121,-0.4166795,0.17713834,0.33339754,20.009369,5.715672,-42.787437,10.0
30333380,1.606168,-0.7681103,9.282279,-0.55037004,0.26342466,0.2822649,,,,
30333385,1.7199532,-0.87470907,9.4703245,-0.68139744,0.34971103,0.21941432,20.316574,5.4371047,-42.002754,
30333390,1.6241341,-0.9908898,9.754189,-0.79751116,0.42321423,0.15816168,,,,
30333395,1.5055578,-1.077127,10.167408,-0.8923196,0.48233634,0.10276797,20.77855,5.727345,-42.76844,
30333400,1.4241116,-1.1621665,10.650098,-0.96156174,0.51749,0.05483111,,,,
30333405,1.3366766,-1.2711608,11.150753,-1.008966,0.523349,0.0132858325,19.237461,5.4508743,-40.017815,
30333410,1.2959535,-1.4604036,11.586729,-1.0329344,0.50097847,-0.02453102,,,,
30333415,1.2276824,-1.6568329,11.96282,-1.0361302,0.45890054,-0.06927209,21.236237,6.653548,-40.446312,
30333420,1.1043153,-1.8137367,12.382029,-1.0206839,0.4045721,-0.11827421,,,,
30333425,0.87554705,-1.8784146,12.8515415,-0.9716818,0.32520998,-0.16408055,19.852184,6.915773,-41.257607,
30333430,0.55335516,-1.8209231,13.246797,-0.90030915,0.23412994,-0.20083213,,,,
30333435,0.2000221,-1.6891718,13.553417,-0.80869645,0.14145201,-0.21787634,20.313942,6.485182,-40.931602,
30333440,-0.16049743,-1.5394543,13.800152,-0.6984417,0.048241455,-0.21041949,,,,
30333445,-0.44316387,-1.4795674,13.918728,-0.5722079,-0.033251204,-0.19124475,19.697903,6.485109,-40.327866,
30333450,-0.62881345,-1.3837483,13.958254,-0.43585426,-0.1019607,-0.16301528,,,,
30333455,-0.74499416,-1.3550025,13.873215,,,,20.927345,6.6650925,-39.37078,
30333460,-0.81685853,-1.3466184,13.746254,-0.2931089,-0.16055019,-0.12892684,,,,
30333465,-0.8767455,-1.2963133,13.4060955,-0.14184149,-0.20369336,-0.09270789,21.23714,7.3651137,-42.156944,
30333470,-0.87315226,-1.1777371,13.107859,9.038095E-4,-0.234586,-0.057554185,,,,
30333475,-0.7976947,-1.0555677,12.531746,0.13033333,-0.24843442,-0.023998389,20.929436,6.637297,-41.227577,
30333480,-0.7425987,-0.9633418,11.904131,0.2528386,-0.24044496,0.0132858325,,,,
30333485,-0.63839537,-0.971726,11.299273,0.35457128,-0.20848705,0.05110269,22.467247,6.812684,-40.88183,
30333490,-0.5473672,-0.9609463,10.689623,0.42754185,-0.16161545,0.08465848,,,,
30333495,-0.39285886,-0.94657344,10.129082,0.47281554,-0.111548066,0.10969217,21.545822,6.6327376,-42.140785,
30333500,-0.30422616,-0.9837033,9.629623,0.4903924,-0.070002794,0.1267364,,,,
30333505,-0.2024183,-0.994483,9.17089,0.4786745,-0.042305943,0.14058483,19.390762,7.341731,-41.893074,
30333510,-0.07545794,-1.0292175,8.851093,0.43979236,-0.029522778,0.15123746,,,,
30333515,0.0083838105,-1.0687429,8.589986,0.37747446,-0.03431647,0.15709642,23.239323,6.206926,-42.71279,
30333520,0.039525032,-0.98130786,8.2881565,0.3039713,-0.05242595,0.16348799,,,,
30333525,0.1425306,-0.9489689,8.11089,0.2203481,-0.07745964,0.1666838,20.316761,4.421455,-40.90763,
30333530,0.20002209,-0.92022324,8.089331,0.13033333,-0.091308065,0.1666838,,,,
30333535,0.30901638,-0.88429105,8.130054,0.039253294,-0.1019607,0.16774905,21.69812,6.510826,-40.587936,
30333540,0.42879027,-0.84955657,8.248631,-0.054489892,-0.118472286,0.16774905,,,,
30333545,0.53419137,-0.87470907,8.312111,-0.1317215,-0.12539649,0.16508588,22.471199,5.1680217,-42.41033,
30333550,0.5868919,-0.851952,8.477398,-0.19297414,-0.10941754,0.15603115,,,,
30333555,0.5856941,-0.8663249,8.647478,-0.23718257,-0.066807,0.14165008,22.166912,3.8158245,-43.795128,
30333560,0.64917433,-0.8998616,8.919365,-0.2643468,-0.010880668,0.1283343,,,,
30333565,0.6611517,-0.8950707,9.198438,-0.27393416,0.04344777,0.11075744,22.779358,4.4425945,-41.92997,
30333570,0.6359992,-0.8088334,9.349353,-0.26487944,0.08552568,0.091050066,,,,
30333575,0.61324215,-0.7273872,9.409239,-0.24676995,0.12334254,0.0681469,21.085941,4.433128,-40.888634,
30333580,0.5485642,-0.67109346,9.4307995,-0.20948572,0.16488782,0.048439533,,,,
30333585,0.48747954,-0.6387545,9.458347,-0.15782045,0.218151,0.038852163,21.702019,5.1563487,-42.42933,
30333590,0.48747948,-0.69265276,9.421217,-0.10029623,0.26235944,0.036721632,,,,
30333595,0.4503496,-0.6782799,9.484697,-0.04703305,0.2820668,0.031395316,21.703323,4.704857,-43.04313,
30333600,0.31620276,-0.6327658,9.452358,0.008893286,0.2735447,0.02713426,,,,
30333605,0.19882435,-0.49742126,9.30863,0.06908067,0.24904364,0.027666891,24.316013,5.212251,-41.28161,
30333610,0.18924244,-0.4890371,9.176878,0.12820281,0.22241205,0.034058474,,,,
30333615,0.16408992,-0.4495117,9.023568,0.18945546,0.19151941,0.045776367,21.549706,3.54178,-41.795372,
30333620,0.18085827,-0.38243827,8.748088,0.2453818,0.15370256,0.051635325,,,,
30333625,0.16169444,-0.2938056,8.484585,0.28852496,0.11055937,0.052167952,23.087875,4.5807753,-42.852486,
30333630,0.114982605,-0.16205426,8.2618065,0.32580918,0.07593831,0.054298483,,,,
30333635,0.16888088,-0.090189904,8.089331,0.35670182,0.039719343,0.05589638,23.08847,3.270308,-41.753944,
30333640,0.18924244,-0.037489384,7.9731507,0.37800708,0.00669618,0.05696164,,,,
30333645,0.20720854,-0.044675827,7.843795,0.38865975,-0.028457515,0.054298483,22.320965,2.6574163,-42.539772,
30333650,0.21439497,0.041561402,7.6952753,0.3966492,-0.06733964,0.045776367,,,,
30333655,0.17846277,0.06671393,7.706054,0.39079025,-0.113678604,0.032460578,24.318779,3.4387097,-41.570534,
30333660,0.114982605,0.11462351,7.703659,0.3828008,-0.16374597,0.017014256,,,,
30333665,0.06347981,0.22601324,7.64497,0.37587658,-0.21594389,0.0036984617,23.08868,3.9911394,-42.845634,
30333670,-0.08503985,0.3158437,7.579094,0.36043024,-0.26388073,-0.0032257512,,,,
