Timestamp,acc_x,acc_y,acc_z,gyro_x,gyro_y,gyro_z,mag_x,mag_y,mag_z,light
0,-0.5976723,1.351489,10.695613,0.17341153,-0.20096177,0.21537814,4.4941998,-4.9476223,-50.323814,
50,0.9707673,1.1592916,9.055428,0.21378502,0.067804225,0.15875939,2.7413216,-5.4487247,-50.54732,313.0
100,-0.6697762,1.7431896,10.188129,-0.14009553,0.33087105,-0.031656474,3.2650204,-5.9705324,-50.46634,
150,-0.27440244,1.8483511,10.607936,0.44169816,0.08740507,0.16648254,3.7564678,-6.357278,-49.211525,
200,0.12911591,2.1106558,9.007639,0.055114023,0.12804487,-0.063348055,3.9429257,-7.536991,-49.4099,291.0
250,-0.9124382,2.4673429,10.643991,0.13435186,-0.077894226,-0.21774024,3.7255204,-6.876372,-48.401512,
300,-0.5121537,1.7253431,9.934809,-0.04406201,-0.59170043,0.05660061,3.049477,-6.8977633,-49.16095,263.0
350,1.1053932,0.868121,10.853833,-0.61653465,0.10471561,-0.04486574,2.372247,-6.7007356,-49.11817,243.0
400,1.2786177,-0.3426607,13.8401165,0.038655695,-0.18626112,-0.3666286,3.3557835,-5.543416,-49.60235,221.0
450,1.3633862,1.4747764,11.331731,0.57719964,0.04351622,-0.20715861,3.6031966,-7.1486726,-48.741875,201.0
500,2.9854844,2.1365273,8.689758,-0.68300706,0.012836623,-0.377441,4.6494236,-7.510965,-48.371185,178.0
550,1.2163041,0.6739678,13.649836,-1.1799524,0.197287,-0.41227508,5.47426,-3.9466426,-47.46335,123.0
600,0.9663358,0.37369457,10.944983,-0.36481288,0.0015448332,-0.35895866,6.305113,-3.0096111,-48.722607,
650,-1.0726955,1.7097727,5.7148123,-0.27762106,-0.42264318,-0.38138244,6.888677,-2.7846391,-48.06068,134.0
700,-0.38926563,-0.5065241,6.932315,-0.58010256,0.053316634,0.30257002,7.3504014,-1.5358595,-49.79702,149.0
750,-0.071146086,-0.91375524,9.755747,0.5269725,-0.02402149,0.404782,6.088804,-1.1768353,-50.173042,171.0
800,-1.6466522,-0.036052078,6.3197913,1.0898045,0.064608425,0.4852627,7.324913,-4.6748333,-50.658943,190.0
850,0.27667737,-1.1489913,10.718728,0.36771557,0.27467838,0.59972525,7.450972,-6.5363417,-51.03663,203.0
900,-0.61503965,0.42028666,12.173741,0.69954526,0.13571478,0.3666988,8.252255,-7.52612,-50.974293,
950,0.72427243,-0.03820803,12.903883,-0.9404813,-0.057204444,0.015002069,7.701143,-8.40988,-52.33969,222.0
1000,-0.5060137,-1.2697109,16.523432,-0.08912264,-0.42312247,-0.1042542,8.927608,-5.324633,-52.313965,
1050,1.0808396,-1.5987425,7.158208,-0.19655447,-0.10301079,-0.20438893,8.86524,-5.1408005,-51.79145,254.0
1100,-0.6612722,-0.15067574,6.908839,-0.26675534,-0.20708701,0.063950926,10.12312,-3.2794228,-50.822174,
1150,0.682711,-0.057491623,5.787515,-0.3048385,-0.07334319,0.06837177,11.19821,-1.6476036,-51.216713,238.0
1200,0.7964963,-0.07893114,7.098681,0.83579236,-0.098217115,0.4228382,13.28902,-1.9450823,-49.520763,207.0
1250,1.9595009,-0.6910957,6.7542114,0.23583598,-0.54008836,-0.18478811,13.198896,-3.1912045,-49.941914,189.0
1300,2.5808883,-1.3206275,12.171587,0.30880648,-0.15840448,0.042219557,14.520271,-3.4390762,-48.11091,164.0
1350,2.592027,-2.055201,15.733423,-0.48847225,0.3845485,-0.93803596,15.101852,-2.6377354,-46.372356,142.0
1400,-0.3581244,-0.20828697,11.078169,-0.2827343,-0.2854904,-0.2031106,17.06837,-1.2419609,-45.689598,110.0
1450,1.4027917,0.44064808,16.956795,-0.8049797,0.2651443,-0.022548467,18.325857,0.8561972,-44.66117,69.0
1500,-0.11354599,0.86860025,7.374761,0.44611898,-0.24437125,-0.42170268,18.695171,0.31044787,-44.057556,18.0
1550,-0.87781733,0.29970577,8.140519,-0.3615638,0.68895936,0.17154254,19.309856,0.4732172,-43.64176,16.0
1600,0.58246017,0.21547313,9.014944,1.2079422,0.61753356,0.36930868,20.4495,-0.6261091,-43.353065,
1650,-1.2299589,-0.34830272,6.000714,1.1477548,0.6468281,0.2399857,19.838516,-3.3275573,-43.956036,
1700,-0.064438775,-0.9368718,9.089682,1.504405,0.10668633,0.67685026,18.305437,-6.865725,-44.386543,
1750,-0.7158891,0.1989443,13.709963,0.56063485,0.5074385,0.101288415,16.709127,-9.340239,-44.614265,
1800,0.76128274,-0.03832779,10.265863,-0.38782257,-0.08325015,-0.35251385,16.12389,-8.790346,-44.72804,
1850,-2.362541,0.24877033,15.274567,-0.6569613,0.15808532,-0.23405652,15.170288,-7.0126176,-47.155724,18.0
1900,0.7776917,-0.037728943,9.146696,-0.32198927,-0.4132688,-0.3035117,14.584122,-5.5819764,-47.527344,26.0
1950,-1.5017259,0.03581226,8.7030525,-0.28816715,-0.47052675,0.029383117,13.753611,-5.018381,-48.45216,47.0
2000,1.4439942,-0.0050306795,4.945386,0.7103576,-0.45779687,0.16126274,12.307742,-4.95605,-48.767433,81.0
2050,1.5125049,0.30051264,2.425342,0.19769958,0.094329275,0.30848217,11.848993,-6.707576,-49.099037,102.0
2100,1.5406077,-0.3682545,11.726928,0.34198946,0.24122913,0.09031621,11.723536,-5.6355906,-48.27885,138.0
2150,2.1801245,0.24338047,6.678993,0.46662536,0.13166676,-0.4339532,12.278526,-6.91651,-47.72401,170.0
2200,-1.2214549,0.14360881,17.94493,-0.5308875,0.12788507,-0.3190113,13.198893,-5.7383513,-46.75522,193.0
2250,-0.084920056,3.1110077,11.152069,0.036578428,-0.8728234,-0.51049244,12.611134,-3.968123,-46.109375,207.0
2300,0.9557956,3.8925323,14.869014,-0.7446859,0.18439731,0.04935682,11.529737,-2.158279,-44.30006,
2350,2.8978095,1.5783806,8.367206,-0.20374501,-0.08724488,-0.85116374,11.923398,0.94215775,-42.43804,229.0
2400,-3.581121,-0.21271864,7.413686,0.09388961,0.3879159,-0.7823478,11.794843,3.5316138,-40.706913,206.0
2450,-1.904286,-0.23260109,4.817946,0.3686507,-0.07600047,0.10012254,12.714903,4.8585715,-39.646996,171.0
2500,-1.4915452,0.43777356,6.7863107,0.5145089,0.317502,0.5000698,12.775768,6.1999183,-40.713417,144.0
2550,-1.2730776,1.8176892,11.964855,0.8351,0.23867242,0.9405562,15.081987,6.4261894,-39.699127,121.0
2600,-2.616941,2.508904,12.446228,0.4537356,-0.3635743,0.72558606,15.545505,5.5380836,-40.38923,88.0
2650,1.1962891,0.18648785,12.230861,-0.3824962,-0.21481018,0.30374175,15.577413,5.3786335,-41.22232,30.0
2700,-0.31189162,-1.4800465,15.939795,-0.85057294,0.18998995,0.3310125,16.498426,6.9823427,-41.37274,15.0
2750,3.7598236,-0.5847364,7.7363563,-0.20454398,0.18013625,0.051647138,17.727955,8.000622,-41.539673,13.0
2800,-0.20086126,-0.12636164,5.6282167,-0.24726102,0.32192284,-0.012694767,17.725735,8.898511,-40.65249,11.0
2850,2.344335,0.49179158,3.4598298,0.23285325,0.056192853,0.54124224,20.311634,7.7027383,-40.357655,10.0
2900,2.2431264,-0.33321124,6.290926,0.07119949,-0.25875232,0.1626476,21.299448,6.6032267,-41.89895,
2950,1.9763892,-0.15163401,15.208455,0.7900393,0.20767331,-0.041829742,20.655869,5.315048,-42.611958,
3000,2.1528158,0.2415838,7.8192415,0.28297383,-1.28034,-0.67289186,22.35314,1.6260207,-42.52702,
3050,1.4833999,-0.08228488,19.96743,-0.564603,0.7482946,-0.25253886,21.276447,2.2443805,-43.489544,
3100,2.222405,3.1768837,9.741491,-0.38334844,-0.4437353,-0.9478364,21.923822,1.6295086,-43.837757,
3150,-1.9586632,2.327447,9.765687,-1.5421952,0.44778377,-0.9510323,23.122849,2.3253367,-43.846943,
3200,0.2052922,1.5314293,8.288635,-0.2584463,-0.2653037,-0.57856274,22.536127,4.4870014,-44.629444,
3250,-1.8266789,0.9558148,5.76496,0.040253587,0.78941375,-0.52743006,22.507284,3.8530555,-45.582355,14.0
3300,-2.9432054,0.66402644,5.746194,0.49171224,-0.031212013,-0.028727006,22.881098,2.2632308,-47.752308,22.0
3350,-3.176046,-0.071624964,7.4102135,1.1830683,0.46376267,0.7804472,22.70203,-0.7657089,-48.990753,35.0
3400,-2.5245953,1.0276601,11.721236,0.016338428,-0.07675203,0.77064675,21.876184,-3.5929856,-49.907135,52.0
3450,-2.868466,1.3015829,14.896681,0.14507553,-0.015179825,0.63408,22.093582,-4.774549,-50.25948,98.0
3500,0.0821646,-1.6107199,13.942322,-1.3657345,-0.81620467,0.04914376,19.939945,-4.229178,-51.09318,139.0
3550,2.4837518,-2.266602,12.616304,-0.48300385,0.21763356,0.3224904,18.616047,-2.5873227,-52.383247,189.0
3600,2.4508138,-0.13258988,5.2070913,-0.4111222,0.119712144,-0.40285936,17.935627,-0.3795103,-51.96145,210.0
3650,0.050184906,-0.027667921,5.318242,-0.35298842,0.4340418,-0.025690991,17.78046,-0.16157456,-51.039238,233.0
3700,0.9210612,-1.2852942,4.0736704,0.15892395,-0.6722876,0.10661473,17.471622,0.51508063,-50.838097,
3750,1.0191557,-3.112206,14.161868,0.06107949,0.35388076,0.37170553,16.764944,-0.57953644,-50.378704,184.0
3800,4.1275983,-1.0601696,9.569233,0.41714388,-0.43425447,-0.23272495,16.088596,-1.5520537,-49.672344,155.0
3850,-0.04431671,-2.1876712,18.574697,-0.33423978,0.15733963,-0.50346166,16.486477,-0.3892439,-49.21162,128.0
3900,0.63360393,0.64258695,10.796701,-0.3415901,-0.39499947,-0.4092923,15.467395,1.1506382,-47.769054,98.0
3950,0.41789085,1.7860686,9.268026,-0.7431411,-0.11989522,-0.36274037,13.709566,4.2467794,-48.003407,48.0
4000,-0.59276146,0.8259608,8.242642,-0.7638605,0.041598737,-0.504953,13.489693,6.5901785,-46.859802,16.0
4050,-0.22481601,0.27536014,8.543873,0.39349493,-0.2846382,-0.2419395,11.826329,7.4301286,-46.22994,
4100,-0.51502824,0.4690345,5.567251,1.1171286,0.24362597,-0.06824827,11.36871,5.5767226,-47.45797,
4150,-2.0904152,-0.38327673,8.436914,0.91339684,0.53779846,0.50188076,11.896245,2.7460675,-47.969227,
4200,-0.52293336,-0.6068947,12.98485,0.79792225,-0.16191986,0.54587615,12.022616,0.3304266,-47.9381,15.0
4250,-2.6638913,0.09653762,14.277209,0.2901644,0.57082164,0.50054914,12.208538,-0.755283,-47.76615,
4300,0.59815055,-0.6840291,13.465624,-0.53898346,-1.1118153,0.22027835,11.839101,-1.1919944,-47.027405,14.0
4350,2.329098,-1.1631751,11.480952,-0.6947249,0.113237716,0.20200911,10.791974,-0.4703619,-47.030853,
4400,1.1804914,0.09318397,6.7917,-0.035806216,0.08197223,-0.20082033,11.435164,0.8519306,-46.008728,20.0
4450,0.7564918,0.043477785,3.431443,0.20148122,0.007030934,0.16435201,12.02135,-0.49211788,-45.761913,36.0
4500,1.7358831,-1.1335405,4.0951104,0.07530075,-0.09337015,0.09356526,10.945446,-2.4025419,-44.28081,62.0
4550,2.604364,-4.0686007,13.800631,-0.023076314,0.44245738,0.34145212,9.871235,-4.451276,-44.159992,98.0
4600,3.8896585,0.22972627,11.794777,1.377106,0.22210757,-0.34867892,8.981958,-7.341063,-43.281963,129.0
4650,0.404596,-0.64234775,15.8672085,-0.6257492,-0.4184354,-0.91246957,7.074753,-8.908922,-41.732655,153.0
4700,1.2953546,0.8593777,12.835733,0.027174521,-0.24981594,-0.60774505,4.0853453,-6.803727,-39.974216,180.0
4750,-2.3928437,3.3390574,7.1742578,-0.54271185,-0.25518367,-0.65488887,2.10846,-3.6617484,-36.933533,193.0
4800,4.5054164,1.7280983,8.58867,-1.2530296,0.14950994,-0.41238165,1.7608188,1.4921358,-35.05183,210.0
4850,-1.8212827,0.8536285,9.821501,0.703753,0.26780745,-0.98506737,2.5834186,5.144143,-32.225994,184.0
4900,-2.2248328,0.72547054,1.6027535,0.8924111,-0.47233766,-0.41403285,4.489238,6.5278654,-32.287468,158.0
4950,-3.9835618,-0.029344749,8.357266,0.7962178,0.7789742,0.4532515,6.5497026,6.7453055,-31.61968,130.0
5000,-0.9900516,0.8572219,9.998528,0.27423877,-0.23068261,0.46912393,8.85891,5.860829,-31.923437,108.0
5050,-3.5608788,0.05078399,18.330364,-0.26457158,0.37891445,0.47956347,9.814533,5.3298063,-32.884003,76.0
5100,-1.6940829,-1.659468,10.736334,-0.9013861,-0.9550086,0.0622465,10.893858,5.110591,-34.80465,32.0
5150,0.043477774,-2.6759892,15.05574,-0.80615157,0.5312471,0.98332655,10.463368,5.2454405,-35.21931,14.0
5200,2.9384131,-0.9508853,3.6828487,-0.36886087,0.051186122,0.21212904,12.035255,4.624656,-36.875435,11.0
5250,-0.16792339,-0.44100776,9.917799,-0.629957,0.5335907,0.80665267,14.067497,4.605145,-38.217537,
5300,3.7452111,-1.0284989,6.0039473,0.6752039,-0.14050803,0.37740475,13.361216,3.6210427,-38.25466,10.0
5350,1.9742339,-3.2756972,10.973607,1.0188047,0.4299406,0.3137552,13.980021,1.847574,-39.14732,
5400,3.420742,-0.25332206,9.138789,0.753128,0.44586626,-0.09876806,13.707982,-1.3185943,-39.612667,
5450,-1.4144106,-0.5576676,13.797758,-0.07250454,-0.44927472,-0.7277529,14.7532015,-0.5675262,-39.71917,
5500,0.49668318,1.2760524,13.5834255,-0.8712392,-0.5521259,-0.13061945,14.231067,-0.79017526,-40.286743,12.0
5550,0.2917688,1.7645094,11.059245,-0.54750556,-0.11584721,-0.45371383,13.953827,-0.12417145,-40.827545,25.0
5600,-1.76463,1.6843808,6.750857,-0.74734896,0.28133628,-0.03655667,14.968425,0.56653917,-40.996025,58.0
5650,1.3573974,1.1848032,6.7818794,-0.13167997,0.47052708,-0.052429102,16.014084,1.195973,-41.348736,93.0
5700,-1.611798,0.5367068,5.6878633,0.426891,-0.016085282,0.09548273,17.182745,1.2492206,-40.9179,120.0
5750,-2.413924,-0.27236602,8.193654,1.3700752,0.11733897,0.3608399,17.247467,-0.5579647,-41.545372,144.0
5800,-0.50987804,0.86800146,6.79709,0.79035896,-0.106899,0.7156259,18.42116,-3.4373145,-42.009033,159.0
5850,-3.8732495,0.7891901,16.9005,-0.7331869,0.22742207,0.24854925,19.19075,-4.5021076,-41.018024,170.0
5900,3.6244786,-1.9440508,14.181513,-0.5608213,-0.98334455,0.1220078,18.72792,-3.5652301,-41.00943,
5950,-0.29308715,-2.6152637,17.130589,-0.92801774,0.42349568,-0.26638725,19.896875,-2.1265047,-42.57561,152.0
6000,2.8488224,-0.57683134,4.510007,0.11924286,-0.14524847,0.019689228,21.310017,-1.3817123,-41.496685,123.0
6050,-1.0124681,0.25797397,6.2465777,-0.47751766,0.37806222,-0.21546766,22.60075,-0.44492245,-41.258766,95.0
6100,0.7384058,-1.4787292,4.043368,0.35439977,-0.31111,0.08834545,23.645685,0.136203,-40.899014,23.0
6150,1.9151846,-3.67143,8.095919,0.41916782,0.14695331,0.19103687,24.260653,0.6715816,-41.199444,12.0
6200,1.8690717,-0.027069068,9.268146,1.2705797,-0.1887645,0.041846707,25.12411,-1.3099165,-40.47406,
6250,-2.2572598,-1.3025415,13.80662,-0.9193357,-0.7036064,-0.3756833,23.462568,-0.58111095,-41.35956,
6300,0.96250296,0.22685166,14.514603,-0.31458566,-0.52821064,0.16930547,23.183212,1.0104109,-41.137318,
6350,0.91387475,3.264199,10.770709,-1.4751903,-0.12112024,-0.08199018,22.534784,2.970791,-41.516624,14.0
6400,2.1130512,-0.5011343,14.956926,-0.36582488,0.6600908,-0.270382,22.868755,5.495779,-40.60897,15.0
6450,-0.9233376,-0.446757,5.613005,0.5952559,0.6402236,-0.046676688,22.897406,5.669134,-38.907856,
6500,-0.7481083,-0.24936947,4.349989,0.75344753,-0.08687203,0.27460676,24.096935,5.026866,-37.694374,17.0
6550,-1.1767793,-0.20708926,7.8342133,0.99813855,0.36762264,0.38518113,23.72835,4.2893133,-37.354523,20.0
6600,-1.7185043,0.7953176,12.176017,1.2483156,0.12969606,1.0607712,23.820805,2.754584,-35.57013,23.0
6650,-0.3523753,0.4659205,13.617256,-0.328008,-0.21038935,-0.10265628,23.175562,2.1832345,-35.672424,36.0
6700,-0.42867112,-1.1292287,11.668297,-0.15250583,-0.6699441,0.11524336,21.91074,3.8298965,-34.73246,85.0
6750,0.43406016,-3.0384254,13.834646,-1.3881584,0.25960493,-0.27416372,21.506691,6.280545,-34.12088,165.0
6800,1.545203,-1.002987,5.5862956,-0.25572985,0.20101543,0.15172863,20.79449,8.501326,-32.802387,243.0
6850,-1.739597,-0.015570769,5.397891,-0.9613606,0.3238936,-0.1633763,20.820724,10.819904,-31.590466,290.0
6900,1.4189613,-0.89147747,8.4705715,0.21937764,0.072225094,0.54928505,20.816113,12.647017,-29.692663,321.0
6950,2.7219815,-2.99339,7.8811636,0.9524742,-0.09659554,0.026027545,20.908215,12.419512,-29.223444,
7000,3.8443828,-0.31704178,8.19042,1.4085313,-0.15771207,0.40163946,20.967749,13.257518,-28.457846,
7050,-0.5557514,-0.7182845,15.182223,-0.9421857,-0.10647285,-0.8621892,21.366385,15.018137,-29.427856,290.0
7100,-0.12133139,-0.724872,12.05229,0.1372991,-0.6715952,-0.60386276,21.483196,18.576817,-28.197094,228.0
7150,-1.5665802,3.195335,13.370354,-1.2897811,0.26604977,-0.19762452,23.72201,22.874811,-26.953064,179.0
7200,3.1383166,1.3871017,9.580157,-0.3753057,-0.33087063,-0.7892186,25.838379,26.43899,-25.363096,57.0
7250,-2.8871508,0.10037042,8.429131,-0.18430397,0.19180088,-0.4636208,30.847057,31.95487,-26.261927,17.0
7300,1.6127555,0.2135568,6.8423643,1.1257571,0.021358723,0.11966424,39.338753,32.229298,-26.177698,15.0
7350,-2.0827491,-0.47945517,6.1977415,0.8948612,0.48741156,0.12669496,50.205162,31.653961,-30.048431,
7400,-1.4005169,0.45861426,12.676192,1.2071966,0.6790524,0.6946935,61.69441,22.33359,-29.74758,14.0
7450,-2.6449676,1.1584533,11.566488,0.020279879,-0.35345426,0.4700294,68.23884,8.943469,-32.463116,
7500,0.5072422,-0.66103244,17.410976,-0.36033875,-0.4915124,0.32717755,68.07417,-3.481996,-35.016224,13.0
7550,2.2757046,-0.7004381,9.566022,-0.6218077,0.07856339,-0.09850176,61.845837,-12.492202,-39.8026,
7600,1.23427,-1.1397688,9.920316,-0.2517884,-0.44298965,-0.3777606,54.283173,-15.119207,-42.34366,
7650,0.9430995,-0.6867838,3.1087723,-0.062011708,0.09502171,-0.2857751,44.624565,-15.122747,-44.843426,15.0
7700,-1.8970301,-0.6356656,6.6771336,0.18235974,-0.17859122,0.17207518,38.805717,-12.323167,-45.113445,23.0
7750,4.179271,-2.6752706,5.6520524,0.42257667,0.2393649,0.10629515,33.668114,-12.205424,-45.954517,42.0
7800,0.81146795,-1.4134521,8.813125,0.6566151,0.15446343,0.40078726,32.496117,-11.172312,-44.726562,69.0
7850,-0.5531164,-0.44507998,15.563703,-0.89611304,-0.1377384,-0.09072534,29.726776,-10.023646,-46.0159,113.0
7900,2.4607549,-0.3551298,12.57271,-0.66484433,0.120747805,-0.3176797,28.675867,-7.6596665,-44.645588,167.0
7950,-0.7003185,1.4589659,13.42466,-1.6148462,0.39888814,-0.06494595,27.225073,-4.116166,-44.846527,204.0
8000,1.204087,0.3853126,13.781227,-0.25636905,-0.37364095,-0.6352347,25.62037,-1.471331,-43.864666,230.0
8050,-4.568776,0.074499235,8.739704,-0.24054985,0.36298877,0.12072943,23.80161,0.45803872,-43.18938,250.0
8100,3.7670093,0.35920188,6.8930297,0.98354447,0.28648508,0.3934251,23.401728,-0.56229097,-42.011303,
8150,-1.8624847,-0.20157966,4.698052,1.4581726,0.27260116,0.1746318,23.64951,-2.8382175,-40.647808,210.0
8200,-1.8247563,-0.26613778,7.650599,0.9937178,0.3051982,0.6911781,22.512735,-5.1346917,-39.28756,184.0
8250,-1.5384961,0.972684,12.663496,-0.051838435,0.51292455,0.9793318,22.79067,-6.736238,-38.20971,151.0
8300,-1.9169506,-1.9215332,16.408197,-0.9175781,-1.2235615,-0.1579967,21.86666,-6.4475527,-37.70983,69.0
8350,0.7314588,-0.84284943,12.221891,-0.07404918,0.3921237,0.9798113,20.97465,-5.50904,-39.135765,15.0
8400,0.18085822,0.3842346,8.652029,-1.0619211,-0.1384308,0.01931639,21.0671,-5.567529,-39.194695,13.0
8450,3.0131526,-0.8713554,6.9795046,-0.087524764,-0.1390167,0.4257676,20.357754,-4.311013,-39.25785,12.0
8500,1.666414,0.124085665,1.6029742,0.029547682,-0.14263856,-0.5648208,21.620106,-4.419525,-39.875195,
8550,1.085391,-2.2389345,8.538724,0.38992637,0.09656634,-0.11240347,21.188625,-3.2873902,-40.641914,
8600,4.3452783,-1.5159786,8.262285,0.5325652,-0.013475361,-0.5787226,21.465826,-4.300227,-39.632793,
8650,1.1586925,-1.1071904,12.882205,-0.16640754,0.30535793,-1.0771061,22.786367,-1.9608142,-40.27705,14.0
8700,-1.3663815,-3.5017104,15.112516,-1.2138811,-0.90115947,-1.0415261,21.152803,0.687092,-41.02931,15.0
8750,-1.4483063,-0.3611187,18.314312,-0.7288134,-0.42503995,0.096068636,20.37967,2.8700442,-40.207134,27.0
8800,1.5779016,2.6127484,6.4256706,-0.6550972,0.1728392,-0.47038525,18.776768,4.796197,-39.959785,53.0
8850,-2.6451764,0.5168116,11.243672,-0.4001263,0.46972814,-0.31704053,19.57287,6.5962386,-38.69176,105.0
8900,-1.0140065,0.61791354,3.3749104,1.1995798,-0.37097782,-0.037941523,19.355886,6.874984,-37.586082,137.0
8950,-0.20637076,-1.4130929,9.492603,0.7055107,0.53582776,0.65133727,19.017336,6.900256,-37.53289,174.0
9000,0.91507244,-1.1267135,5.061446,2.2802362,-0.26162854,0.13234083,18.99049,4.8792753,-38.562553,202.0
9050,-3.5509381,1.3607514,11.849633,-0.2901911,0.98339814,0.8968805,19.330296,3.7374008,-38.355156,238.0
9100,0.42914963,-0.68450814,17.730412,0.09165256,-0.7280008,0.23428655,21.114416,4.290522,-38.626717,278.0
9150,0.011258411,-2.4872258,11.392456,-1.2922313,-0.39728984,0.09244674,19.97344,6.391767,-38.958,304.0
9200,3.3093534,-2.3721225,12.828067,-0.78396446,-0.15761144,0.48704994,20.125982,7.916501,-39.683784,
9250,0.45406264,0.061803203,6.5928755,-0.4728838,0.13795182,-0.29893106,20.648865,8.765978,-40.578247,263.0
9300,-0.6700157,-0.29224855,4.7959065,0.13250542,0.05044041,0.042752184,21.69552,8.890051,-41.203663,219.0
9350,1.2630157,-2.241689,6.380996,0.26816672,0.1377388,0.101714514,22.251318,7.366791,-41.079338,176.0
9400,2.6175644,-3.5850039,7.525636,1.0136913,-0.044261504,0.1267482,22.74646,4.9047384,-40.57422,121.0
9450,3.4151134,0.08779422,12.630919,0.45757064,0.19659458,0.103525475,23.981653,2.9240441,-42.130096,47.0
9500,0.21140075,-0.8557848,14.010594,-0.12789825,-0.34514517,-0.9850141,24.596981,2.4704754,-41.521446,
9550,-0.87698495,-2.2667217,13.677385,-0.77078474,-0.44432124,-0.46479258,22.569117,2.2869873,-43.891224,28.0
9600,1.3823104,0.88465005,13.4956875,-0.75565803,0.31553122,0.23689647,23.060131,2.3401537,-42.796276,16.0
9650,0.05258044,1.7104915,6.560176,-0.9392029,0.49891633,-0.4522758,24.16907,1.6447668,-43.07017,
9700,-2.8605611,0.48089218,10.24047,-0.15852462,0.7376419,0.013457435,23.644579,1.9455448,-42.15812,
9750,1.8500277,0.34267303,2.82359,1.6615312,0.023702305,0.086641036,24.23167,-1.2340848,-40.43523,
9800,-2.656706,0.35956126,4.3986177,1.0708429,0.4339885,0.36243778,23.990696,-4.693215,-40.80356,
9850,0.7098997,1.0023881,11.711057,0.8252462,0.19403796,1.022901,24.1488,-8.71321,-39.638767,
9900,-2.59083,0.6591158,15.733304,0.05511402,-0.7665635,0.12568295,21.59846,-12.096214,-38.54873,
9950,1.5063143,0.53547126,12.355302,0.32068422,-0.47031364,0.039023757,19.324198,-13.66938,-38.958508,20.0
10000,-0.098933615,-1.7682226,9.719813,-2.047503,-0.14295821,-0.3087848,17.381697,-11.675039,-37.760857,52.0
10050,2.3777514,-2.1977317,12.197817,-0.971001,-0.26258722,-0.17615947,15.559893,-7.765756,-36.799038,139.0
10100,-0.15630534,-1.2664896,6.086472,-0.577333,-0.08309034,-0.41014457,13.768118,-4.1935735,-34.74923,208.0
10150,-0.11773811,-1.0774863,5.6588793,0.1640372,0.10359712,0.313702,12.960785,-0.57604086,-32.613544,261.0
10200,2.9453604,-2.587956,7.924881,0.4666253,-0.09017433,0.026134068,12.466558,0.74502295,-32.517326,288.0
10250,2.374757,-1.6782725,9.702805,1.0788854,0.112651825,0.27987984,13.631549,2.960171,-31.461603,
10300,3.7492824,-1.3441031,13.445383,0.7580636,0.117818356,-0.6140775,13.138739,3.394001,-31.54079,318.0
10350,-1.6254523,-0.69924027,10.732983,-0.18872479,-0.56517535,-0.79033726,13.228823,5.219568,-31.807312,
10400,-0.12133135,-1.3034998,17.276949,-1.558121,-0.49902248,-0.059300054,12.456786,7.822047,-32.506664,282.0
10450,4.2754498,1.7769659,12.4503,-0.2580735,0.0022372506,0.15897247,13.039479,9.361194,-32.69571,
10500,-0.6726886,1.4321367,8.161573,-0.18137448,0.1420531,-0.88083136,12.391504,10.389275,-32.321346,232.0
10550,-2.1313777,0.90417325,5.503772,0.38806215,0.57119447,0.13207452,13.221748,11.421236,-33.14837,192.0
10600,-0.46041137,0.45753622,4.8441763,0.9645828,0.4032557,0.14107601,13.284778,10.128676,-32.884216,77.0
10650,-0.92920667,0.15510705,4.904662,1.214973,0.34716958,0.46891084,15.225134,9.002279,-33.225292,22.0
10700,0.17127638,0.8857282,8.4560795,0.86087924,0.07334359,0.63621056,15.845922,6.102481,-34.507244,
10750,-3.3828952,1.0607178,17.033567,-0.93776494,0.47574678,0.18432571,17.996935,7.15515,-33.289726,20.0
10800,-0.13211088,-0.34506887,14.368479,0.06033383,-1.6180817,0.13037011,18.58105,7.4017296,-33.154236,
10850,3.3183365,-2.3287644,11.776092,-1.2831233,-0.008202336,-0.085239224,18.02807,8.684797,-35.53527,17.0
10900,0.7515811,-3.0155482,10.111475,-0.57925045,-0.25310642,0.013191139,19.039585,11.587572,-35.667538,15.0
10950,0.8532691,-1.1185687,7.3133154,-0.035007257,0.15840489,0.2641672,20.702927,11.037344,-36.641235,
11000,-0.37058088,-1.1721077,4.9143643,0.2924015,0.009374518,0.361479,21.78075,10.867066,-37.26247,14.0
11050,2.587236,-2.396916,8.597651,0.6839923,0.31782156,0.5451305,23.137526,10.52903,-39.515312,
11100,2.1723835,-0.8347424,7.299832,0.6870815,-0.14386363,0.0939381,24.801838,9.068571,-40.230827,
11150,1.6307217,-2.0311265,14.995615,-0.3529884,-0.11435588,-0.3921949,26.22102,7.9672575,-42.318523,
11200,0.71876293,-1.7128872,13.072046,0.12030818,-0.019494116,-0.5309454,25.053253,8.509966,-44.303894,
11250,0.18301417,1.7294153,12.162842,-1.2583025,0.11163978,0.040887974,26.898006,9.249714,-43.987988,15.0
11300,0.75397646,2.7231796,10.641713,-1.0381126,0.10450257,-0.44961262,26.58989,10.871936,-45.623993,23.0
11350,-1.3812335,1.2424148,9.205145,-0.6498774,0.35995272,-0.34351236,27.264866,11.949577,-45.217297,69.0
11400,-0.74355686,0.23906863,8.0207,0.57166034,-0.0054858997,-0.037888262,28.83341,11.923227,-44.589867,136.0
11450,-0.29979452,0.07354106,5.194036,1.4249778,0.1300689,0.19824515,29.546703,7.777495,-44.493164,191.0
11500,-0.7145716,-0.20074129,6.9682474,1.5854715,0.21065608,0.61746186,30.784595,4.1978335,-46.49477,240.0
11550,-0.21140131,1.2360668,7.317987,0.7059368,0.515428,0.6196989,33.77334,-0.648373,-44.228554,281.0
11600,-1.0718572,0.50005615,21.108158,-0.07655252,-0.10679247,0.11050294,34.944466,-2.5961833,-43.526863,
11650,1.8179787,-1.5329614,10.573568,-0.29945892,-1.0124795,-0.39432544,33.990673,-2.4079907,-43.800385,306.0
11700,0.63372344,-3.1853876,12.841719,-1.2867984,0.10583413,-0.116717756,34.05002,-0.5253166,-44.161186,278.0
11750,1.4463898,-1.5335854,6.4020767,-0.62969065,-0.477877,-0.3635926,35.094673,0.2621809,-43.803844,201.0
11800,-0.91866636,-1.3079312,5.4540644,-0.6237251,0.35862118,0.026719969,36.29375,2.1730824,-45.374744,122.0
11850,-0.6417489,-0.80967176,5.8040442,0.41171098,-0.17901734,0.5176999,38.90863,1.580385,-44.21949,17.0
11900,2.0811908,-1.3509301,5.653968,-0.0044874647,-0.11574068,0.22485897,38.05551,-2.8279617,-46.32541,14.0
11950,4.534281,-1.8676351,12.59331,1.1120684,-0.07078655,0.52595574,40.672966,-5.104829,-45.398212,
12000,1.623415,-1.8460754,15.339007,-0.53781164,0.05507431,-0.93372166,39.447,-8.428247,-45.575935,
12050,3.1707747,-0.021319877,11.463485,0.30763477,0.07323701,-0.22276473,38.8963,-10.764791,-45.50067,
12100,0.030781519,2.2292323,14.2471485,-1.5950325,-0.27606285,-0.38005093,38.404625,-11.011821,-45.75766,
12150,1.5664032,1.1625255,12.413051,-0.44263038,0.15089475,-0.62213206,38.001045,-8.654249,-45.45451,
12200,-2.9867208,1.0491123,6.598209,0.14353089,0.13709962,-0.7761159,38.277176,-8.2055025,-45.298088,
12250,-0.77805173,0.8159,4.9217896,0.28318697,0.34008557,0.08078209,37.262062,-9.670914,-43.696815,16.0
12300,-1.4081824,0.34914085,8.851454,1.3499417,0.39063236,0.29724365,36.614723,-11.835337,-39.9116,23.0
12350,-1.8626049,-0.44424167,9.816591,1.6198795,0.08905624,0.6650792,33.878258,-16.676998,-35.621147,30.0
12400,0.59611446,1.2365458,12.612714,1.1978222,0.20250681,0.8790374,29.787573,-20.056944,-32.805138,
12450,-2.1306586,1.5440056,12.192905,-0.0061918916,0.37790245,0.08253978,24.646479,-19.66119,-30.832804,34.0
12500,2.951828,0.20924492,11.340833,-1.1552918,-0.71676224,0.37804395,20.059391,-16.799257,-32.094345,63.0
12550,1.8603283,-1.0137665,11.896106,-0.91374904,0.2826975,-0.24354331,16.917728,-12.807116,-34.1378,127.0
12600,1.5545456,-0.73038155,5.783683,0.3737343,-0.31760812,-0.19496138,15.068514,-9.579789,-35.366425,193.0
12650,0.75625205,-0.5285624,2.833412,-0.12001531,-0.13385017,-0.31688076,13.159149,-6.892872,-37.178394,223.0
12700,-0.031740457,-2.0543625,5.92861,0.049308337,-0.08064027,0.02165996,12.357508,-4.1905355,-39.055847,243.0
12750,3.0294604,-1.7533455,10.315614,0.32324082,-0.12692595,0.285579,12.169817,-1.6339785,-39.461555,
12800,2.895774,-0.6785194,13.141754,-0.23027007,-0.379926,-0.47587138,13.152891,-0.23895092,-39.82469,
12850,-0.8178166,0.4750232,15.819778,-0.6976545,-0.031158756,-0.3344576,15.361252,3.880761,-38.64126,194.0
12900,0.07258263,0.9151923,10.831076,-1.5698389,-0.19675395,0.1332463,16.957144,6.331815,-38.01089,160.0
12950,0.9192645,0.8847698,14.113958,-1.0988859,-0.07083981,0.34848285,18.858337,9.050724,-35.549812,123.0
13000,3.4169097,1.490826,8.711556,-0.29812735,0.66030383,-0.053174786,23.068602,11.0606575,-33.487377,60.0
13050,-0.35117754,1.0789233,5.843211,0.51701224,0.93434286,-0.09663753,27.587809,11.118973,-30.125586,20.0
13100,0.53167593,0.24014655,6.3121257,1.0964091,0.2867159,-0.08087165,29.157665,9.859485,-29.143366,17.0
13150,-2.8885882,-0.48640195,6.152587,1.1867435,0.45646563,0.5488056,31.10043,6.6459017,-29.05783,
13200,1.1604893,0.29176912,11.226689,0.79296875,-0.83005315,0.67605126,30.428326,2.4907377,-28.221655,
13250,-4.067163,-1.0044243,16.61005,-0.656482,0.192227,0.4672597,27.661829,0.53332347,-28.20589,15.0
13300,4.659521,-0.77006453,10.540536,-0.607906,-0.64011663,0.47077495,24.125666,0.017944526,-29.587902,
13350,0.015091121,-3.0148294,14.4591465,-1.6812122,0.18695393,-0.39975828,21.079762,1.5340885,-31.66221,
13400,2.4972863,-2.114489,7.700424,-0.12805805,0.2977946,0.05154062,18.707846,4.7778625,-33.24451,17.0
13450,-0.2609877,-0.36303487,4.5116844,-0.09753825,0.8828906,-0.19719844,17.935226,6.982885,-32.917824,25.0
13500,0.6234229,-0.6116856,2.5705075,0.009414214,0.19158785,0.24179666,17.382694,7.1890244,-34.357796,44.0
13550,-1.0657487,-4.632496,10.95672,-0.49285752,1.064944,0.64073783,17.106104,7.730616,-35.330482,70.0
13600,4.77802,-2.6610172,14.64492,0.861625,-0.043782167,0.39130634,18.216597,5.5671606,-35.184948,105.0
13650,-3.4130778,-2.4251826,14.925909,-0.08512793,0.10381015,-0.7638121,18.92617,4.0181437,-34.963646,130.0
13700,-2.161321,-1.6958792,13.3040495,-0.77792794,-0.5845454,-0.27538282,17.730408,1.4552323,-35.58277,158.0
13750,-2.5626829,0.36099845,12.909872,-0.49610662,-0.16932341,0.26645753,14.439577,0.9832619,-36.278214,187.0
13800,2.6484406,1.6459334,7.217856,-0.24017707,-0.082610965,-0.03139014,12.715914,1.1690462,-35.951805,213.0
13850,-0.7684699,0.71097785,6.984416,0.49560052,0.4576375,-0.2800759,11.609148,0.12778588,-35.47203,239.0
13900,-1.0308757,0.05234106,1.7139546,0.7480679,-0.13065438,-0.0060368837,10.408724,-0.72316056,-34.006294,
13950,-1.8466746,-2.3153493,8.186948,1.3659741,0.006977667,0.4843039,8.376287,-0.5852579,-32.634617,221.0
14000,-0.34267354,0.3833962,8.657538,0.56042176,0.5315134,0.8244958,7.1463304,-1.5399408,-32.15891,193.0
14050,-4.056144,0.04467552,15.980876,0.06747109,-0.35904688,0.059956193,6.990567,-1.8060553,-30.085857,167.0
14100,0.5541936,-0.9156717,10.769993,-0.62281966,-1.3247616,0.17314044,5.943267,-0.35849476,-30.840582,130.0
14150,0.2969192,-2.372482,14.407648,-1.3197153,-0.22658134,-0.34281993,4.862523,1.8478804,-30.119196,38.0
14200,2.0681357,-1.2661303,7.7188697,-0.5600757,-0.26280028,-0.36620244,5.227762,3.9324977,-29.112804,15.0
14250,0.34770337,-1.3541642,7.064306,-0.39831537,0.3027481,-0.60828364,5.2879887,4.7902575,-28.99743,
14300,1.0822767,-0.9798707,5.1004925,0.41405457,-0.047084436,-0.321994,5.8415217,4.9760156,-28.954859,14.0
14350,1.3756031,-2.3304415,7.26349,0.5867871,0.1541971,-0.36897215,7.0115128,4.6063256,-29.200054,
14400,3.3395362,-0.4890371,7.125032,1.0046368,-0.30642283,-0.1283824,7.444065,4.2124586,-30.329987,15.0
14450,-0.63889956,-3.920497,16.519522,-0.48135275,-0.5061065,-1.3066171,7.1974497,4.5334864,-30.308887,
14500,-0.23092437,-2.7625854,11.628651,-0.1651825,-0.30972517,-0.26622748,7.9989715,3.7431316,-30.71314,
14550,0.18277463,-1.6438973,17.77353,-1.6097864,-0.3597393,-0.30042243,8.398654,4.737222,-31.67425,18.0
14600,1.7780435,0.6641463,11.977313,0.35477266,-0.12335731,-0.376429,9.134855,5.6172986,-30.737543,41.0
14650,-1.8370928,-0.009701842,6.3504534,-0.3455316,0.26242787,-0.49201003,9.135623,5.780755,-31.637049,66.0
14700,-0.946933,-0.5926416,7.131978,0.82247657,0.58664083,0.054097246,11.286531,6.8348145,-30.326685,100.0
14750,-3.4555976,-0.36926317,5.8221307,0.77251565,0.8924247,0.37996134,13.316534,7.279303,-30.219427,130.0
14800,-1.704982,0.3106934,8.905351,1.630988,0.829296,1.3632883,17.470375,6.8467054,-29.73967,157.0
14850,-0.8404539,-1.0386795,11.564572,-0.24805999,-0.34855396,0.5977012,21.440708,5.5862784,-29.223927,180.0
14900,-1.3280535,-1.2908037,17.614952,0.66641545,-0.57433665,0.918239,23.101017,6.0316496,-28.692541,223.0
14950,3.2917466,0.5688062,8.71024,-0.9339299,0.18860513,0.5101366,26.242807,4.816487,-30.240824,271.0
15000,2.3491447,-1.1634274,12.758496,-0.901972,-0.021358335,-0.12380177,30.21239,4.376455,-30.075085,300.0
15050,-0.031500824,-2.3124757,7.79852,-0.2592985,-0.21875167,-0.1366382,31.107035,4.7633643,-32.68831,335.0
15100,1.2129501,-0.10803622,4.8810663,0.34513205,-0.07941519,0.51237357,31.57458,2.403318,-35.18748,
15150,2.6915588,-1.0892242,4.405804,-0.07570034,-0.032543596,-0.047369115,31.575542,1.5221059,-34.960583,268.0
15200,0.684867,-3.1560435,14.936209,1.1232005,0.5485044,0.04131408,30.746576,0.70468867,-35.55984,224.0
15250,2.5733423,-1.0566458,4.7666826,0.112638295,0.6141246,-0.70975,29.92019,-0.72599125,-37.730534,192.0
15300,-1.7811582,-2.2499533,15.997763,-0.021052342,-0.20644787,-0.50319535,29.823874,2.1627517,-37.704475,158.0
15350,-1.5183742,0.22361776,11.489116,-1.3535372,-0.30658266,-0.19687882,27.456928,2.4168181,-40.056805,93.0
15400,2.9422462,2.0605907,12.712125,-0.6644715,-0.20431733,-0.116984084,26.284283,4.8769374,-40.021606,26.0
15450,-2.067897,0.462926,6.248525,-0.50500154,-0.27212137,-0.8393925,24.497402,6.994616,-40.585815,15.0
15500,-1.7848715,-0.2666169,7.248877,0.2090446,0.39036605,0.27284908,22.647709,8.896816,-39.72527,
15550,-1.6607604,-1.0480661,5.2580013,0.87227774,-0.23046961,0.32169145,22.773073,7.7681847,-40.39004,
15600,-0.007306558,-2.1592848,10.996123,1.0811226,0.71825415,1.0723825,22.742382,6.8114944,-39.265427,
15650,-0.3750125,0.47059163,6.4581313,0.98567486,-0.23435776,0.76111263,24.039564,3.0021753,-38.941425,15.0
15700,-1.809425,-0.7639182,21.841293,0.017563498,-0.099335626,0.2935685,24.869333,3.4326234,-38.58529,
15750,-0.002515617,-0.38675013,7.8265467,0.122918084,-0.6539119,0.09068904,23.486197,2.6694708,-38.951336,
15800,-0.48005423,-2.2294724,15.2580385,-1.2653867,0.063489944,0.26017243,23.822378,4.1519403,-38.74347,15.0
15850,2.1475463,-0.19870517,4.273813,-0.5564005,-0.34866053,0.15460484,23.051865,4.765871,-38.336407,26.0
15900,-0.94837034,-1.6485685,10.533559,-1.0244772,0.54339105,0.31838322,23.847904,6.364173,-36.75651,53.0
15950,2.4578805,-0.48149133,0.71257526,0.80719006,-0.59138083,0.39684585,23.264217,6.053998,-37.200783,110.0
16000,1.9166222,-2.3208597,9.152805,-0.030586446,0.36282897,0.25085142,23.849087,5.7984595,-37.121376,148.0
16050,3.916846,-0.9810683,6.2040896,0.36425352,0.39798266,-0.12790303,24.926636,4.3292966,-35.87039,196.0
16100,-2.9496539,-2.4403436,20.935528,-0.76806843,0.96864426,-0.48135743,25.446768,5.244388,-34.351357,222.0
16150,0.062162112,-2.998301,11.6443405,-0.58207333,-1.3524051,-0.6809879,24.98583,4.9692683,-34.545357,244.0
16200,-1.5398138,-0.15977857,18.316828,-0.34260204,0.30237526,0.26922724,23.383686,6.1906366,-34.104107,269.0
16250,1.12815,1.7847509,5.680558,-0.79432714,0.51106036,-0.47102442,23.013752,5.992095,-33.21338,288.0
16300,-0.6267773,0.36566967,8.600048,0.09894962,0.6409693,-0.40625635,22.42602,6.343658,-30.81774,257.0
16350,-1.1004833,0.06731281,3.0481665,1.0283918,-0.060773075,-0.07128429,22.611803,4.883487,-30.053339,218.0
16400,0.061443616,-1.4157279,5.9551992,0.965648,0.38466686,0.55546355,21.443813,2.910846,-28.69762,192.0
16450,0.40100282,-0.18840452,7.272593,1.0899643,0.026578534,0.36094642,20.461948,-0.0922472,-27.418198,151.0
16500,-3.664843,0.51526725,13.2532625,-0.02462094,-0.16410364,0.14879917,18.986042,-1.4873327,-26.572077,37.0
16550,-1.7192352,-1.3478162,18.037395,-0.31490526,-0.7449919,0.21676297,17.601751,-2.2061794,-25.948175,15.0
16600,0.85949737,-2.6641316,13.802188,-0.7208239,-0.75910664,-0.08145755,15.263365,-2.0090535,-26.225286,15.0
16650,1.5468799,-1.154381,11.49235,-0.3526156,0.20463732,-0.06984617,13.539279,-1.2387289,-26.24614,13.0
16700,1.194776,-0.5203043,4.051059,-0.37317517,0.46253762,-0.44806796,13.599619,-0.78769225,-25.723667,12.0
16750,-0.08635735,-0.6404313,6.1076713,0.54108727,0.99969685,-0.09008618,12.924823,-2.272982,-25.785156,11.0
16800,0.7694274,-1.5030432,3.694706,0.13048139,-0.2541717,-0.2980789,10.157925,-3.9645958,-25.741531,
16850,0.5071224,-2.0870612,12.044865,1.0332922,0.09177263,0.10411136,9.942863,-4.31933,-25.588005,10.0
16900,1.5434065,1.5267581,7.94644,0.76164997,-0.24969757,-0.33296627,9.268359,-5.6927147,-26.053173,
16950,-0.37728825,-1.6896509,17.610046,-0.72497845,-0.9096815,-0.7226929,10.006059,-4.6589103,-26.665852,11.0
17000,-2.3537974,-0.81458247,16.840252,0.09127971,-0.53625345,-0.19570705,10.620334,-4.3169336,-26.097382,12.0
17050,1.8603283,1.9117117,7.1354513,-0.33992714,-0.06854358,0.011764858,11.235873,-4.4259853,-26.111761,17.0
17100,-0.11330652,1.3118834,11.23687,-0.6635659,0.50552094,-0.4504648,12.986903,-2.2214227,-26.341364,35.0
17150,-1.4937011,0.16660543,6.5187354,0.61597526,-0.19286576,-0.43049112,14.554477,-1.5111898,-25.753443,72.0
17200,-1.7059405,-0.07126563,5.417654,0.8661524,0.21800637,0.13356589,15.138791,-0.28307572,-27.022196,98.0
17250,-1.4509668,-0.47504243,7.982543,1.2246137,0.41518658,0.60931265,16.1538,0.25744647,-27.374643,120.0
17300,-0.49646324,0.21631154,6.8021216,0.6771747,-0.032437075,0.62566435,16.001932,-0.78416383,-27.861603,142.0
17350,-1.1661193,-0.10552095,22.148275,0.24973765,0.6963629,0.46278557,16.432348,0.3845051,-29.009693,167.0
17400,0.097375855,1.469027,6.200377,0.09463527,-0.39324185,-0.08017923,15.697032,-0.5942087,-30.626196,188.0
17450,-0.66007435,-1.0634729,15.196718,-1.0690585,0.4068776,0.0822202,16.432325,1.6005046,-30.50951,200.0
17500,2.0762804,-0.5437738,4.5804343,-0.5948032,-0.27355948,-0.19948873,15.848132,2.860111,-32.45771,
17550,0.49167156,-0.6646255,9.9194765,-0.84599245,0.33332115,0.033857234,16.00086,3.9481769,-32.806988,
17600,-0.023476064,-0.26338297,4.2365637,0.47946176,-0.37481275,0.020807758,16.279055,3.9352386,-33.94517,152.0
17650,1.1534225,-1.3309277,6.4066267,0.3544531,-0.2343045,0.2539939,15.603712,3.49925,-34.823605,127.0
17700,2.383501,0.085877754,7.441354,0.852517,0.033822317,0.308855,15.575284,2.5124488,-35.71052,51.0
17750,-0.33860123,-0.25428024,16.256237,-0.7396258,-0.23297293,-0.23458917,15.486017,2.2390597,-38.1239,13.0
17800,0.25763953,0.19216138,13.09147,-0.27889937,-0.5014726,-0.23858392,14.901854,2.4272954,-38.759666,
17850,1.4752549,3.045731,16.12616,-0.50713205,-0.610236,0.23279524,14.317133,3.549221,-40.056274,
17900,1.9343481,3.0157876,6.0984488,-0.5543232,-0.2937462,-0.6611739,12.503024,3.8246627,-41.52842,
17950,-0.70283383,1.1025188,10.627342,-0.5085702,0.52964926,-0.17211144,12.565332,5.0599604,-43.769783,
18000,-1.2008541,0.40148205,9.730713,1.2519376,0.28165585,-0.015624257,13.675108,3.948122,-44.286457,15.0
18050,-1.6327585,-0.70283353,8.188982,0.9964342,-0.0333958,0.44249234,13.190595,0.334902,-46.825752,
18100,-0.6278553,-0.61563814,14.8728485,2.3646586,0.18178742,0.9277199,13.320074,-3.2799325,-48.111645,
18150,1.3581159,2.3345132,6.8673983,1.008874,0.006261574,0.3475596,13.542966,-8.355411,-48.57353,
18200,-0.6415095,1.6013772,15.399614,-0.21503682,0.1911617,-0.10398786,14.004796,-8.410612,-48.77807,
18250,0.29188862,0.85290986,9.010633,-0.12416983,-0.15904364,-0.2907818,14.037542,-8.783849,-50.103905,
18300,-0.31871885,-0.46364498,8.493807,-0.85632545,-0.18370448,-0.13855568,13.913141,-7.783797,-50.149536,16.0
18350,1.7174946,-0.27041817,7.648942,-0.5851626,-0.32602367,-0.051523637,13.080831,-5.0542994,-52.151875,21.0
18400,0.96837187,0.059048414,6.3881826,0.18992312,0.33704954,0.14517727,13.787979,-4.8053894,-51.982414,47.0
18450,0.31632257,-0.116180874,5.2460184,0.70391273,-0.43196416,0.06799893,12.650808,-5.56249,-52.18764,97.0
18500,1.9544709,-0.21607225,12.725898,0.5554683,0.4788894,0.67796886,12.837769,-6.4594297,-53.19405,148.0
18550,3.6632855,2.1812027,6.8178115,1.331353,-0.28522408,-0.25408348,13.609926,-8.976706,-52.712353,200.0
18600,-2.16192,1.4390833,13.092166,-1.3282906,0.14018887,-0.35198122,14.62429,-8.138124,-52.851604,233.0
18650,0.8047606,0.7224761,17.446066,-0.5900095,-0.5017389,0.08285935,14.09841,-5.0690026,-54.138336,312.0
18700,1.0014293,3.1948495,9.24515,-0.5228979,0.4102331,-0.029099837,14.067846,-4.869582,-54.574745,334.0
18750,-0.5508407,1.8824869,8.714433,-0.26782063,0.4059721,-0.45099744,15.111316,-2.763741,-54.78985,
18800,0.2457757,0.9501665,6.7942147,0.41187072,0.6428335,0.3033689,16.924728,-2.6536036,-53.16742,355.0
18850,-0.5303593,0.9284873,3.4886951,0.8540084,0.5012067,-0.27469632,18.65054,-5.0389423,-52.69448,326.0
18900,-2.0218472,0.1756452,7.8277187,0.94253176,0.69737494,0.7146672,20.436604,-6.3062806,-52.449665,282.0
18950,-1.5710747,2.5448363,6.676956,0.55685306,0.007616812,0.69021934,21.978619,-10.007668,-51.068428,238.0
19000,-1.0859907,2.6212523,14.194209,-0.11969574,0.066792235,0.54774034,21.608906,-10.267026,-50.300793,194.0
19050,-0.7385264,2.1770108,11.643861,-1.2651203,-0.8075762,-0.057861954,21.854996,-9.654827,-51.01367,55.0
19100,-1.124438,0.31093305,16.602743,-1.0881269,0.004740621,0.032791972,21.020325,-6.170217,-51.81767,22.0
19150,-0.039405994,1.1437211,9.221674,-0.54894364,-0.21156113,-0.10942073,23.232988,-3.9024665,-52.22223,
19200,0.077493355,0.45058936,10.554519,-0.77153045,0.17262617,0.2055777,24.76892,-2.0521753,-52.267357,19.0
19250,0.8435672,0.19008109,7.524835,0.5204744,0.2019209,0.21553794,26.24293,-0.8923132,-51.098858,17.0
19300,-0.053060226,0.16864157,4.546418,0.53423995,0.31619412,0.331699,28.089045,-1.8495398,-49.8966,15.0
19350,1.4928616,0.08252408,10.375097,1.0007484,-0.081172876,0.6404183,31.26011,-3.796945,-49.176117,
19400,3.4673362,0.6500129,8.575134,0.723194,-0.31244162,-0.18212493,32.586403,-6.5416727,-48.678,14.0
19450,-1.5162185,-0.3823185,16.257792,0.3898198,0.26573014,-0.39592332,34.15321,-5.821247,-47.409252,
19500,0.5314807,1.86824,11.953239,-0.39964697,-0.42749,-0.21887653,34.36863,-5.5291834,-47.80967,13.0
19550,0.59204215,2.4218285,14.673424,0.012396947,-0.3072751,-0.103295445,35.5661,-4.291565,-47.082306,
19600,2.2038395,2.231388,8.180241,-0.8243143,0.06785748,-0.69771254,35.07136,-2.818922,-46.70927,
19650,-2.6791034,1.0336487,10.024519,-0.2858768,0.5772665,-0.73835224,37.06485,1.2039804,-45.870544,15.0
