Date created: 2021-10-22-21-42-26-423000000
Timestamp,acc_x,acc_y,acc_z,gyro_x,gyro_y,gyro_z,mag_x,mag_y,mag_z,light
31169890,-0.6719321,1.3435041,10.726753,0.1542368,-0.1916407,0.19380654,4.4941998,-4.9476223,-50.323814,
31169895,-0.56054235,1.3554814,10.680041,0.19258627,-0.21028282,0.23694973,,,,
31169900,-0.29823744,1.2920012,10.636923,0.23892523,-0.18897755,0.27370134,2.802002,-4.973303,-50.36561,
31169905,0.044315994,1.1842047,10.550686,0.29325366,-0.15222596,0.29553923,,,,
31169910,0.46112925,1.081199,10.234482,0.3321358,-0.119202785,0.29553923,2.6498146,-5.431761,-51.292656,
31169915,0.92465436,1.0165212,9.598483,0.34811476,-0.08032067,0.27583185,,,,
31169920,1.325897,0.9506455,8.909782,0.32947263,-0.023329072,0.23055814,2.3402386,-4.5427113,-50.691597,313.0
31169925,1.5893996,1.0249053,8.301331,0.27248105,0.059761476,0.17196864,,,,
31169930,1.6684504,1.1806114,7.955185,0.20164101,0.16309205,0.10752021,3.10952,-5.9796505,-48.953423,
31169935,1.6049702,1.251278,7.888111,0.119615726,0.2696184,0.03827808,,,,
31169940,1.3642247,1.3063741,8.071365,0.03652517,0.35270897,-0.024572466,2.8050327,-6.3161983,-51.43331,
31169945,1.0228689,1.3051764,8.40793,-0.034314852,0.3969174,-0.07677038,,,,
31169950,0.64198786,1.4129729,8.719341,-0.09769803,0.3969174,-0.11458723,4.1888084,-5.995735,-51.093086,
31169955,0.26589775,1.5267582,8.930143,-0.15895067,0.36123106,-0.13695778,,,,
31169960,-0.1688816,1.6381478,9.19245,-0.21008334,0.31222895,-0.14334935,0.95651245,-6.021599,-49.62554,
31169965,-0.67073435,1.8130178,9.481104,-0.25535703,0.26748788,-0.12950093,,,,
31169970,-0.99292624,1.9459668,9.924268,-0.26760757,0.2610963,-0.09647776,4.188286,-5.9887867,-50.628883,
31169975,-1.1941464,1.931594,10.4213295,-0.23937808,0.2776079,-0.044812474,,,,
31169980,-1.2911633,1.8848822,10.90881,-0.18185385,0.30743524,0.013777019,2.9553986,-5.399296,-49.42826,
31169985,-1.2444514,1.8429613,11.257352,-0.09769803,0.34791526,0.07023598,,,,
31169990,-1.1186888,1.7447467,11.484922,0.0035020027,0.38466686,0.11444442,4.0360966,-6.4472466,-51.555946,
31169995,-0.9246551,1.6908484,11.561577,0.1041694,0.3921237,0.15066338,,,,
31170000,-0.7893106,1.5866451,11.563972,0.19258627,0.36389425,0.1746318,4.4934406,-5.5164127,-48.924355,
31170005,-0.7246326,1.6393456,11.566368,0.26395893,0.31222895,0.18901287,,,,
31170010,-0.6371976,1.7746902,11.525644,0.33639684,0.24831311,0.20073076,4.3404446,-5.385235,-49.85827,
31170015,-0.488678,1.8860798,11.351973,0.40670422,0.18972364,0.20712234,,,,
31170020,-0.3006329,1.881289,11.142368,0.4732832,0.13592783,0.20392655,3.2629719,-6.6958294,-47.703194,
31170025,-0.17367256,1.8848822,10.942346,0.5313401,0.06934886,0.19007812,,,,
31170030,-0.099412724,1.9148257,10.486008,0.57395065,-0.012143806,0.16504443,4.034935,-6.721218,-50.15992,
31170035,-0.015570983,1.9244076,9.86438,0.58620113,-0.09044067,0.14054337,,,,
31170040,0.154508,1.9663284,9.158913,0.5585043,-0.15275858,0.11444442,2.650547,-7.467695,-49.41189,
31170045,0.33057567,2.0250177,8.477399,0.49405584,-0.19004281,0.07929072,,,,
31170050,0.34015754,2.142396,7.9120655,0.3976495,-0.19803229,0.036680184,4.0355377,-7.1634445,-50.154793,
31170055,0.35093725,2.2513905,7.557535,0.28047052,-0.18365122,-0.0011366699,,,,
31170060,0.15929894,2.3388252,7.405422,0.15050837,-0.15275858,-0.037355628,5.5748158,-8.310106,-49.48417,
31170065,-0.010780022,2.4166784,7.5683146,0.032264117,-0.074994355,-0.057595633,,,,
31170070,0.03233859,2.3855371,8.096518,-0.0417717,0.0650878,-0.058660895,2.6500053,-6.4474106,-50.197548,291.0
31170075,0.11019163,2.2082717,8.797195,-0.08225171,0.22221418,-0.052801948,,,,
31170080,0.117378086,1.9435714,9.5362,-0.09610014,0.3521763,-0.05919353,3.2669544,-8.485586,-49.075233,
31170085,0.17127635,1.7136054,10.438097,-0.07958855,0.42727742,-0.0938146,,,,
31170090,0.09462105,1.7303739,11.22621,-0.03751064,0.43047318,-0.13855566,4.187315,-7.278408,-48.13775,
31170095,-0.074260205,1.9759103,11.53882,0.027470434,0.39265636,-0.1710462,,,,
31170100,-0.20361604,2.165153,11.42743,,,,2.64682,-6.115532,-47.725243,
31170105,-0.25871205,2.1256275,11.198662,0.09085361,0.33939317,-0.1912862,,,,
31170110,0.16768314,1.5698767,11.064516,0.1292031,0.25843316,-0.20992833,2.3414917,-6.5855923,-49.275032,
31170115,-0.77613544,2.0334017,11.278911,0.13026837,0.113557294,-0.24721254,,,,
31170120,-1.2492423,2.4442263,10.821375,0.13133362,-0.03984066,-0.28236622,5.2654934,-7.85865,-48.568504,
31170125,-1.4360898,2.7185085,10.520741,0.16062838,-0.13358384,-0.27917042,,,,
31170130,-1.4612422,2.8574462,10.297962,0.18566206,-0.1932386,-0.25147358,3.1103249,-6.5692863,-48.94657,
31170135,-1.4229145,2.9436836,10.058414,0.1744768,-0.27206808,-0.21365675,,,,
31170140,-1.3678186,2.8933787,9.787725,0.13133362,-0.3594197,-0.16678515,5.2634716,-7.2528,-47.49221,
31170145,-1.1162934,2.9221241,9.984154,0.07540729,-0.41428077,-0.117783025,,,,
31170150,-0.78571737,2.3340344,10.246459,0.030133592,-0.43931445,-0.06931354,4.340418,-7.989956,-46.578056,
31170155,-1.0360448,2.036995,10.3554535,-0.002889578,-0.492045,-0.0352251,,,,
31170160,-1.3091295,2.1088593,10.151838,-0.019401163,-0.5538303,-0.026702993,3.2660465,-6.447338,-50.801277,
31170165,-0.95340085,1.7950517,9.976969,-0.0034222102,-0.568744,0.011646492,,,,
31170170,-0.7126552,1.4680688,10.2428665,0.0024367392,-0.5639503,0.065974936,3.2660465,-6.447338,-50.801277,263.0
31170175,-0.5365876,1.4297413,10.365036,-0.0183359,-0.60283244,0.10219389,,,,
31170180,-0.23355952,1.4357299,10.159024,-0.050826438,-0.66035664,0.12190126,3.2647934,-7.154272,-48.781197,
31170185,0.00718607,1.5028033,9.975771,-0.08118645,-0.69124925,0.1341518,,,,
31170190,-0.016768701,1.71121,9.309828,-0.119003296,-0.69497776,0.13148864,1.1100807,-6.449911,-48.84295,
31170195,0.45514056,1.430939,8.564834,-0.17812543,-0.64970404,0.12989074,,,,
31170200,0.8863267,1.2596623,8.570822,-0.27932546,-0.5575587,0.13042337,2.1895046,-7.1914597,-50.200386,
31170205,0.8456035,1.2776283,8.498959,-0.42899498,-0.47979447,0.111781254,,,,
31170210,0.8659651,1.371052,8.371998,-0.57600135,-0.38764918,0.08301915,1.5734024,-7.7695885,-48.81614,
31170215,1.2360666,1.471662,8.813964,-0.6910498,-0.20868492,0.048930716,,,,
31170220,1.7115691,1.1578544,9.653578,-0.74271506,0.07307728,4.612254E-4,1.8778515,-5.406374,-48.83593,243.0
31170225,1.6480889,0.7494253,10.890843,-0.75869405,0.35803527,-0.057063006,,,,
31170230,1.2192981,0.5170639,12.125712,-0.75603086,0.54925007,-0.12204409,3.263668,-6.7050953,-48.32212,
31170235,0.9378295,0.36734647,13.267158,-0.72354037,0.6254164,-0.17637253,,,,
31170240,0.8635696,0.31344822,14.002569,-0.6558961,0.5934585,-0.2179178,2.956808,-6.43116,-49.416283,
31170245,0.8396149,0.19606978,14.342728,-0.5530982,0.48160586,-0.24987571,,,,
31170250,0.8719538,0.07030716,14.329552,-0.43751708,0.3282079,-0.2818336,3.4175568,-4.2431326,-51.442085,
31170255,0.9318407,-0.0650374,14.123541,-0.32406652,0.17853837,-0.30793256,,,,
31170260,0.9749594,-0.21235932,14.149892,-0.20688754,0.061892007,-0.33136836,2.9575253,-7.45376,-48.785362,
31170265,1.0192758,-0.43873203,14.243316,-0.09769803,-0.047297504,-0.35160837,,,,
31170270,1.1965411,-0.55970365,14.343925,0.0072304253,-0.17033543,-0.36439154,2.801939,-5.5513573,-49.58509,221.0
31170275,1.4480665,-0.5692856,14.225349,0.10363677,-0.31095022,-0.37877256,,,,
31170280,1.5774223,-0.5345512,13.810932,0.19684732,-0.43611866,-0.39741468,4.645975,-5.062585,-48.306755,
31170285,1.666055,-0.5249693,13.273146,0.29272103,-0.5069587,-0.41658944,,,,
31170290,1.7007893,-0.40279987,12.737757,0.38646424,-0.508024,-0.422981,2.9559212,-5.406246,-49.892464,
31170295,1.5199307,-0.03629166,12.48743,0.46582636,-0.451565,-0.41339362,,,,
31170300,1.431298,-0.039884865,12.191588,0.5297422,-0.364746,-0.382501,3.8805122,-7.2946587,-48.919014,
31170305,1.2240891,0.24158385,11.75082,0.563298,-0.25502387,-0.35001045,,,,
31170310,0.95459783,0.6667813,11.456177,0.58460325,-0.12985542,-0.31272623,2.956461,-6.426529,-49.106804,
31170315,0.9809481,1.0704194,11.129193,0.59312534,0.01075936,-0.2631915,,,,
31170320,0.56533253,1.7471421,11.033375,0.5851359,0.15297203,-0.20513465,3.4183998,-6.859436,-48.93554,201.0
31170325,0.54018,2.2669609,11.633442,0.5766138,0.28346685,-0.13802303,,,,
31170330,0.9785526,2.5172884,12.124516,0.59152746,0.3415237,-0.0804988,3.8804474,-7.872713,-48.138496,
31170335,1.4684279,2.3508027,11.7951355,0.61336535,0.27547735,-0.07037881,,,,
31170340,2.3020544,2.1304188,10.824968,0.6027127,0.13646045,-0.10340196,3.8801632,-7.2900257,-48.609535,
31170345,3.1883814,1.7962495,9.3780985,0.5318727,-0.015872227,-0.1657199,,,,
31170350,2.5428002,2.605921,7.8198395,0.37687686,-0.13518174,-0.25147358,5.111229,-7.421076,-48.73217,
31170355,2.0517268,3.3784628,6.5202928,0.16329153,-0.14370385,-0.29941043,,,,
31170360,2.1475463,3.5281801,6.2651744,-0.09450224,-0.050493296,-0.2908883,4.188835,-8.890644,-47.499977,
31170365,3.2350934,2.740068,6.872428,-0.39117813,0.036858313,-0.27224624,,,,
31170370,3.6746638,2.0453792,7.6485634,-0.6926477,0.05763095,-0.29461676,5.2631607,-6.5250206,-48.119713,178.0
31170375,3.6483133,1.6872551,8.586393,-0.9493762,0.052837268,-0.35107574,,,,
31170380,3.6662793,1.448905,9.408042,-1.13633,0.06402254,-0.41925257,4.9591217,-8.314812,-49.189903,
31170385,3.5045848,1.2824192,10.3818035,-1.2748142,0.08479518,-0.48689684,,,,
31170390,2.988359,1.3315266,11.35317,-1.3776122,0.0869257,-0.54122525,3.7247715,-6.4032745,-48.31414,
31170395,2.3954782,1.3171537,12.04187,-1.4537784,0.07467517,-0.5673242,,,,
31170400,2.0157948,1.12312,12.647926,-1.4937258,0.08799096,-0.5657263,6.0285587,-4.8710012,-46.726936,
31170405,1.6696482,0.8524309,13.251587,-1.4899974,0.12580782,-0.54761684,,,,
31170410,1.3606315,0.6464197,13.743858,-1.447387,0.17321204,-0.5177895,4.1817284,-3.4411402,-47.872795,
31170415,1.0192758,0.5805441,14.242117,-1.3802752,0.21422468,-0.48103786,,,,
31170420,0.77014595,0.70870215,14.587067,-1.286532,0.24085627,-0.43150312,4.644409,-5.0417385,-46.91416,123.0
31170425,0.80607814,0.74463433,14.61701,-1.16669,0.24618259,-0.37397888,,,,
31170430,1.0468237,0.62605816,14.230141,-1.0404563,0.23712786,-0.32444414,6.026142,-3.1020918,-46.74749,
31170435,1.2145073,0.4619679,13.627677,-0.92594045,0.22008364,-0.29887784,,,,
31170440,1.1486316,0.49430686,13.037191,-0.82740355,0.20783311,-0.2908883,6.4904613,-3.2772427,-49.055367,
31170445,1.1115017,0.5014933,12.513781,-0.7411172,0.21955101,-0.2908883,,,,
31170450,1.0875468,0.45118824,12.199972,-0.6660161,0.23180154,-0.2951494,6.488182,-2.233797,-48.293694,
31170455,0.94501585,0.43921083,11.849034,-0.6175466,0.22008364,-0.3004757,,,,
31170460,0.7545754,0.39249903,11.7879505,-0.58026236,0.20144153,-0.30580202,5.2581253,-2.8397932,-48.162514,
31170465,0.6216263,0.20086074,11.998752,-0.52273816,0.17800573,-0.30633467,,,,
31170470,0.71505,0.04036367,12.108944,-0.43485394,0.12527518,-0.30473676,5.5684795,-4.1733875,-48.91317,
31170475,0.9474114,0.06791167,11.772379,-0.3251318,0.0400541,-0.3153894,,,,
31170480,1.1258745,0.21882682,10.942347,-0.21487702,-0.06807014,-0.35214096,6.6435184,-2.8303633,-48.901985,
31170485,1.261219,0.447595,9.930256,-0.12752542,-0.18951018,-0.40700206,,,,
31170490,1.2564281,0.63923335,8.875049,-0.083316974,-0.30828702,-0.47145048,7.567259,-2.9707146,-49.341667,
31170495,0.9486091,0.83925575,7.9851284,-0.075860135,-0.41534603,-0.5311053,,,,
31170500,0.48388627,1.0847924,7.415004,-0.09077382,-0.49577343,-0.56998736,7.565832,-3.675332,-47.166847,
31170505,0.05868885,1.3842272,6.992202,-0.11154646,-0.5447756,-0.58330315,,,,
31170510,-0.3209945,1.6345546,6.4879537,-0.12752542,-0.57620084,-0.5710527,7.7191525,-2.7978077,-47.792244,
31170515,-0.8144631,1.8729048,5.8807,-0.15522225,-0.5841903,-0.54016,,,,
31170520,-1.2636153,2.0968819,5.3512993,-0.20848544,-0.5596893,-0.49062523,7.2592945,-3.2609377,-48.72692,134.0
31170525,-1.6337167,2.2298307,5.039887,-0.27985808,-0.50269765,-0.41552415,,,,
31170530,-1.8229594,2.1364074,4.9548473,-0.3592202,-0.42227024,-0.32178098,6.4877777,-1.9389791,-48.29711,
31170535,-1.87566,1.8597296,4.8757963,-0.43165815,-0.31521127,-0.21472202,,,,
31170540,-1.8373324,1.5495151,4.96922,-0.48758447,-0.18258597,-0.1055325,5.4113293,-2.2501392,-48.32029,
31170545,-1.7007902,1.2488825,5.18122,-0.52433604,-0.04303645,-0.0011366699,,,,
31170550,-1.4792082,0.93028396,5.460294,-0.55363077,0.06934886,0.100063354,8.334681,-1.9225454,-49.025185,
31170555,-1.1294684,0.49430683,5.526169,-0.5818603,0.14658046,0.18954548,,,,
31170560,-0.7976947,0.035572708,5.663909,-0.61222035,0.20996363,0.26091817,7.257023,-1.3492508,-49.05863,
31170565,-0.5294011,-0.34411067,6.184926,-0.63885194,0.25363946,0.31524658,,,,
31170570,-0.23475727,-0.67109346,6.790982,-0.6399172,0.24511732,0.35040027,7.5640907,-0.90235424,-49.056175,149.0
31170575,0.02275668,-0.99687856,7.211388,-0.6191445,0.1625594,0.36424872,,,,
31170580,0.1305532,-1.2268443,7.471298,-0.5903824,0.028336208,0.36531398,7.261078,-1.6927109,-52.30462,
31170585,0.08983007,-1.251997,7.6821,-0.56428343,-0.1042891,0.36105293,,,,
31170590,0.029943109,-1.0747316,8.327682,-0.5317929,-0.20229335,0.35785714,6.3351345,-1.8124361,-49.540504,
31170595,0.004790604,-0.9597485,9.004404,-0.46894237,-0.27579653,0.36105293,,,,
31170600,-0.03353706,-0.94657344,9.50386,-0.3618834,-0.3194723,0.36478135,5.718525,-0.6471329,-49.878853,
31170605,-0.070666976,-0.9298051,9.895521,-0.20848544,-0.31361336,0.3669119,,,,
31170610,-0.15810195,-0.89147747,10.33629,-0.027390638,-0.26141545,0.3706403,5.4122066,-1.3934803,-50.187355,
31170615,-0.20720926,-0.79685605,10.7051935,0.17767258,-0.17406386,0.3839561,,,,
31170620,-0.22158211,-0.72738713,10.859703,0.40723687,-0.06540698,0.40366346,5.256119,-0.49746323,-49.273033,171.0
31170625,-0.26350302,-0.7609238,10.708787,0.66023695,0.05443516,0.426034,,,,
31170630,-0.15211326,-0.81482214,10.26203,0.8999213,0.158831,0.44148034,6.7978306,-1.6765518,-50.768684,
31170635,0.088632345,-0.99807626,9.4307995,1.1087129,0.21901837,0.44414347,,,,
31170640,0.20241758,-1.1394095,8.451049,1.2615782,0.23872575,0.43402347,7.2593384,-1.669548,-50.757286,
31170645,0.104202956,-1.1322231,7.4042244,1.3521256,0.2227468,0.41218558,,,,
31170650,-0.10540142,-0.9896921,6.4328575,1.3888772,0.19558258,0.3860866,7.415674,-3.8714008,-50.263603,
31170655,-0.45154804,-0.78966963,5.674689,1.3697023,0.17161416,0.36531398,,,,
31170660,-0.96058726,-0.47107095,5.174034,1.3089824,0.16096152,0.35519397,7.5699406,-4.308978,-50.099922,
31170665,-1.6588693,-0.054257736,5.134508,1.2136414,0.17161416,0.35785714,,,,
31170670,-2.2864847,0.28949344,5.6195927,1.117235,0.17960362,0.3871519,6.4943886,-4.7768126,-50.740334,190.0
31170675,-2.7524052,0.5110752,6.186124,1.0346771,0.14817835,0.44520876,,,,
31170680,-2.9236817,0.6272559,6.7095356,0.96223915,0.061892007,0.5235056,6.8021164,-5.0623283,-50.419838,
31170685,-2.6266427,0.60210335,7.169467,0.8945949,-0.051025927,0.6087267,,,,
31170690,-1.8061912,0.25715446,7.4701,0.8349402,-0.15808491,0.6870236,8.342445,-5.3546467,-51.77102,
31170695,-0.8947116,-0.3429129,7.6270037,0.7731549,-0.23425125,0.7365583,,,,
31170700,-0.06587602,-0.9046526,7.7611504,0.7023149,-0.25768703,0.7461457,7.72591,-5.4928646,-50.546623,
31170705,0.4790953,-1.269963,7.9312296,0.6165612,-0.21294598,0.7200467,,,,
31170710,0.70546806,-1.4089007,8.150415,0.5180243,-0.114409104,0.68009937,6.6500645,-6.246252,-50.56466,
31170715,0.7737392,-1.5693979,8.681014,0.40404108,0.02247726,0.6380214,,,,
31170720,0.6587562,-1.5957482,9.646393,0.28846,0.18865837,0.6034004,6.189453,-6.4099293,-51.19329,203.0
31170725,0.47430438,-1.4867538,10.82976,0.19684732,0.3601658,0.5788993,,,,
31170730,0.32818016,-1.2484038,11.998752,0.1627589,0.5295426,0.5554635,9.419334,-7.364971,-49.244713,
31170735,0.1365419,-1.0148445,13.21326,0.18246627,0.67335325,0.527234,,,,
31170740,-0.1293562,-0.7022346,14.167857,0.25224102,0.7654985,0.49421087,7.270096,-7.167694,-53.633858,
31170745,-0.594079,-0.28901464,14.80745,0.3534411,0.7921301,0.45373085,,,,
31170750,-1.109107,0.14336924,15.170365,0.46955478,0.75537854,0.4276319,7.8821354,-7.1143456,-50.678734,
31170755,-1.4277055,0.44879276,15.264987,0.60058224,0.6653637,0.41964242,,,,
31170760,-1.407344,0.6116853,14.989507,0.73959905,0.5385974,0.4191098,8.805702,-7.2523785,-50.963707,
31170765,-1.2767904,0.63683784,14.343925,0.8653002,0.39052582,0.41804454,,,,
31170770,-0.9857397,0.6284536,13.273147,0.9521192,0.21795312,0.40419608,8.651024,-7.3882256,-50.037376,
31170775,-0.63839537,0.58653283,12.022706,0.9702287,0.024075154,0.37809715,,,,
31170780,-0.3090171,0.50269103,10.6920185,0.89832336,-0.16234596,0.34667188,7.5774956,-8.46191,-51.754066,
31170785,0.010779284,0.34339172,9.4044485,0.741197,-0.30881968,0.3157792,,,,
31170790,0.33416888,0.18169689,8.455839,0.51589376,-0.384986,0.28382134,8.344917,-7.413742,-51.437584,
31170795,0.65875626,0.119414456,8.120472,0.24265367,-0.37859443,0.25399393,,,,
31170800,0.84320813,0.17930144,8.39236,-0.05508749,-0.3226681,0.22416654,7.732712,-9.346346,-51.894722,
31170805,1.0049028,0.22242004,8.973263,-0.34803498,-0.2523607,0.1879476,,,,
31170810,1.0803604,0.24996804,9.709873,-0.62287295,-0.18418387,0.14320652,7.5767994,-8.452646,-51.135124,
31170815,1.12827,0.15774211,10.566256,-0.86948144,-0.11334384,0.09793283,,,,
31170820,1.1390498,0.017606616,11.70291,-1.078273,-0.040905923,0.05319177,7.4232807,-8.31452,-51.604836,222.0
31170825,1.1007221,-0.0650374,13.03839,-1.2343342,0.020879366,-0.0011366699,,,,
31170830,0.83482397,-0.23391862,14.496038,-1.3307406,0.072012015,-0.061856687,7.7329216,-8.625513,-52.986412,
31170835,0.46711797,-0.26146662,16.077053,-1.3568394,0.0986436,-0.12257673,,,,
31170840,0.041920498,-0.29380557,17.443674,-1.3120984,0.09384992,-0.16998094,8.040001,-7.310377,-54.07737,
31170845,-0.3976498,-0.3548903,18.639019,-1.19705,0.056033056,-0.20087358,,,,
31170850,-0.7246326,-0.48783934,19.502588,-1.0207489,-0.018535387,-0.21312411,10.959497,-6.7867336,-51.53457,
31170855,-0.9737624,-0.6854663,19.797232,-0.7975762,-0.11867016,-0.20673253,,,,
31170860,-1.071977,-0.8339859,19.71938,-0.540315,-0.22200072,-0.1859599,8.342913,-5.071411,-52.54812,
31170865,-1.1007228,-0.9477712,19.33131,-0.28092337,-0.31680915,-0.15506727,,,,
31170870,-1.002508,-1.1489913,18.544397,-0.03751064,-0.4078892,-0.11458723,7.574602,-5.0946655,-53.340782,
31170875,-0.77972865,-1.2951155,17.410137,0.17767258,-0.50749135,-0.07623775,,,,
31170880,-0.46232772,-1.527477,15.820738,0.33692947,-0.6017672,-0.045345105,8.804043,-4.9146814,-52.38369,
31170885,-0.09342403,-1.7071378,14.018141,0.42854214,-0.6678135,-0.024039835,,,,
31170890,0.22996557,-1.8532622,12.1580515,0.44398847,-0.6907167,-0.013919831,8.956984,-4.7556734,-51.762672,
31170895,0.6359992,-1.9921999,10.530324,0.39871475,-0.6795314,-0.007528251,,,,
31170900,1.2480439,-2.1059852,9.1122,0.30390632,-0.6305293,-0.007528251,8.651527,-6.3818417,-51.751442,
31170905,1.8960209,-2.1514993,7.8390036,0.17713995,-0.53252506,-0.02936615,,,,
31170910,2.3727212,-2.180245,6.9383035,0.034927275,-0.38711655,-0.0789009,8.651527,-6.3818417,-51.751442,
31170915,2.4385967,-2.084426,6.5023265,-0.1072854,-0.2198702,-0.15027358,,,,
31170920,2.2337832,-1.9790246,6.450824,-0.23032334,-0.06434172,-0.22537465,8.95603,-4.308813,-51.458336,254.0
31170925,1.7127668,-1.7945728,6.6292872,-0.32779494,0.056565687,-0.2903557,,,,
31170930,0.92585206,-1.5035222,6.811343,-0.3890476,0.1423194,-0.33456412,8.648359,-4.3134823,-51.465935,
31170935,0.044315986,-1.1034772,6.9359083,-0.43698445,0.19504994,-0.3468147,,,,
31170940,-0.746192,-0.68786174,7.0461006,-0.47906238,0.20996363,-0.3185852,9.418758,-4.3180237,-52.530083,
31170945,-1.3175135,-0.39681116,7.3167896,-0.51102024,0.20037627,-0.26212624,,,,
31170950,-1.6959991,-0.21834801,7.562326,-0.51102024,0.19025625,-0.1859599,9.722237,-3.2444305,-50.058723,
31170955,-1.8720667,-0.17283392,8.017467,-0.46361604,0.16628782,-0.10073881,,,,
31170960,-1.7510953,-0.22912766,8.411524,-0.37306866,0.08426254,-0.012321937,11.261578,-3.813036,-50.168617,
31170965,-1.4923835,-0.23751184,8.286959,-0.2766623,-0.052091192,0.06277914,,,,
31170970,-1.1342595,-0.21954575,7.8030715,-0.20422438,-0.2150765,0.11284652,9.876513,-2.8137655,-50.988472,
31170975,-0.71624845,-0.0842012,7.1503034,-0.164277,-0.36634392,0.14214127,,,,
31170980,-0.2970397,0.0056292415,6.4723835,-0.15042856,-0.46967447,0.15971811,9.5692425,-3.1132526,-50.992638,
31170985,0.19283567,-0.008743629,5.750146,-0.1557549,-0.50962186,0.1661097,,,,
31170990,0.7689482,-0.12492436,5.0854015,-0.16694017,-0.4851208,0.16078337,10.186033,-3.41263,-51.902412,
31170995,1.3845862,-0.21715026,4.548814,-0.20156123,-0.41374812,0.1341518,,,,
31171000,1.7558854,-0.32374907,4.1511645,-0.25375915,-0.32639652,0.08674757,10.64463,-1.7748623,-51.2909,
31171005,1.8229587,-0.24709375,4.145176,-0.31554443,-0.24863231,0.033484396,,,,
31171010,1.606168,-0.1201334,4.31765,-0.37519917,-0.1847165,-0.010724043,10.800928,-1.9500484,-53.296944,
31171015,1.1701908,0.033177234,4.703322,-0.4172771,-0.12186595,-0.03575773,,,,
31171020,0.7306205,0.0535388,5.2387114,-0.43219075,-0.067004874,-0.026170362,12.027884,-1.4474506,-50.486473,238.0
31171025,0.4359767,-0.006348163,5.8962708,-0.41514656,-0.02918802,0.0047222795,,,,
31171030,0.11737807,-0.07342157,6.514304,-0.36774233,6.393568E-4,0.054257035,10.796871,-1.6065874,-50.050957,
31171035,-0.16409065,-0.020721033,7.107185,-0.28678232,0.035260417,0.119770736,,,,
31171040,-0.2994352,0.028386287,7.7024612,-0.1674728,0.0784036,0.19167602,11.720734,-1.4590693,-50.958275,
31171045,-0.3485425,0.10144838,8.098913,-0.017270634,0.13006888,0.26571184,,,,
31171050,-0.34375155,0.17451046,8.321693,0.15530205,0.18972364,0.34134558,11.873413,-0.8624649,-50.651863,
31171055,-0.318599,0.24158387,8.495365,0.3507779,0.24245419,0.41165295,,,,
31171060,-0.17606804,0.29188892,8.496563,0.5569064,0.2642921,0.4659814,13.4126,-2.44209,-49.35717,
31171065,0.05030468,0.36255553,8.283365,0.75398016,0.23339944,0.5006024,,,,
31171070,0.29344577,0.3158437,7.7012634,0.92388964,0.16149414,0.51232034,12.796112,-0.98891926,-50.163155,207.0
31171075,0.57251894,0.19127882,7.1646767,1.0570476,0.04431516,0.506994,,,,
31171080,1.0456259,-0.07941027,6.6783943,1.145997,-0.13518174,0.48142773,14.183052,-2.7368155,-50.10842,
31171085,1.6325183,-0.49143255,6.0567675,1.1886077,-0.3865839,0.42816454,,,,
31171090,2.3008568,-0.83638144,5.273446,1.1625087,-0.6678135,0.345074,14.17992,-2.6951218,-47.323204,
31171095,2.9081106,-0.9597485,4.5152774,1.0629066,-0.92827046,0.2348192,,,,
31171100,3.3943925,-1.095093,3.955933,0.90205175,-1.1285399,0.101661265,12.4889145,-2.5919247,-48.60459,
31171105,3.5848331,-1.0723361,3.5403175,0.7076412,-1.2244138,-0.036822997,,,,
31171110,3.508178,-1.0064604,3.6481142,0.49245796,-1.1967168,-0.16252409,13.106739,-3.7734394,-49.349358,
31171115,3.16802,-0.7202007,4.1020575,0.28579682,-1.0640916,-0.2631915,,,,
31171120,2.6661673,-0.5884494,4.9740114,0.10044099,-0.8483757,-0.32178098,14.030058,-2.6056385,-51.04232,189.0
31171125,2.1810827,-0.68666404,6.263977,-0.040706433,-0.57247245,-0.3334989,,,,
31171130,1.4552529,-0.824404,7.7767215,-0.11740541,-0.267807,-0.30953044,13.108763,-4.3792896,-50.425636,
31171135,0.53299356,-0.5932404,9.428404,-0.1088833,0.052304633,-0.25573462,,,,
31171140,-0.20002282,-0.2698508,11.214233,-0.009813792,0.33513212,-0.17797041,13.260008,-2.60573,-50.28765,
31171145,-0.69588685,-0.054257736,12.638346,0.14677994,0.5140964,-0.08848828,,,,
31171150,-1.0504177,0.051143326,13.463587,0.30443895,0.5561742,-0.0011366699,14.335642,-2.5731745,-49.177925,
31171155,-1.2252877,0.15175343,13.699541,0.4322706,0.47308373,0.07769282,,,,
31171160,-0.8575816,0.10025063,13.636061,0.5265464,0.3026416,0.14853285,14.026863,-3.1420012,-47.476616,
31171165,0.10420296,-0.32973778,13.335428,0.5787443,0.072012015,0.19913286,,,,
31171170,1.3246993,-0.8495566,12.726978,0.57128745,-0.19110808,0.21724235,14.797371,-3.7269115,-47.914955,164.0
31171175,2.6901221,-1.4424374,11.8346615,0.48713163,-0.4297271,0.19061075,,,,
31171180,4.2483807,-2.0317252,11.053736,0.34119052,-0.588984,0.12136863,15.41321,-3.5794306,-48.52041,
31171185,5.700041,-2.598256,10.662075,0.15796521,-0.655563,0.0020591207,,,,
31171190,6.9444923,-2.9815326,10.569849,-0.054022226,-0.6236051,-0.16465463,14.028273,-4.1738644,-47.464622,
31171195,7.930231,-3.2761765,10.733939,-0.25748754,-0.49896923,-0.36865258,,,,
31171200,8.330276,-3.3564248,11.174707,-0.43165815,-0.29656914,-0.5918253,15.103039,-4.1297264,-45.58123,
31171205,7.896694,-3.355227,11.89934,-0.5728055,-0.03984066,-0.8027475,,,,
31171210,6.772017,-3.116877,12.875498,-0.6644182,0.23073627,-0.9758528,14.028622,-4.1784973,-47.7741,
31171215,5.2137585,-2.8126512,13.958254,-0.7006372,0.48480162,-1.0877055,,,,
31171220,3.397986,-2.4748888,15.1164665,,,,14.177641,-1.6516781,-46.561516,142.0
31171225,1.495976,-2.046098,16.563335,-0.6894519,0.6808101,-1.1265876,,,,
31171230,-0.29823744,-1.4747765,18.3312,-0.6281993,0.7809449,-1.1106086,15.100283,-1.4879436,-46.385704,
31171235,-1.6588693,-0.934596,19.598408,-0.47906238,0.7473891,-1.0413666,,,,
31171240,-2.4385974,-0.57287884,19.594814,-0.24523702,0.5705553,-0.9241875,17.099682,-1.7408314,-45.559227,
31171245,-2.7907329,-0.40759084,18.222206,0.015219902,0.30210894,-0.78144217,,,,
31171250,-2.7056932,-0.30338752,16.118977,0.2298705,0.009161464,-0.63177264,16.792831,-1.466896,-46.65339,
31171255,-2.3140326,-0.050664514,13.825305,0.34332106,-0.24650179,-0.49754947,,,,
31171260,-1.9571064,0.25954998,11.809509,0.33479896,-0.4302597,-0.3840989,16.63815,-1.6027431,-45.72706,
31171265,-1.3929713,0.31704146,10.174595,0.22347891,-0.52027446,-0.28822517,,,,
31171270,-0.51383054,-0.0842012,8.8630705,0.035459906,-0.53412294,-0.18968832,16.48399,-1.7455378,-45.26496,
31171275,0.38447392,-0.7237939,8.265399,-0.22659492,-0.48938185,-0.09701039,,,,110.0
31171280,0.9486091,-0.92860734,8.441466,-0.5349887,-0.39670393,-0.02936615,17.713299,-0.84009075,-45.09011,
31171285,1.2001344,-0.5453308,9.50985,-0.8465783,-0.25662175,0.010581229,,,,
31171290,1.3115242,-0.092585385,11.092063,-1.1027741,-0.07819015,0.0318865,17.713593,-0.5545368,-45.712456,
31171295,1.4576483,0.06910941,12.681463,-1.2833363,0.08799096,0.04413703,,,,
31171300,1.5175352,0.03796819,14.100784,-1.3840038,0.2126268,0.0436044,17.712685,-1.2661028,-44.00184,
31171305,1.4097388,-0.0015572011,15.320083,-1.4090375,0.29252157,0.029223341,,,,
31171310,1.2827784,0.14935794,16.439968,-1.3637637,0.34791526,0.012179124,18.173431,0.9219246,-46.02764,
31171315,1.2779875,0.35057813,17.35624,-1.251911,0.37934056,0.0020591207,,,,
31171320,1.3246992,0.46915433,18.053324,-1.0750773,0.38466686,-0.0016693012,19.092926,2.1406841,-44.31649,
31171325,1.3893771,0.60210335,18.391087,-0.85137194,0.36389425,-0.009126145,,,,69.0
31171330,1.4097388,0.7422389,18.40067,-0.59837186,0.32075104,-0.025637731,18.476418,1.8573742,-42.935646,
31171335,1.4073431,0.74463433,18.159922,-0.3224686,0.25204158,-0.052269317,,,,
31171340,1.4684279,0.6787587,17.36702,-0.034847483,0.13592783,-0.08795565,18.173832,0.6271057,-46.024223,
31171345,1.5402924,0.63324463,15.97884,0.24105576,-0.038242765,-0.13589251,,,,
31171350,1.5127443,0.7518208,14.169056,0.4748811,-0.2454365,-0.20140623,17.096169,0.33216095,-44.964256,
31171355,1.4396822,0.79254395,12.069418,0.6373338,-0.43398815,-0.2818336,,,,
31171360,1.2252868,0.79613715,9.953014,0.7257507,-0.56022185,-0.3590652,19.70673,2.025776,-42.752235,
31171365,0.8072759,0.8464422,8.1037035,0.7342728,-0.60283244,-0.42990524,,,,
31171370,0.34494856,0.92070204,6.568202,0.674618,-0.54690605,-0.49435365,19.251228,-0.37683296,-45.211967,
31171375,-0.17726578,0.980589,5.4519095,0.5696896,-0.40682393,-0.53430104,,,,18.0
31171380,-0.8899206,1.0524534,4.626667,0.4280095,-0.21294598,-0.54601896,18.78928,-0.81216717,-44.28985,
31171385,-1.5007677,1.0213121,4.163142,0.25809997,-4.2590674E-4,-0.5220505,,,,
31171390,-1.885242,0.8871653,4.1080456,0.07434202,0.20197415,-0.4645263,18.632442,0.3833027,-43.069466,
31171395,-2.0122023,0.63683784,4.534441,-0.11580751,0.36389425,-0.38356626,,,,
31171400,-2.0888577,0.40327865,5.2458982,-0.2947718,0.46456164,-0.2908883,18.635826,-0.095986366,-45.540062,
31171405,-2.183479,0.35656685,6.0771294,-0.43538657,0.51995534,-0.19501464,,,,
31171410,-2.1894677,0.39010355,6.9011736,-0.52273816,0.5513806,-0.08529249,19.247036,0.69209003,-42.748222,
31171415,-1.9127901,0.4619679,7.4377613,-0.5515003,0.57801217,0.03827808,,,,
31171420,-1.5582591,0.48831815,7.8497834,-0.54244554,0.6232859,0.17143603,17.862564,0.38089466,-42.469536,
31171425,-1.0432312,0.4655611,8.276178,-0.499835,0.70690906,0.29394132,,,,16.0
31171430,-0.3209945,0.36614874,8.9541,-0.4146139,0.80011964,0.38289082,20.01691,0.69449806,-43.348167,
31171435,0.36531013,0.11103029,9.6356125,-0.2846518,0.86137223,0.43988243,,,,
31171440,0.7677505,0.035572708,10.184177,-0.12752542,0.8869386,0.4713077,20.78696,0.6945896,-44.10282,
31171445,1.0456259,0.012815669,10.698008,0.05783044,0.8970586,0.48888457,,,,
31171450,1.1294677,0.05593428,11.126798,0.26821998,0.90451545,0.4894172,20.479313,0.5448284,-43.953987,
31171455,1.0540102,0.08587777,11.496899,0.5116327,0.8885365,0.46331823,,,,
31171460,0.7306205,0.17211498,11.595114,0.76729596,0.82621855,0.4239035,20.171837,-0.47549057,-42.866463,
31171465,0.35453045,0.2523635,11.189081,1.0224266,0.7319427,0.38289082,,,,
31171470,0.028745383,0.3865103,10.411747,1.2546539,0.6344711,0.35785714,21.403252,-0.61117077,-43.29856,
31171475,0.040722765,0.41166285,9.363726,1.4565215,0.5487174,0.34880242,,,,
31171480,0.25631583,0.34938037,8.092924,1.6141804,0.47627953,0.345074,19.250671,-1.0930309,-43.810814,
31171485,0.5413778,0.227211,6.708338,1.7148478,0.41928792,0.329095,,,,
31171490,0.7988918,0.1637308,5.566892,1.7478709,0.38093844,0.29820237,20.942425,-1.4956818,-42.835487,
31171495,0.88991994,0.04994557,4.5979214,1.7217721,0.36442688,0.2545266,,,,
31171500,0.85398775,0.01401341,3.8110065,1.646671,0.35963318,0.20978549,18.9449,-1.9914207,-44.42707,
31171505,0.5809032,0.018804356,3.3031654,1.5273615,0.36495948,0.17143603,,,,
31171510,0.18924241,0.030781753,2.9905553,1.381953,0.40437424,0.14320652,19.869144,-3.8752003,-43.144157,
31171515,-0.22158213,-0.06144418,2.9725895,1.2136414,0.48959532,0.13308652,,,,
31171520,-0.7150507,-0.21595252,3.8433456,1.0490581,0.6099701,0.14533705,20.177635,-3.5919266,-44.22312,
31171525,-1.2947565,-0.46388456,5.2722483,0.91536754,0.7340733,0.18155602,,,,
31171530,-1.8996148,-0.61479974,7.032925,0.8466581,0.8416649,0.23322129,21.406994,-2.9766655,-43.735374,
31171535,-2.5871172,-0.77529675,8.842709,0.8589086,0.90877646,0.30406132,,,,
31171540,-3.3428907,-0.7705058,10.405759,0.94892335,0.9125049,0.38768452,18.793915,-4.2025747,-44.250465,
31171545,-3.8627095,-0.64474314,11.532831,1.0890055,0.84273016,0.49048245,,,,
31171550,-3.9429579,-0.49861896,12.136492,1.2471972,0.7058438,0.6103246,19.257729,-5.3841095,-44.84429,
31171555,-3.584834,-0.2818282,12.334119,1.4101825,0.5364669,0.72377515,,,,
31171560,-2.863795,-0.14049496,12.136492,1.5705047,0.35164368,0.812192,18.640766,-5.0824137,-43.779793,
31171565,-1.6900105,-0.18840452,11.519656,1.715913,0.17054889,0.86598784,,,,
31171570,-0.32937866,-0.45669812,10.349465,1.8181783,0.014487783,0.8702489,19.71951,-6.8280334,-43.268456,
31171575,0.98933226,-1.0507768,8.807975,1.8410815,-0.10801752,0.81751835,,,,
31171580,1.9583033,-1.5394543,7.1311398,1.7590563,-0.19110808,0.71898144,16.954739,-8.374256,-45.33126,
31171585,2.7284496,-1.7490587,5.6734905,1.5566562,-0.21347861,0.593813,,,,
31171590,3.1368787,-1.812539,5.190802,1.248795,-0.16128069,0.45479614,16.954445,-8.659813,-44.7089,
31171595,2.9536247,-1.6508442,5.617197,0.87648547,-0.038242765,0.30086556,,,,
31171600,2.1331732,-1.2256467,7.19462,0.52228534,0.16042888,0.16184865,16.953384,-7.632578,-45.030342,
31171605,0.8623719,-0.67109346,9.690708,0.26502421,0.42088583,0.05851809,,,,
31171610,-0.46951416,-0.048269026,12.619181,0.1494431,0.66855955,0.006320175,16.954445,-8.659813,-44.7089,
31171615,-1.660067,0.39130127,15.069756,0.17287889,0.82675123,0.006320175,,,,
31171620,-2.3703263,0.6344423,16.634003,0.3087,0.8698944,0.04413703,17.571922,-9.836693,-45.144203,
31171625,-2.454168,0.68474734,17.355042,0.5095022,0.8065112,0.100595996,,,,
31171630,-2.0241797,0.69073606,17.125076,0.7278812,0.64672166,0.15332654,16.032948,-10.286053,-44.093925,
31171635,-1.2276831,0.6068944,15.839902,0.9121718,0.42727742,0.18155602,,,,
31171640,-0.40842944,0.5613802,13.850457,1.0192307,0.20996363,0.17356655,16.032948,-10.286053,-44.093925,
31171645,0.4599315,0.364951,11.720877,1.0192307,0.037390944,0.12669495,,,,
31171650,1.2899648,0.034374975,9.82246,0.90258443,-0.092038564,0.05265914,17.721539,-8.620344,-42.83309,
31171655,1.5989815,-0.1812181,8.308517,0.654378,-0.19217333,-0.044279844,,,,
31171660,1.6504843,-0.08779442,7.712043,0.31775475,-0.24596915,-0.1508062,15.570059,-9.406288,-43.96087,
31171665,1.688812,-0.04347807,7.9120655,-0.047630645,-0.24809967,-0.25147358,,,,
31171670,1.7271397,-0.07102609,8.562439,-0.39330864,-0.21134809,-0.34628204,15.263199,-9.132349,-45.055016,
31171675,1.4468687,-0.135704,9.460743,-0.6990393,-0.13944279,-0.4378947,,,,
31171680,0.7964962,-0.10456276,10.676448,-0.9445825,-0.041971184,-0.5252463,16.033104,-9.275036,-45.498512,
31171685,-0.045514457,-0.01113911,12.080198,-1.1294057,0.052837268,-0.5902274,,,,
31171690,-0.86596584,0.06551619,13.432446,-1.2460521,0.12474255,-0.6179242,16.031557,-7.5177097,-46.292717,
31171695,-1.6744399,0.15175343,14.691269,-1.2929237,0.16096152,-0.6136632,,,,
31171700,-2.5451963,0.34698492,15.786004,-1.2796079,0.17214678,-0.58596635,16.032656,-7.8217907,-46.90824,
31171705,-3.1847892,0.567369,16.647179,-1.1991805,0.18492995,-0.53483367,,,,
31171710,-3.552495,0.62605816,17.096329,-1.059631,0.20357205,-0.45174313,14.495392,-8.149221,-47.56173,
31171715,-3.5093765,0.47993398,17.054409,-0.87906885,0.22381206,-0.3489452,,,,
31171720,-3.2961788,0.2667364,16.49267,-0.68678874,0.24085627,-0.24082097,15.4163685,-6.5160294,-47.7125,
31171725,-2.8973317,0.042759135,15.6818,-0.51208556,0.2493784,-0.14761041,,,,18.0
31171730,-2.3355918,0.05593428,14.933213,-0.372536,0.2227468,-0.074107215,14.647846,-7.2601166,-47.413475,
31171735,-1.6924059,0.093064204,14.105576,-0.26547703,0.14178677,-0.020311411,,,,
31171740,-0.8479998,0.05234106,13.044378,-0.18398437,0.024075154,0.02283176,15.259182,-5.3159304,-46.18267,
31171745,0.23595425,-0.043478087,11.904131,-0.13125382,-0.0824512,0.04094124,,,,
31171750,1.2085185,-0.21595256,10.605782,-0.11261172,-0.15542175,0.019103337,15.260471,-6.635662,-45.703056,
31171755,1.7966084,-0.26865306,9.592494,-0.13338436,-0.18098806,-0.05067142,,,,
31171760,1.8876367,-0.273444,9.09663,-0.19303912,-0.17832492,-0.1508062,15.260481,-5.7674217,-46.796455,
31171765,1.6456933,-0.10216731,9.143341,-0.2702707,-0.17779228,-0.25040832,,,,
31171770,1.3294902,-0.001557216,9.318212,-0.3357844,-0.22785966,-0.33403152,14.336834,-5.194109,-46.980843,
31171775,0.92585206,-0.008743644,9.267906,-0.37892762,-0.34344074,-0.40274101,,,,26.0
31171780,0.4838863,-0.05545549,9.041533,-0.41195077,-0.5085566,-0.45653683,14.339268,-5.2265368,-49.147102,
31171785,-0.03233932,0.06192296,8.743297,-0.4428434,-0.67899877,-0.4815705,,,,
31171790,-0.5270057,0.21643135,8.447455,-0.46414867,-0.80736303,-0.48050523,13.723549,-5.08615,-49.009285,
31171795,-0.9414235,0.2703296,8.210302,-0.47693184,-0.873942,-0.44694945,,,,
31171800,-1.319909,0.282307,7.878529,-0.48012763,-0.868083,-0.38676205,14.7997055,-5.060543,-48.363747,
31171805,-1.6133552,0.36974198,7.6940775,-0.47746447,-0.7956452,-0.3068673,,,,
31171810,-1.779841,0.39369676,7.6521564,-0.47639918,-0.6805967,-0.21259147,13.107298,-5.8070545,-47.31385,
31171815,-1.9978294,0.32422787,7.843795,-0.46148553,-0.5453082,-0.117783025,,,,
31171820,-2.1319764,0.2559567,8.286959,-0.42899498,-0.4169439,-0.017115623,13.724014,-4.8029137,-49.78637,
31171825,-2.1319761,0.12660089,8.879839,-0.36880758,-0.31467864,0.085149676,,,,47.0
31171830,-2.003818,-0.08420122,9.373307,-0.26867282,-0.24330598,0.19380654,13.722853,-5.076885,-48.390343,
31171835,-1.5714343,-0.26146662,9.996132,-0.13871068,-0.21188071,0.2902129,,,,
31171840,-0.68870044,-0.44112754,10.017692,0.02054622,-0.25608915,0.36424872,13.414173,-4.344509,-48.4065,
31171845,0.22158141,-0.6076133,9.408043,0.19844523,-0.3727355,0.40153295,,,,
31171850,1.0072984,-0.7154098,8.405534,0.3507779,-0.5133503,0.3972719,13.720032,-3.0131578,-48.414314,
31171855,1.6780324,-0.659116,7.394642,0.46848953,-0.6283988,0.36105293,,,,
31171860,2.2709131,-0.5405399,6.68079,0.55956954,-0.69870615,0.30086556,12.4910755,-3.9232388,-48.89863,
31171865,2.5092633,-0.32614458,5.994485,0.6426601,-0.71415246,0.22310129,,,,
31171870,2.4529696,-0.15606558,5.308181,0.7257507,-0.67207456,0.141076,12.340031,-5.844206,-49.03492,
31171875,2.1032298,0.090668716,4.5500116,0.8029823,-0.57353765,0.06863809,,,,81.0
31171880,1.5905974,0.31704146,3.8002272,0.86210436,-0.42919445,0.018570706,12.3393345,-5.834942,-48.415977,
31171885,0.9138746,0.49310914,3.1043406,0.90684545,-0.26088282,0.0020591207,,,,
31171890,0.23954748,0.64761746,2.3749173,0.91163915,-0.10855015,0.02229913,10.648237,-6.1647053,-49.073296,
31171895,-0.32578546,0.7985326,1.8407255,0.872757,0.020879366,0.07769282,,,,
31171900,-0.6671411,0.92788845,1.5712342,0.7992538,0.116220444,0.15971811,11.110586,-6.024189,-49.991997,
31171905,-0.686305,1.0440692,1.5712342,0.7023149,0.17853837,0.2513308,,,,
31171910,-0.23236178,1.0273008,1.5975844,0.5984517,0.19451731,0.34294346,10.957722,-7.486717,-49.050285,
31171915,0.5844964,0.6967248,1.3580365,0.4732832,0.1556352,0.41165295,,,,
31171920,1.5546651,0.31704143,1.18676,0.31296107,0.081599385,0.43828452,12.800835,-6.6961784,-47.31118,
31171925,2.328405,0.05234106,1.3532457,0.12813783,0.018748837,0.42230558,,,,102.0
31171930,2.796721,-0.043478087,2.0718892,-0.06520749,-0.0068174875,0.3706403,12.033825,-7.170925,-48.717644,
31171935,3.0638168,-0.11174922,3.124702,-0.2281928,0.01075936,0.3013982,,,,
31171940,3.177602,-0.28781685,4.4841356,-0.34164336,0.061359372,0.22736235,12.341999,-6.159872,-50.42408,
31171945,3.20515,-0.6171951,5.934598,-0.4023634,0.13273203,0.15918548,,,,
31171950,3.1237035,-0.9849011,7.492857,-0.39970025,0.2009089,0.09154126,10.95112,-3.7806444,-47.700478,
31171955,2.782348,-1.2280421,8.93733,-0.33418652,0.24671523,0.034549657,,,,
31171960,2.1858737,-1.3106861,10.239273,-0.2159423,0.2722816,4.612254E-4,11.262575,-5.4183216,-49.066658,
31171965,1.5810156,-1.2064829,11.295679,-0.058283284,0.28027105,-6.040381E-4,,,,
31171970,0.8539877,-0.719003,12.209554,0.12973572,0.27814052,0.030821238,12.028917,-5.079403,-46.884804,
31171975,0.21559273,0.22481552,13.1917,0.34119052,0.28186893,0.086214945,,,,138.0
31171980,0.28266612,0.9147133,14.084017,0.5947233,0.28240156,0.14427179,13.57049,-5.5330276,-49.16268,
31171985,0.69828165,0.85722184,14.413395,0.8743549,0.24351944,0.18262127,,,,
31171990,1.2779875,0.4499905,14.082819,1.1380076,0.17853837,0.1863497,10.804573,-8.366558,-48.579613,
31171995,1.9834558,-0.067432866,12.665893,1.3499951,0.14764573,0.14693496,,,,
31172000,2.4266195,-0.14049497,10.635725,1.4778267,0.17480993,0.077160195,13.108606,-5.3903065,-49.021065,
31172005,2.842235,-0.030302957,8.599567,1.4916751,0.22008364,-0.018713519,,,,
31172010,3.2195227,0.053538807,6.7251062,1.371833,0.23552996,-0.14175147,12.954992,-6.553383,-47.773293,
31172015,3.3919973,0.22960646,5.3501015,1.1236266,0.21315943,-0.28556204,,,,
31172020,3.3033643,0.42364025,4.5775595,0.7886012,0.1455152,-0.44162312,12.187275,-7.887104,-47.467415,
31172025,2.8841558,0.4895159,4.5128818,0.3976495,0.05763095,-0.5891621,,,,170.0
31172030,2.1463485,0.5206571,4.9967685,-0.009813792,-0.0073501193,-0.7031453,12.33852,-6.1135464,-47.329414,
31172035,1.2276824,0.5242503,5.855547,-0.37626442,0.0011719886,-0.7617348,,,,
31172040,0.4515473,0.35776457,7.014959,-0.6787993,0.086393066,-0.7606695,10.803236,-8.638212,-47.028862,
31172045,-0.09222629,0.005629234,8.521715,-0.9200815,0.18972364,-0.71433055,,,,
31172050,-0.6623502,-0.26266438,10.477623,-1.1118288,0.25257418,-0.6418927,13.569468,-6.532463,-46.98443,
31172055,-1.2169034,-0.34770384,12.760514,-1.2359321,0.26056367,-0.5556063,,,,
31172060,-1.6157506,-0.273444,15.248219,-1.2503132,0.24192154,-0.4645263,13.107178,-6.094925,-46.84623,
31172065,-1.7594793,-0.2890146,17.66286,-1.140591,0.21475732,-0.36385888,,,,
31172070,-1.7007902,-0.29141012,19.602001,-0.92114675,0.18173414,-0.2701157,12.9537735,-6.5371685,-46.690163,
31172075,-1.5738297,-0.17163616,20.765005,-0.617014,0.158831,-0.19874306,,,,193.0
31172080,-1.4851971,0.15534663,21.230927,-0.26121596,0.15403731,-0.15453462,12.950743,-5.194273,-45.62243,
31172085,-1.1941464,0.5649735,21.475266,0.10150625,0.11089413,-0.14175147,,,,
31172090,-0.7749377,0.9997528,20.895561,0.43759686,-0.03344908,-0.16785042,13.413303,-4.3329277,-47.632835,
31172095,-0.23116404,1.3518882,19.33131,0.6900643,-0.26301336,-0.2312336,,,,
31172100,0.15570574,1.6800687,17.157413,0.82641804,-0.51388294,-0.32124832,11.716566,-3.2850513,-44.90142,
31172105,0.4108242,2.0741248,14.941597,0.8434623,-0.75729567,-0.4208505,,,,
31172110,0.62162626,2.4813561,13.025215,0.7465233,-0.9895231,-0.5177895,13.2588825,-4.9063683,-46.39193,
31172115,0.62162626,2.9269152,11.336403,0.543058,-1.18926,-0.60833687,,,,
31172120,0.44316316,3.2826438,9.999725,0.27461156,-1.3027105,-0.6663937,12.796686,-4.0358667,-46.8778,
31172125,0.1700786,3.4539204,8.997217,-0.02792327,-1.2782094,-0.67704636,,,,207.0
31172130,-0.18924317,3.5605192,8.537285,-0.32832757,-1.1146915,-0.6386969,13.260099,-4.9225826,-47.47506,
31172135,-0.66354793,3.7150278,8.512133,-0.6063614,-0.84517986,-0.5508126,,,,
31172140,-1.0599996,3.8851066,8.987636,-0.8535025,-0.5234703,-0.42617682,12.023434,-2.6907454,-44.900673,
31172145,-1.3594344,4.0503945,10.026075,-1.0521742,-0.21401124,-0.27757254,,,,
31172150,-1.3785982,4.1450157,11.425035,-1.1938542,0.036325682,-0.1289683,11.257631,-4.0499477,-46.296867,
31172155,-1.1366549,4.1845417,12.965328,-1.2572374,0.20144153,-0.004865092,,,,
31172160,-0.73900545,4.151005,14.401417,-1.2465847,0.2829342,0.08674757,12.025539,-3.7318745,-45.50762,
31172165,-0.26829398,4.0396147,15.589575,-1.1640269,0.30530474,0.14906548,,,,
31172170,0.26949096,4.021649,16.520218,-1.0047699,0.29625,0.18688233,11.404564,-1.4953318,-43.2275,
31172175,1.0108916,4.016858,17.02327,-0.784793,0.2696184,0.19487181,,,,
31172180,1.8864391,3.9737391,16.971766,-0.52060765,0.22487733,0.16184865,12.018929,-0.89404297,-43.064415,
31172185,2.777557,3.7856941,16.07825,-0.26600966,0.16468994,0.07982336,,,,
31172190,3.438709,3.4515252,14.651745,-0.06520749,0.08106675,-0.042681947,10.942022,-0.62019825,-43.403908,
31172195,3.6974208,3.1556835,13.063542,0.056232546,-0.018535387,-0.18915568,,,,
31172200,3.7249687,2.8730168,11.46456,0.098310456,-0.13358384,-0.3372273,10.786051,0.5636873,-42.95719,
31172205,3.824381,2.5292659,9.865578,0.07647255,-0.23531651,-0.4746463,,,,
31172210,4.065127,2.1316164,8.557648,8.388441E-4,-0.29550388,-0.5934232,11.401451,0.28284168,-42.629112,
31172215,4.2615557,1.6788709,7.605444,-0.1088833,-0.2992323,-0.7132653,,,,
31172220,4.2052617,1.2812216,7.1143713,-0.22499701,-0.2555565,-0.8400317,13.708441,0.46990108,-42.264366,
31172225,3.7632964,1.0560465,7.115569,-0.32779494,-0.1714007,-0.9689286,,,,229.0
31172230,2.9164948,1.012928,7.4066195,-0.3975697,-0.059548035,-1.0797161,12.478249,0.58936787,-42.915398,
31172235,1.836134,1.118329,7.8461905,-0.41780972,0.0650878,-1.1494908,,,,
31172240,0.6839087,1.1171312,8.201919,-0.39650446,0.19398469,-1.176655,11.2428,2.8049908,-41.42414,
31172245,-0.3030284,0.98537993,8.494167,-0.33951285,0.31862053,-1.1782529,,,,
31172250,-1.2025306,0.7626004,8.463026,-0.25269386,0.43846267,-1.1596109,11.243963,3.0789628,-42.820168,
31172255,-2.0193887,0.5841373,8.289354,-0.15309173,0.54658693,-1.1185981,,,,
31172260,-2.8230717,0.44999048,8.04262,-0.05775065,0.62648165,-1.055215,10.931089,4.8802624,-40.37258,
31172265,-3.4686532,0.227211,7.685693,0.025339905,0.6627006,-0.96946114,,,,
31172270,-3.94176,-0.051862247,7.4760885,0.094049394,0.64831954,-0.8719896,12.778614,3.4411354,-39.845665,
31172275,-4.3022795,-0.37285638,7.4964504,0.15530205,0.5721532,-0.76546323,,,,206.0
31172280,-4.453195,-0.71900296,7.4952526,0.22401156,0.41609216,-0.6525453,12.009838,3.134645,-39.861237,
31172285,-4.5597935,-0.9274096,7.0520887,0.2820684,0.2025068,-0.5332358,,,,
31172290,-4.593331,-1.0579633,6.365784,0.30976525,-0.022796439,-0.4112631,12.010708,3.1230636,-40.634903,
31172295,-4.447206,-1.0220311,5.770508,0.3118958,-0.21134809,-0.28609467,,,,
31172300,-4.1106415,-0.9537599,5.3369265,0.30124313,-0.3327881,-0.1657199,13.393473,4.18057,-40.30323,
31172305,-3.589625,-0.7908674,5.2099657,0.29431894,-0.38711655,-0.058128268,,,,
31172310,-2.909309,-0.5908449,5.1237288,0.30497158,-0.3711376,0.029223341,12.928907,5.6615553,-39.40335,
31172315,-2.2553434,-0.37285638,4.9835935,0.33799475,-0.28538388,0.09793283,,,,
31172320,-1.7498975,-0.08779442,4.7248816,0.38326845,-0.13518174,0.1495981,12.1616955,5.3342175,-40.811516,
31172325,-1.2420559,0.05473654,4.329628,0.4280095,0.051772002,0.1863497,,,,171.0
31172330,-0.9162709,0.05353879,4.2146444,0.44345585,0.20570257,0.20818761,12.929365,5.0765514,-39.08703,
31172335,-0.78092635,0.09426194,4.346396,0.42534634,0.28346685,0.22256866,,,,
31172340,-0.7150507,0.14097378,4.6937404,0.3992474,0.2866626,0.23109077,12.161074,4.039964,-38.629845,
31172345,-0.7737399,0.12660089,5.215955,,,,,,,
31172350,-0.9833443,0.16971952,5.7729034,0.38539895,0.25044367,0.24547184,12.1594715,6.0874767,-39.736954,
31172355,-1.1426436,0.09785516,6.250801,0.39605162,0.20623522,0.27050555,,,,
31172360,-1.2863723,0.10025063,6.658033,0.43014005,0.17960362,0.31098554,12.469231,6.0643506,-41.586143,
31172365,-1.4887903,0.24397935,6.895185,0.47275057,0.1774731,0.3605203,,,,
31172370,-1.6301235,0.34339172,7.032925,0.5164264,0.2009089,0.41964242,12.005672,6.80829,-40.677704,
31172375,-1.7942138,0.44519955,7.0592756,0.56010216,0.25630262,0.4894172,,,,144.0
31172380,-1.8373324,0.54940283,6.95627,0.5973864,0.33459947,0.57517093,12.005672,6.80829,-40.677704,
31172385,-1.7355247,0.64043105,6.8412867,0.6117675,0.42621213,0.67477304,,,,
31172390,-1.5846095,0.8009281,6.952677,0.60431063,0.52474904,0.77757096,15.238792,5.2311845,-40.888557,
31172395,-1.4324965,0.9865777,7.4437494,0.5707548,0.6184922,0.87664044,,,,
31172400,-1.4768128,1.3650633,8.451048,0.52707905,0.70158273,0.95919836,14.465263,5.2774186,-37.039215,
31172405,-1.6576715,1.8824866,9.89193,0.49618638,0.7500522,1.0108637,,,,
31172410,-1.7966093,2.2729495,11.516064,0.5095022,0.7409975,1.03643,15.698826,5.6919966,-40.108627,
31172415,-1.8660781,2.4118872,12.812017,0.57767904,0.64831954,1.0492132,,,,
31172420,-1.7618748,2.4609947,13.609712,0.6943254,0.4826711,1.050811,15.388617,7.168367,-39.669144,
31172425,-1.3678186,2.417876,13.905553,0.8434623,0.28240156,1.0337667,,,,121.0
31172430,-0.8432088,2.0214243,13.778593,1.0181655,0.075740434,0.98103625,14.773659,7.8775434,-40.930763,
31172435,-0.5042486,1.4752553,13.094684,1.1747593,-0.16447648,0.88835835,,,,
31172440,-0.54018074,1.0524533,11.955633,1.2621108,-0.4382492,0.76212466,15.083574,6.11562,-40.747887,
31172445,-0.9162709,0.8164987,10.633329,1.2477298,-0.69231457,0.6337604,,,,
31172450,-1.6552761,0.86440825,9.723047,1.1252245,-0.8760725,0.53042984,15.8532295,4.5289564,-39.162727,
31172455,-2.606281,1.3554814,9.580517,0.9127044,-0.9490431,0.4792972,,,,
31172460,-3.3908002,2.082509,10.350662,0.6682264,-0.8915189,0.4979393,13.7002945,5.9333024,-41.70878,
31172465,-3.8782802,2.8622375,11.633442,0.45038003,-0.7285335,0.57250774,,,,
31172470,-4.011229,3.3904402,12.875498,0.29431894,-0.50749135,0.6742404,15.392601,5.3786116,-41.041206,
31172475,-3.6590939,3.5102143,13.730683,0.21761997,-0.27100283,0.7765057,,,,88.0
31172480,-3.0027328,3.2179656,14.154682,0.20270628,-0.04356908,0.8675857,16.776722,5.694441,-41.01043,
31172485,-2.2230043,2.845469,14.269666,0.2149568,0.13432993,0.93682784,,,,
31172490,-1.3330841,2.587955,14.208581,0.22560944,0.23925838,0.96825314,16.004677,6.155107,-39.023026,
31172495,-0.4096272,2.372362,13.935496,0.22560944,0.2579005,0.9522742,,,,
31172500,0.38447392,2.074125,13.613304,0.20696734,0.20144153,0.88942367,14.776588,5.233445,-40.28102,
31172505,1.1318634,1.6549163,13.127023,0.16062838,0.09491518,0.78396255,,,,
31172510,1.7439079,0.95543647,12.4550905,0.086592555,-0.041971184,0.6449456,15.855299,5.514494,-42.26937,
31172515,2.0265744,0.32662335,11.732854,-0.023129584,-0.17299859,0.486754,,,,
31172520,1.9882467,-0.081805736,11.265736,-0.17652753,-0.28005758,0.32217082,14.626156,3.73849,-41.50556,
31172525,1.7103714,-0.22912768,11.065714,-0.37786233,-0.3626155,0.1645118,,,,30.0
31172530,1.3402698,-0.3860315,11.278911,-0.60316557,-0.42067236,0.036147553,16.004831,7.166124,-40.427612,
31172535,0.83721936,-0.73936456,11.894548,-0.8327299,-0.43079233,-0.052269317,,,,
31172540,0.29584125,-1.1394095,12.906639,-1.0479131,-0.40203023,-0.10872829,16.624191,5.2406144,-41.62803,
31172545,-0.18804543,-1.3274544,13.706728,-1.2178227,-0.33332077,-0.12950093,,,,
31172550,-0.7330168,-1.4975336,14.609823,-1.3190227,-0.22359861,-0.10499987,15.240686,6.2190385,-43.84046,
31172555,-1.3678186,-1.5083132,15.825529,-1.3429911,-0.0808533,-0.034159835,,,,
31172560,-1.7606771,-1.4616014,16.838818,-1.2875974,0.06828359,0.07769282,16.468006,5.7036695,-40.08963,
31172565,-1.8109821,-1.3705732,17.508352,-1.1698858,0.19664784,0.2183076,,,,
31172570,-1.4061463,-1.3837483,17.793415,-1.003172,0.29092368,0.3557266,17.69888,6.5882707,-41.307365,
31172575,-0.68870044,-1.4903471,17.389778,-0.8013046,0.34418684,0.46917716,,,,15.0
31172580,0.10180748,-1.5502341,16.562138,-0.6063614,0.35697,0.5474741,16.31364,7.589857,-41.97248,
31172585,0.8072759,-1.555025,15.423088,-0.44231078,0.34205633,0.5900846,,,,
31172590,1.5307105,-1.5370588,14.281643,-0.31660968,0.3148921,0.60126984,16.770927,8.810878,-39.653786,
31172595,2.208631,-1.4460307,13.16535,-0.2164749,0.29039103,0.589552,,,,
31172600,3.0099182,-1.3466184,12.019114,-0.13711278,0.27281418,0.5496046,16.005783,6.719264,-40.73194,
31172605,3.8375561,-1.269963,10.7387295,-0.083316974,0.25204158,0.48249295,,,,
31172610,4.5861435,-1.1394095,9.313421,-0.062011704,0.23126891,0.3807603,17.54301,9.0733595,-42.578148,
31172615,4.95864,-0.9825056,8.065376,-0.075860135,0.21369207,0.24973288,,,,
31172620,4.937081,-0.7261895,7.09401,-0.12166646,0.1977131,0.10112862,17.080162,8.794701,-41.03878,
31172625,4.5921316,-0.42435914,6.527479,-0.18877806,0.17694046,-0.048540894,,,,13.0
31172630,4.007635,-0.16564749,6.18253,-0.26600966,0.15137415,-0.18116622,18.162731,6.1298842,-42.838173,
31172635,3.315342,0.01640889,5.968135,-0.32779494,0.12314466,-0.2834315,,,,
31172640,2.5883143,0.06910942,5.842372,-0.37519917,0.097045705,-0.3505431,19.848091,9.285899,-40.511322,
31172645,1.7654673,0.12180994,5.6124063,-0.40768972,0.085327804,-0.38356626,,,,
31172650,0.9701684,0.1637308,5.4435253,-0.4257992,0.11195939,-0.37664205,16.772549,8.4998455,-40.73349,
31172655,0.3042254,0.18648785,5.4830503,-0.4279297,0.16788574,-0.3308357,,,,
31172660,-0.06587602,0.11941446,5.5513215,-0.40982026,0.24085627,-0.2536041,16.46534,8.778414,-41.51818,
31172665,-0.34135604,0.009222433,5.618395,-0.3757318,0.31968582,-0.16199148,,,,
31172670,-0.48867798,-0.09737633,5.678282,-0.3187402,0.39318898,-0.064519845,18.156723,8.52549,-40.38983,
31172675,-0.5054463,-0.28422365,5.730983,-0.24576965,0.4469848,0.03561492,,,,11.0
31172680,-0.45035034,-0.45789585,5.7178073,-0.17120121,0.45497426,0.13148864,18.001652,9.552702,-40.56034,
31172685,-0.43837294,-0.49742126,5.729785,-0.10195909,0.423549,0.21670972,,,,
31172690,-0.46711868,-0.31416717,5.710621,-0.035380114,0.36389425,0.29766977,19.232426,9.136101,-40.060616,
31172695,-0.5258079,-0.09138766,5.618395,0.03972096,0.29625,0.3791624,,,,
31172700,-0.47550288,0.18529013,5.426757,0.12068099,0.23393206,0.46704665,19.69381,8.855235,-39.581596,
31172705,0.023954421,0.4044764,5.158463,0.20004313,0.18279941,0.5623877,,,,
31172710,0.935434,0.38411483,4.6949377,0.26662207,0.13113414,0.6406846,22.155907,7.8699903,-38.889877,
31172715,2.0217834,0.31344822,4.091277,0.31935263,0.07360991,0.6822299,,,,
31172720,2.9344609,0.22361778,3.2564535,0.34438634,0.02247726,0.6731751,20.158726,7.3696184,-40.79094,
31172725,3.4746413,0.27871376,2.596499,0.3321358,-0.006284856,0.6247056,,,,10.0
31172730,3.746528,0.50867975,2.0383525,0.29378632,-0.014274333,0.5517351,18.619644,7.5006304,-40.366447,
31172735,3.7896466,0.7769733,2.0072112,0.22773996,-0.011611174,0.47769928,,,,
31172740,3.6303473,0.90632915,2.330601,0.14784521,-0.01640486,0.40206558,20.930077,6.918217,-42.1594,
31172745,3.3620539,0.9362726,2.9977417,0.07593992,-0.03344908,0.33069292,,,,
31172750,2.9919524,0.9362726,3.8696961,0.030133592,-0.056884877,0.26571184,20.160007,7.931459,-42.654594,
31172755,2.6374216,0.77577555,4.6290627,0.026405169,-0.08724488,0.2215034,,,,
31172760,2.3331957,0.6116853,5.3105764,0.05090623,-0.1245291,0.18901287,20.931194,5.600801,-41.525063,
31172765,1.9547101,0.5565893,5.9130387,0.08552729,-0.17779228,0.1661097,,,,
31172770,1.7091736,0.42483795,6.370575,0.11322414,-0.25182807,0.14853285,22.621578,6.953163,-41.49868,
31172775,1.6289251,-0.015930079,6.799366,0.12867045,-0.3327881,0.13841285,,,,
31172780,1.8193656,-0.76811033,7.089219,0.1292031,-0.4025629,0.130956,20.775265,7.5078354,-42.015312,
31172785,2.0517268,-1.5466409,7.235343,0.10150625,-0.43771657,0.12882547,,,,
31172790,2.4218283,-2.0724485,7.4892635,0.05197149,-0.40522602,0.12136863,22.009197,5.022874,-41.801094,
31172795,2.882958,-2.2341433,8.203116,-0.005552737,-0.31095022,0.116042316,,,,
31172800,3.2794096,-2.3060076,9.348154,-0.04816328,-0.16554174,0.10538967,20.93013,6.6280317,-41.84652,
31172805,3.589624,-2.4317703,10.811792,-0.060413808,-0.0030890657,0.07183388,,,,
31172810,3.550099,-2.3946404,12.524559,-0.026325373,0.15510257,0.023897022,21.088589,5.1215315,-44.146584,
31172815,2.625444,-1.3633868,14.446931,0.082864136,0.3111637,-0.02883352,,,,
31172820,1.2348688,0.5182617,16.67233,0.31029788,0.47947532,-0.060791425,21.086273,5.4418287,-42.44796,
31172825,0.33297116,2.0070515,18.683334,0.6708896,0.6030459,-0.05919353,,,,
31172830,0.57491446,2.0262153,19.739742,1.1300182,0.58866477,-0.044812474,19.70123,5.4277663,-42.017952,
31172835,1.3115242,1.095572,19.023493,1.5955384,0.38839528,-0.057063006,,,,
31172840,1.601377,0.6524085,16.872353,1.992349,0.056565687,-0.12843567,20.473118,3.9560838,-42.60076,
31172845,1.6636593,0.67995644,13.961846,2.2533383,-0.33704916,-0.24028833,,,,
31172850,1.7498968,0.6607926,11.050142,2.3103302,-0.7956452,-0.36279362,23.397411,2.9685774,-42.516594,
31172855,1.4253093,0.9278885,8.179161,2.141486,-1.3133632,-0.4900926,,,,
31172860,0.9797504,1.6740801,5.5046096,1.7547952,-1.7719591,-0.6072716,21.707752,1.4618578,-43.00547,
31172865,1.2300777,1.8884754,3.8445435,1.2013909,-2.0531886,-0.68556845,,,,
31172870,2.0996366,1.2692442,3.5223517,0.55584115,-2.1144412,-0.7212548,24.321133,1.0917463,-40.76947,
31172875,3.0051274,0.31105274,4.373944,-0.10515488,-1.9541192,-0.7510822,,,,
31172880,3.4494886,-0.4926303,6.1489935,-0.7022351,-1.5866033,-0.78570324,21.092667,1.014924,-42.706062,
31172885,3.341692,-1.049579,8.670235,-1.175212,-1.0406557,-0.80807376,,,,
31172890,2.6134667,-1.3406296,11.799927,-1.4953238,-0.40043232,-0.7915622,21.246738,1.5929976,-43.637505,
31172895,1.6337159,-1.4328556,15.098501,-1.6561786,0.22700787,-0.72551584,,,,
31172900,0.6994794,-1.2711608,18.188667,-1.6604396,0.75963956,-0.6125979,20.477097,2.1663284,-43.972816,
31172905,0.111389376,-1.1070704,20.685955,-1.5208901,1.1404713,-0.46718943,,,,
31172910,-0.08264437,-0.8830933,22.449028,-1.2705531,1.3386103,-0.3185852,20.015621,2.0142317,-43.827766,
31172915,0.13055322,-0.6519296,23.28984,-0.95630044,1.3487303,-0.1912862,,,,
31172920,0.57850766,-0.4555004,23.166473,-0.62447083,1.200126,-0.10446724,22.628983,2.6574535,-42.84162,
31172925,1.3115242,-0.19798642,22.084915,-0.30276126,0.9386039,-0.05653037,,,,
31172930,2.0613089,0.1421715,20.27034,-0.031119063,0.63287324,-0.06558512,20.93826,2.1779642,-43.651955,
31172935,2.7667773,0.6775609,18.304848,0.1627589,0.3282079,-0.12417461,,,,
31172940,3.4267316,1.2321143,16.471111,0.26715472,0.036325682,-0.22590727,22.322262,2.205925,-43.153557,
31172945,3.83037,1.6920462,14.763134,0.29059052,-0.24064282,-0.3590652,,,,
31172950,3.9357708,2.1819215,13.247993,0.24425156,-0.49470818,-0.51406103,21.705593,2.793171,-42.711403,
31172955,3.7800646,2.610712,11.912515,0.14518204,-0.6976409,-0.6706548,,,,
31172960,3.3896017,3.1496947,10.816584,0.0066977935,-0.8148199,-0.8203243,22.016521,1.1624432,-43.613365,
31172965,2.9596133,3.4539204,10.07638,-0.14936331,-0.8265378,-0.9375033,,,,
31172970,2.6517944,3.608429,9.592494,-0.3086202,-0.7487735,-1.0168655,21.401558,1.0033798,-43.781593,
31172975,2.2361789,3.5401578,9.191252,-0.45988762,-0.60496294,-1.0749223,,,,
31172980,1.6852188,3.4682934,8.691794,-0.60689396,-0.40948707,-1.1143371,22.476944,2.3417702,-44.079872,
31172985,1.0049028,3.4048133,8.336065,-0.75230247,-0.17832492,-1.126055,,,,
31172990,0.4359767,3.276655,8.019863,-0.90090674,0.0634899,-1.1148697,22.018494,0.84677887,-45.002556,
31172995,0.14492607,3.0742369,7.529987,-1.0516415,0.2744121,-1.0887707,,,,
31173000,-0.14492682,2.8418756,7.05688,-1.2140943,0.45018056,-1.0616065,22.479156,0.72027016,-44.061028,
31173005,-0.4707119,2.6777854,6.9826202,-1.3903953,0.5902627,-1.0424317,,,,
31173010,-0.91507316,2.5112998,7.4617157,-1.5549785,0.6760164,-1.0291159,22.786774,1.0151253,-44.366325,
31173015,-1.3666208,2.3987122,8.201919,-1.6817448,0.7031807,-1.0179307,,,,
31173020,-1.802598,2.1998875,8.93733,-1.7440628,0.6850712,-1.0008864,22.78239,3.099699,-42.997704,
31173025,-2.2505524,2.0298085,9.964991,-1.7483238,0.61582905,-0.9737223,,,,
31173030,-2.7967215,2.036995,10.995047,-1.7131702,0.46988794,-0.94176435,24.168293,2.2339401,-43.107964,
31173035,-3.2686307,2.1915033,11.882571,-1.6332754,0.28399947,-0.895958,,,,
31173040,-3.413557,2.247797,12.807226,-1.4798775,0.098110974,-0.8224548,23.397633,4.5576487,-44.701683,
31173045,-3.1572409,2.1388028,13.3665695,-1.262031,-0.09470173,-0.7244506,,,,
31173050,-2.666168,2.0477748,13.243202,-0.9989109,-0.29017755,-0.6307074,22.781391,4.7049847,-44.099663,
31173055,-2.055321,1.9854922,12.68865,-0.7272688,-0.4584892,-0.55028003,,,,
31173060,-1.1378527,1.8429613,11.623859,-0.4779971,-0.58099455,-0.4900926,22.780437,5.1518445,-43.79534,
31173065,-0.0622828,1.6956394,10.288381,-0.2697381,-0.64331245,-0.46292838,,,,
31173070,0.8875244,1.4824418,8.704969,-0.10994857,-0.61668086,-0.46825472,22.785225,2.7724528,-45.160545,
31173075,1.6097612,1.3015832,6.9850154,-0.0071506323,-0.4872513,-0.5087347,,,,
31173080,1.8732638,1.200973,5.677084,0.038123067,-0.26993757,-0.57478106,22.012451,5.26905,-45.053917,
31173085,1.757083,1.2345097,4.7955484,0.034927275,-0.013209068,-0.647219,,,,
31173090,1.2540326,1.2488825,4.427842,-0.0076832646,0.24085627,-0.7063411,22.321133,4.536674,-45.037758,
31173095,0.5928806,1.2740351,4.451797,-0.05881591,0.46615952,-0.7462885,,,,
31173100,-0.18325447,1.2704419,4.6614017,-0.103556976,0.64725435,-0.75853896,21.24725,3.4676218,-46.444954,
31173105,-0.7581693,1.3147583,4.924904,-0.13018857,0.7884017,-0.74256,,,,
31173110,-1.2468469,1.3099673,5.111751,-0.13231911,0.90078706,-0.6983516,22.322594,3.2146254,-44.712883,
31173115,-1.7714567,1.3243402,5.491435,-0.109415926,0.9748228,-0.63656634,,,,
31173120,-2.1283832,1.2728374,5.8507566,-0.057218015,1.0046502,-0.56785685,22.322594,3.2146254,-44.712883,
31173125,-2.3523602,1.145877,6.1022816,0.020013588,0.9849428,-0.49648422,,,,
31173130,-2.3978744,0.9218998,6.224451,0.102038875,0.916766,-0.42617682,23.550434,5.4421215,-44.862892,14.0
31173135,-2.40027,0.6524084,6.3921347,0.19098838,0.7846733,-0.362261,,,,
31173140,-2.2924733,0.38052163,6.390937,0.27780735,0.5700227,-0.31272623,23.093552,3.9262834,-47.17817,
31173145,-2.201445,0.14456698,6.0795245,0.34438634,0.32181633,-0.27277887,,,,
31173150,-2.2050383,0.11701898,5.4782596,0.38539895,0.09384992,-0.24082097,23.556442,3.046516,-47.31124,
31173155,-2.2134225,0.19726752,5.025514,0.4029758,-0.08511435,-0.21099359,,,,
31173160,-2.2936711,0.36974198,4.7440453,0.3944537,-0.2150765,-0.184362,23.558666,2.2932568,-48.38581,
31173165,-2.4158404,0.5278436,4.54043,0.3811379,-0.267807,-0.15293673,,,,
31173170,-2.6362243,0.727866,4.5691757,0.37687686,-0.2502302,-0.10979356,21.558762,1.5397596,-47.498238,
31173175,-2.945241,0.870397,5.063842,0.39498633,-0.1714007,-0.055465106,,,,
31173180,-3.3021674,1.108747,5.860338,0.44878215,-0.05795014,0.010048597,23.560566,1.3995371,-48.99447,22.0
31173185,-3.617173,1.1698318,6.7011514,0.5542432,0.07946886,0.100595996,,,,
31173190,-3.869896,0.98777544,7.4581223,0.7017822,0.22008364,0.21564445,22.171051,3.037086,-46.57177,
31173195,-3.933376,0.5637757,8.02106,0.87648547,0.34205633,0.34081292,,,,
31173200,-3.8183932,0.091866456,8.389964,1.0538518,0.42461425,0.46544874,23.407154,0.0890522,-47.744987,
31173205,-3.6028,-0.24469826,8.431885,1.2120434,0.4603006,0.56824666,,,,
31173210,-3.3836138,-0.4195682,8.268991,1.335614,0.47468162,0.65772885,22.024597,-0.24762535,-49.168373,
31173215,-3.235094,-0.59803134,7.757557,1.4155087,0.48853004,0.7338952,,,,
31173220,-3.1464615,-0.63276577,7.0544844,1.4304225,0.5135637,0.7994089,23.10191,-0.81628704,-48.825462,
31173225,-3.0039306,-0.51299185,6.4520216,1.367572,0.54445636,0.8579984,,,,
31173230,-2.8206763,-0.24709377,6.2328353,1.2503929,0.54445636,0.90327203,22.48544,-0.37644863,-48.3816,35.0
31173235,-2.748812,0.025990792,6.473581,1.0858097,0.4890627,0.9272405,,,,
31173240,-2.9009247,0.5326345,7.0389137,0.9121718,0.3985153,0.94002366,22.49104,-2.4772358,-50.83335,
31173245,-3.0997496,1.288408,8.001896,0.76729596,0.29944578,0.95120895,,,,
31173250,-2.8518176,1.6656959,8.875048,0.658639,0.17161416,0.94854575,23.10419,-1.8597307,-49.587135,
31173255,-2.3284056,1.4501028,9.357737,0.543058,-0.0068174875,0.9144574,,,,
31173260,-1.935547,1.0009506,9.378099,0.37687686,-0.20282598,0.8542699,22.492699,-4.8149347,-49.413353,
31173265,-1.8397279,0.6560017,9.45116,0.16968311,-0.3626155,0.79354995,,,,
31173270,-1.9199765,0.4859227,9.973375,-0.045500122,-0.43239024,0.75040674,20.799736,-3.527831,-50.398964,
31173275,-1.9666882,0.30745953,10.974686,-0.2313886,-0.40682393,0.7264383,,,,
31173280,-2.1822815,0.28110927,12.296989,-0.362416,-0.27526388,0.7051331,21.723518,-4.8266077,-49.43235,52.0
31173285,-2.744021,0.8045213,13.943881,-0.39863497,-0.03185118,0.6822299,,,,
31173290,-3.4902124,1.5650858,15.699766,-0.33951285,0.2642921,0.6678488,21.260784,-2.9358234,-50.70388,
31173295,-3.9872742,2.059752,17.26162,-0.20742017,0.51516163,0.6635878,,,,
31173300,-4.207659,1.9339895,18.316826,-0.043902226,0.64672166,0.67477304,22.80091,-5.8305473,-48.62011,
31173305,-4.177715,1.4920237,18.312035,0.11855046,0.67015743,0.6902194,,,,
31173310,-4.129805,1.1530635,17.604172,0.2501105,0.625949,0.6939478,21.723152,-3.8086424,-50.37275,
31173315,-4.0327883,1.2860125,16.828037,0.3374621,0.5119658,0.6955457,,,,
31173320,-3.8842688,1.641741,15.865055,0.3790074,0.31862053,0.69767624,21.726246,-4.5734835,-52.220985,
31173325,-3.5417151,1.9507577,14.8122425,0.3678221,0.060826745,0.6896867,,,,
31173330,-2.6769476,1.7076168,13.633666,0.29325366,-0.24756704,0.664653,21.724564,-4.8405056,-50.360756,98.0
31173335,-1.6085641,1.1111425,12.362865,0.15157363,-0.59537554,0.6103246,,,,
31173340,-0.6204293,0.5266458,11.090866,-0.06414223,-0.9330641,0.5187119,22.493046,-4.8195677,-49.722816,
31173345,0.19523114,0.21283813,10.141058,-0.33898023,-1.2100326,0.40526137,,,,
31173350,0.95340014,-0.015930064,9.839228,-0.63831925,-1.3943232,0.28062552,20.185223,-4.2718983,-50.250862,
31173355,1.5031624,-0.40519536,9.993736,-0.94777834,-1.4758159,0.1527939,,,,
31173360,1.6109589,-0.9417825,10.615364,-1.2401931,-1.4534453,0.036680184,20.189316,-6.642025,-50.99714,
31173365,1.3270948,-1.458008,11.693329,-1.4814754,-1.3229506,-0.058660895,,,,
31173370,0.7629595,-1.8376914,13.122231,-1.6439279,-1.0976473,-0.10872829,20.954468,-3.68217,-51.012383,
31173375,0.07425947,-2.0077703,14.698456,-1.7168986,-0.81854826,-0.115119874,,,,
31173380,-0.73900545,-2.1646743,16.172873,-1.6993217,-0.52719873,-0.074107215,19.108124,-2.9824047,-51.685463,139.0
31173385,-1.3594344,-2.2736685,17.258026,-1.6023827,-0.24756704,0.013244387,,,,
31173390,-1.6636603,-2.447341,17.895222,-1.4436585,-0.0052195922,0.12296653,19.262592,-3.5673914,-51.52009,
31173395,-1.6480896,-2.5551376,18.134771,-1.2433889,0.18066889,0.2417434,,,,
31173400,-1.3642254,-2.6054425,17.891628,-1.0287384,0.2978479,0.35412872,18.648727,-3.1622982,-53.39721,
31173405,-0.78332186,-2.6497588,17.26521,-0.8279362,0.34205633,0.43988243,,,,
31173410,0.06587531,-2.6820977,16.239948,-0.64258033,0.33459947,0.4979393,18.0322,-2.4322748,-53.266243,
31173415,0.9989141,-2.6078382,14.927224,-0.48545393,0.30157632,0.5176467,,,,
31173420,2.0852637,-2.4617138,13.498322,-0.36348128,0.25044367,0.5006024,19.722202,-1.7984276,-51.99343,
31173425,3.278212,-2.3395443,11.9005375,-0.291576,0.1907889,0.44680667,,,,
31173430,4.37055,-2.1694653,10.2428665,-0.26547703,0.14498256,0.34613922,18.800045,-2.692256,-51.696495,189.0
31173435,5.1598606,-1.9850135,8.894212,-0.27240124,0.11994887,0.20445918,,,,
31173440,5.5275664,-1.7334881,7.9791393,-0.30648968,0.102904655,0.039343346,17.87706,-2.8513575,-51.562843,
31173445,5.498821,-1.4316578,7.3239756,-0.3459044,0.091186754,-0.12204409,,,,
31173450,5.1394987,-1.0579631,6.8879986,-0.3773297,0.09598044,-0.26478937,17.105873,-0.52069855,-52.69236,
31173455,4.490324,-0.7034324,6.661626,-0.39490655,0.1002415,-0.37770733,,,,
31173460,3.7597032,-0.39681116,6.4077053,,,,18.027752,-0.92575645,-51.11709,
31173465,2.9907546,-0.15965877,5.934598,-0.3975697,0.1002415,-0.4512105,,,,
31173470,2.3571506,0.05713202,5.444723,-0.39117813,0.09598044,-0.48955998,18.18203,-0.49509144,-52.046837,
31173475,1.8013995,0.20684943,4.9596386,-0.3906455,0.091186754,-0.4884947,,,,
31173480,1.4372867,0.25595674,4.5260563,-0.40289602,0.097045705,-0.4613305,18.182377,-0.4997244,-52.356316,210.0
31173485,1.1091062,0.22361778,4.110441,-0.42100552,0.11994887,-0.41925257,,,,
31173490,0.84919673,0.16732404,3.7211761,-0.44710445,0.15936361,-0.36811996,18.180096,0.5437193,-51.594627,
31173495,0.57371676,0.08108681,3.4169507,-0.47746447,0.21742049,-0.3052694,,,,
31173500,0.33656436,0.13498506,3.3941934,-0.51421607,0.29571736,-0.23709254,18.179398,0.5529852,-50.975685,
31173505,0.17606732,0.1936743,3.5498996,-0.54723924,0.38679737,-0.17211147,,,,
31173510,0.09342329,0.18888333,3.8385549,-0.5637508,0.47201848,-0.11085881,17.721382,-1.381917,-51.738503,
31173515,-0.009582281,0.15893985,4.4326334,-0.5600224,0.5428584,-0.057063006,,,,
31173520,-0.1413336,0.12899637,5.2375145,-0.52753186,0.58653426,-0.014985095,18.028446,-0.9350214,-51.73603,
31173525,-0.23355952,0.08468002,6.026824,-0.45562658,0.5918606,0.018570706,,,,
31173530,-0.2060115,-0.0015572086,6.5777845,-0.33951285,0.5497827,0.048398085,17.410595,0.39158726,-51.147697,233.0
31173535,-0.021559678,-0.23391862,6.8293095,-0.18132122,0.46189848,0.07183388,,,,
31173540,0.17367181,-0.38483378,6.8221235,-0.0050201053,0.32288158,0.09313914,17.562492,0.5644932,-49.598274,
31173545,0.3341689,-0.5465286,6.473581,0.16435678,0.13006888,0.103259146,,,,
31173550,0.49227047,-0.66510475,5.7321806,0.3071021,-0.12346384,0.101661265,18.024532,1.4327888,-51.144493,
31173555,0.5569484,-0.71421206,4.819503,0.40031266,-0.4084218,0.093671784,,,,
31173560,0.68750197,-0.6986414,3.9140122,0.43173793,-0.67899877,0.08301915,18.179348,0.8431711,-51.28858,
31173565,0.71385217,-0.7561329,3.2324986,0.4077695,-0.88565993,0.077160195,,,,
31173570,0.80128723,-0.921421,2.8731768,0.33320105,-1.0097631,0.07662757,17.409378,0.40780067,-50.064583,
31173575,0.9569933,-1.1358163,2.8671882,0.21282628,-1.0369272,0.085149676,,,,
31173580,1.0983264,-1.3921325,3.2444758,0.07380939,-0.960761,0.101661265,17.104656,-0.50448513,-51.609245,
31173585,1.1618068,-1.692765,3.8146,-0.07000118,-0.79724306,0.123499155,,,,
31173590,1.2348688,-2.0820303,4.5739665,-0.19783281,-0.5575587,0.14853285,16.640202,0.3961277,-50.08358,
31173595,1.5067556,-2.7946854,5.665107,-0.30968547,-0.2640786,0.17516443,,,,
31173600,1.6684504,-3.641487,7.198213,-0.3970371,0.04218463,0.2012634,16.027647,-1.5318432,-50.23124,
31173605,1.583411,-4.3457575,9.079861,-0.4545613,0.30583736,0.21937287,,,,
31173610,1.3690155,-4.7074747,11.23699,-0.46894237,0.49705216,0.23375392,15.257185,0.6444559,-51.82325,
31173615,1.2025299,-4.8595877,13.386932,-0.4172771,0.6099701,0.25985292,,,,
31173620,1.0049028,-4.8631806,15.293733,-0.2899781,0.6355364,0.29607186,17.409515,-0.3176632,-49.282356,
31173625,0.28745705,-3.943317,16.701077,-0.09343698,0.5748164,0.3440087,,,,
31173630,-0.6324067,-1.9802225,17.68442,0.17554206,0.46775743,0.41005507,17.104713,-0.7946701,-51.29635,184.0
31173635,-0.39645207,-0.47945517,18.115606,0.5132306,0.34951317,0.5006024,,,,
31173640,1.1486316,-0.7489465,17.478409,0.8695612,0.17054889,0.59967196,18.025665,-0.8979616,-49.260307,
31173645,2.95602,-1.5526295,15.443451,1.173694,-0.114409104,0.65240246,,,,
31173650,4.389714,-1.6855786,12.689848,1.3755614,-0.3983018,0.61778146,17.412354,-0.6449089,-51.445183,
31173655,5.5048094,-1.4388443,10.099137,1.4740983,-0.5570261,0.5006024,,,,
31173660,6.2126737,-1.2400196,7.8054667,1.4405425,-0.60975665,0.3269645,16.794514,-1.1998739,-48.51362,
31173665,6.239023,-0.9777148,6.6448574,1.2264246,-0.6177461,0.10592231,,,,
31173670,5.689261,-0.45190722,6.1609707,0.84452754,-0.5969735,-0.1577304,16.333378,-1.3566027,-48.678032,
31173675,4.6220756,0.21882682,6.5694,0.37208316,-0.5415798,-0.42244837,,,,
31173680,3.657895,0.23918837,7.9324274,-0.10994857,-0.4584892,-0.6434906,15.105089,-2.1308556,-49.93772,155.0
31173685,2.8158846,-0.6483364,9.865579,-0.540315,-0.34876707,-0.81180215,,,,
31173690,2.0086083,-1.8329005,12.083792,-0.8614919,-0.19643438,-0.9087412,14.797646,-2.4280272,-49.787178,
31173695,1.1917503,-2.7431824,14.37866,-1.0500436,-0.017470121,-0.93430746,,,,
31173700,0.20481306,-3.0006962,16.595676,-1.1102309,0.15616783,-0.9050127,17.565662,-1.5038652,-49.88378,
31173705,-0.64318633,-2.965962,18.498882,-1.0559026,0.30157632,-0.82565063,,,,
31173710,-1.168994,-2.8042672,19.884666,-0.90410256,0.4038416,-0.7047432,15.102058,-0.7879591,-48.870003,
31173715,-1.2564288,-2.5383692,20.824892,-0.6862561,0.43846267,-0.5710527,,,,
31173720,-0.9450166,-2.413804,20.9794,-0.43219075,0.40011317,-0.44907996,18.486023,-0.29668808,-48.94628,
31173725,-0.346147,-2.2652845,20.520668,-0.17492963,0.2813363,-0.35107574,,,,
31173730,0.29703897,-2.0772393,19.435514,0.04930833,0.11195939,-0.29621464,15.407972,0.2532053,-48.564934,128.0
31173735,0.7773324,-1.6843808,17.937141,0.22454418,-0.05475435,-0.28502938,,,,
31173740,1.1977389,-1.2484038,16.352535,0.34491894,-0.18365122,-0.3042041,15.87067,0.38908768,-49.7931,
31173745,1.4396822,-0.87830234,14.71762,0.40244317,-0.28165546,-0.34255362,,,,
31173750,1.6169477,-0.5848562,13.047972,0.3843337,-0.36953968,-0.38995785,14.639799,-0.49551296,-48.57537,
31173755,1.6361115,-0.35848352,11.58673,0.28952524,-0.44197762,-0.43896,,,,
31173760,1.5343037,-0.23631412,10.379409,0.12707256,-0.50536084,-0.4815705,15.71472,0.5596409,-48.096535,
31173765,1.1630044,-0.06383965,9.555365,-0.09503487,-0.5501019,-0.5066042,,,,
31173770,0.49466592,0.46316564,9.416426,-0.3352518,-0.54584086,-0.5028758,16.94455,1.4581404,-48.385887,
31173775,0.10779616,1.026103,9.86438,-0.5477719,-0.48991448,-0.46505892,,,,
31173780,-0.05629412,1.2991877,10.533916,-0.70489824,-0.4084218,-0.40220836,14.478401,2.7868452,-45.83161,98.0
31173785,-0.13294943,1.4728599,10.983068,-0.80929404,-0.31680915,-0.3457494,,,,
31173790,-0.101808205,1.6549163,11.266933,-0.86095935,-0.2150765,-0.3004757,15.559502,1.4440775,-47.95588,
31173795,0.07425946,1.7531309,11.332809,-0.8636225,-0.10695226,-0.25946307,,,,
31173800,0.30542314,1.8034359,11.349577,-0.83645827,-0.021731175,-0.23602729,14.479427,3.7862806,-48.00988,
31173805,0.5305981,1.8225996,11.229803,-0.79118454,0.015553045,-0.23709254,,,,
31173810,0.6192308,1.81182,10.820176,-0.74271506,-0.0052195922,-0.25893044,14.02092,2.5814734,-49.245445,
31173815,0.6407901,1.7986449,10.372223,-0.7038329,-0.053689085,-0.2967473,,,,
31173820,0.6455811,1.8357749,9.724245,-0.6761361,-0.10695226,-0.34148836,13.095505,3.3230414,-48.038933,
31173825,0.5377846,1.8884754,9.023567,-0.66495085,-0.1628786,-0.38835993,,,,
31173830,0.39764908,1.8776958,8.283365,-0.6740056,-0.20708704,-0.43150312,12.938475,5.5341597,-47.91369,48.0
31173835,0.28625932,1.793854,7.6425743,-0.71874666,-0.23265335,-0.46079788,,,,
31173840,0.17606731,1.6848598,7.156292,-0.7757383,-0.23052283,-0.48210314,14.013506,6.008943,-46.80909,
31173845,0.039525017,1.5435264,7.078439,-0.84764355,-0.19377124,-0.49435365,,,,
31173850,0.01437249,1.3938091,7.153897,-0.90303725,-0.13145332,-0.5002126,14.013506,6.008943,-46.80909,
31173855,-0.045514464,1.1686339,7.340744,-0.9307341,-0.0590154,-0.50553894,,,,
31173860,-0.24314144,0.9614252,7.606642,-0.93392986,0.015020414,-0.51033264,14.474236,6.46049,-46.64808,
31173865,-0.4311865,0.85362864,7.916857,-0.91635305,0.08000149,-0.51459366,,,,
31173870,-0.62522024,0.75780946,8.28097,-0.8732099,0.13273203,-0.5156589,13.551651,6.006572,-46.511024,
31173875,-0.7952993,0.6955271,8.5588455,-0.8034351,0.1641573,-0.5177895,,,,
31173880,-0.89351386,0.60928977,8.813963,-0.7176814,0.1625594,-0.5167242,12.167015,6.5659313,-47.170998,16.0
31173885,-0.9462144,0.60449886,8.800789,-0.6186119,0.11568782,-0.5108653,,,,
31173890,-0.9953217,0.60809207,8.899002,-0.51954234,0.028336208,-0.49382102,13.242056,7.908955,-47.159813,
31173895,-0.966576,0.6068944,9.0547085,-0.42207077,-0.092038564,-0.46399367,,,,
31173900,-0.6994801,0.53742546,9.242754,-0.31501177,-0.22413124,-0.43150312,12.318251,7.471251,-45.939598,
31173905,-0.50065535,0.33500752,9.327793,-0.18718018,-0.3391797,-0.40327364,,,,
31173910,-0.3880679,0.2152336,9.355341,-0.03751064,-0.41428077,-0.372381,12.166475,7.5862136,-47.956657,
31173915,-0.3976498,0.21283811,9.287071,0.13559467,-0.43345553,-0.32657465,,,,
31173920,-0.37249726,0.18888333,9.131365,0.31722212,-0.40575865,-0.26745254,11.701094,8.788594,-45.970207,
31173925,-0.2814691,0.17930141,8.852291,0.5052411,-0.34716916,-0.204602,,,,
31173930,-0.101808205,0.22840874,8.401941,0.6836727,-0.27526388,-0.15027358,11.85783,6.2919235,-45.473106,
31173935,0.049106956,0.22242004,7.8988905,0.8338749,-0.20548913,-0.110326186,,,,
31173940,0.17606731,0.27152735,7.2796593,0.95531493,-0.13784489,-0.083161965,11.087992,7.012663,-45.810127,
31173945,0.26829326,0.36255553,6.661626,1.0437318,-0.06380908,-0.06984617,,,,
31173950,0.23715201,0.567369,6.098688,1.1017888,0.021411996,-0.06931354,11.243889,7.132295,-47.819572,
31173955,0.10779615,0.6787587,5.7501464,1.143334,0.10929624,-0.07730301,,,,
31173960,-0.03832802,0.7039112,5.451909,1.1646392,0.19291942,-0.08795565,10.938898,5.789363,-48.585426,
31173965,-0.17606804,0.6104875,5.1836157,1.1673024,0.26642263,-0.09541249,,,,
31173970,-0.4275933,0.5410187,5.122531,1.1641066,0.32554474,-0.101271436,12.9399395,4.2121105,-47.588814,
31173975,-0.6731298,0.5685667,5.333333,1.137475,0.35590473,-0.099673554,,,,
31173980,-0.87554777,0.5278436,5.495028,1.1076475,0.34791526,-0.08955355,10.629139,5.8124895,-46.73623,
31173985,-0.9701692,0.3529736,5.6291747,1.0879403,0.3159574,-0.06345458,,,,
31173990,-1.0827568,0.16971952,5.768112,1.0645044,0.27068368,-0.024572466,11.091682,4.9373546,-46.559822,
31173995,-1.2516378,-0.030302942,5.839977,1.0325465,0.23020364,0.026027549,,,,
31174000,-1.5007677,-0.24948922,5.980112,0.99366444,0.22168154,0.09154126,10.7879925,3.1429305,-47.93949,
31174005,-1.73792,-0.42675468,6.4795694,0.95158654,0.2579005,0.17569707,,,,
31174010,-1.9247673,-0.47945514,7.0676594,0.9196286,0.32554474,0.27316868,12.172571,2.873756,-47.5924,
31174015,-2.0924509,-0.44831395,7.7204275,0.9084434,0.42301634,0.37596664,,,,
31174020,-2.2086315,-0.49981672,8.180359,0.91590023,0.5316732,0.4792972,11.093439,3.9008589,-46.857307,
31174025,-2.2134225,-0.73337585,8.502551,0.91856337,0.62222064,0.5757035,,,,
31174030,-2.3152304,-0.67468673,8.864268,0.90045387,0.6840059,0.6609246,12.174887,2.5534582,-49.29104,
31174035,-2.5020776,-0.360879,9.524223,0.8695612,0.7340733,0.73709095,,,,
31174040,-2.381106,0.0319795,10.499184,0.86263704,0.7804122,0.8026046,13.2523365,1.2593336,-48.165886,
31174045,-2.027773,0.0080247,11.550797,0.89352965,0.79745644,0.8468131,,,,
31174050,-1.7834342,-0.14887913,12.348492,0.95318437,0.7447259,0.8542699,11.712795,1.9753494,-48.057716,
31174055,-1.4432762,-0.12252888,12.826389,1.0192307,0.62914485,0.8356278,,,,
31174060,-0.8108699,-0.27823496,13.325848,1.076755,0.43633214,0.79088676,13.406509,0.3887949,-47.37815,
31174065,0.107796185,-0.8435679,13.4060955,1.0804834,0.11994887,0.7088615,,,,
31174070,0.6755246,-1.4280646,13.003655,1.0016539,-0.29497126,0.5906172,13.098434,0.67894363,-47.389183,
31174075,0.797694,-1.6173074,12.594028,0.848256,-0.67473775,0.46544874,,,,
31174080,0.58210087,-1.3609912,12.407181,0.66662854,-0.89364934,0.36105293,11.101257,0.1785717,-49.29023,15.0
31174085,-0.052700892,-0.88788426,12.562887,0.5148285,-0.87021357,0.29127818,,,,
31174090,-1.089943,-0.16684523,13.237214,0.42534634,-0.60815877,0.26997292,10.794088,-1.5695267,-47.575233,
31174095,-2.2122247,0.7853575,14.136717,0.39285582,-0.20761965,0.29074553,,,,
31174100,-2.9955463,1.3818316,15.013462,0.4162916,0.23180154,0.3424108,12.332771,-1.4057207,-48.00315,
31174105,-3.505783,1.315956,15.254207,0.47221795,0.6227532,0.41538137,,,,
31174110,-3.6555004,0.78176427,14.94519,0.5052411,0.89119965,0.48302558,11.409243,-0.54453945,-48.65516,
31174115,-3.608789,0.2308042,14.535563,0.48926216,1.0366081,0.5314951,,,,
31174120,-3.3692408,-0.15606558,14.073236,0.42694426,1.0648376,0.57250774,12.019964,0.97363377,-46.336082,
31174125,-2.8841565,-0.42435917,13.92232,0.33586425,0.97056174,0.5954109,,,,
31174130,-2.234982,-0.608811,13.778593,0.23359893,0.7548459,0.58795404,13.409019,-0.94715214,-47.98168,
31174135,-1.8672757,-0.5561105,13.70553,0.12121362,0.44272375,0.5453435,,,,
31174140,-1.4983722,-0.46029136,13.783384,0.0066977935,0.057098318,0.49048245,11.871693,-1.8526363,-47.854683,
31174145,-1.0192764,-0.5393421,13.760626,-0.105687514,-0.36421338,0.44148034,,,,
31174150,-0.37129954,-0.7561329,13.826502,-0.22393176,-0.76954615,0.39034766,13.408058,-1.3685322,-46.583946,
31174155,0.18684696,-0.8052403,13.992988,-0.34004545,-1.1306705,0.32589924,,,,
31174160,0.56892574,-0.6950482,14.027721,-0.4407129,-1.4049759,0.24973288,11.870182,-2.121975,-46.149178,
31174165,0.76894826,-0.4974212,14.050479,-0.51208556,-1.5487864,0.18049075,,,,
31174170,0.81566006,-0.41837046,13.916332,-0.5632182,-1.5514497,0.13681494,12.484062,-0.7905865,-46.458855,
31174175,0.7713437,-0.4890371,13.627677,-0.60210025,-1.4401295,0.12190126,,,,
31174180,0.75098217,-0.62917256,13.243202,-0.6313951,-1.235599,0.13255389,9.409044,-1.5835896,-47.145226,14.0
31174185,0.70906126,-0.7249917,12.91622,-0.6617551,-0.96715254,0.16664234,,,,
31174190,0.7893098,-0.86991817,12.626368,-0.69158244,-0.6752703,0.21937287,12.024157,-0.09528923,-48.799812,
31174195,0.99172765,-0.9549576,12.428741,-0.7230077,-0.3945734,0.27902764,,,,
31174200,1.3965635,-1.0292175,12.342503,-0.7507046,-0.1596828,0.32589924,10.176897,-0.97533226,-46.66886,
31174205,1.8025972,-1.1621666,12.152063,-0.7773362,0.01075936,0.34880242,,,,
31174210,2.2074332,-1.3550025,12.041871,-0.7954456,0.12793835,0.3402803,10.791515,-0.811635,-46.191185,
31174215,2.482913,-1.4687878,11.877781,-0.79171723,0.19877838,0.30992028,,,,
31174220,2.625444,-1.4687877,11.728064,-0.77360773,0.22700787,0.25985292,10.9464245,-0.96829224,-46.959343,
31174225,2.6062803,-1.3681777,11.5172615,-0.73845404,0.21422468,0.20286128,,,,
31174230,2.5499866,-1.2004942,11.342391,-0.6862561,0.17694046,0.14800021,10.791216,0.7843847,-47.912086,
31174235,2.5763369,-1.0507768,11.034573,-0.6223403,0.1369931,0.09207389,,,,
31174240,2.6146646,-0.89626837,10.598595,-0.54617393,0.10610044,0.029755972,11.253813,-0.38093472,-47.422783,
31174245,2.539207,-0.65073186,10.105126,-0.46521395,0.093317285,-0.037355628,,,,
31174250,2.3451731,-0.36806542,9.632019,-0.37466654,0.10450255,-0.099673554,9.865389,0.95253086,-45.61561,
31174255,2.0661,-0.094980866,9.095432,-0.27293387,0.13805835,-0.1524041,,,,
31174260,1.7331283,0.2032562,8.558845,-0.16161384,0.17374468,-0.19501464,10.943806,0.94802666,-46.98159,
31174265,1.4720211,0.39010352,7.9324274,-0.058283284,0.18865837,-0.22430938,,,,
31174270,1.2420552,0.35057813,7.167072,0.022144115,0.16948363,-0.24188623,12.48138,0.54767513,-45.7006,
31174275,1.0528125,0.23200195,6.3382363,0.077005185,0.12527518,-0.25094098,,,,
31174280,0.8072759,0.11342577,5.576474,0.10470204,0.06295727,-0.24721254,11.710012,2.0124092,-45.581993,20.0
31174285,0.56413484,0.05832977,4.9608364,0.10843045,-9.585385E-4,-0.23336412,,,,
31174290,0.35093722,0.053538807,4.4973106,0.10097361,-0.054221716,-0.20353675,12.175236,-0.20098877,-46.16384,
31174295,0.17127635,-0.006348163,4.158351,0.09617993,-0.08777752,-0.15986095,,,,
31174300,0.01796572,-0.03509392,3.9906676,0.09511466,-0.09310383,-0.106065124,12.3293915,-0.058192253,-46.625954,
31174305,-0.12456525,-0.090189904,3.832566,0.10150625,-0.07765751,-0.044812474,,,,
31174310,-0.2694917,-0.06383966,3.8026228,0.12121362,-0.044634346,0.030821238,12.789949,0.39566994,-46.310234,
31174315,-0.33297187,0.13139185,3.9116168,0.151041,-0.0014911703,0.11817284,,,,
31174320,-0.13654265,0.28350472,3.887662,0.19045575,0.036325682,0.20605709,12.325253,0.72054577,-43.84931,
31174325,0.29344577,0.38770807,3.5582838,0.23785998,0.07041412,0.27636448,,,,
31174330,1.0276599,0.3218324,3.074397,0.27887264,0.101839386,0.3157792,10.330494,-1.5487347,-45.72982,36.0
31174335,1.8193655,0.085877754,2.761787,0.29378632,0.09651307,0.3200403,,,,
31174340,2.4421897,-0.2051729,2.7450187,0.28473157,0.036858313,0.2918108,12.331663,-1.9698782,-46.294243,
31174345,2.827862,-0.38124058,2.7498097,0.2602305,-0.05475435,0.23535182,,,,
31174350,2.8769693,-0.39920664,2.8240695,0.23732734,-0.1410407,0.16664234,11.252844,-1.6705561,-44.93165,
31174355,2.776359,-0.35129705,3.0145102,0.21548945,-0.19749966,0.10538967,,,,
31174360,2.4397945,-0.43873203,3.1558433,0.19844523,-0.21933755,0.061181244,11.098108,-1.5162153,-44.31823,
31174365,2.027772,-0.56449467,3.3247247,0.17500943,-0.20442387,0.033484396,,,,
31174370,1.596586,-0.7273872,3.5031877,0.13825783,-0.16181332,0.02283176,10.791185,-1.8203363,-44.631874,
31174375,1.2624168,-0.92022324,3.887662,0.09138624,-0.103756465,0.03295176,,,,
31174380,1.018078,-1.2543924,4.336814,0.0386557,-0.044634346,0.06490967,10.792789,-3.8678493,-43.524773,62.0
31174385,1.0204735,-1.7646294,4.8171077,-0.028455904,0.0070309383,0.10752021,,,,
31174390,1.1079085,-2.285646,5.517785,-0.115274884,0.048043583,0.14906548,10.792305,-3.1377525,-43.997536,
31174395,1.2324734,-2.6293972,6.5694,-0.19783281,0.083729915,0.19167602,,,,
31174400,1.5450833,-3.0953178,7.764744,-0.25855282,0.12527518,0.23854761,9.871138,-3.755293,-44.94187,
31174405,2.037354,-3.8223453,9.1337595,-0.29104337,0.16841836,0.27902764,,,,
31174410,2.4912972,-4.586503,10.493195,-0.30063072,0.20410469,0.3067245,9.718273,-5.21782,-44.00016,
31174415,2.8075004,-5.221305,11.844244,-0.2969023,0.24778049,0.33601925,,,,
31174420,3.127297,-5.4764233,13.345011,-0.25908545,0.3010437,0.35146555,10.949747,-4.775448,-45.21276,
31174425,3.4195452,-5.5351124,14.791881,-0.16960332,0.37241635,0.35679188,,,,
31174430,3.603997,-5.4692364,15.999202,-0.030053796,0.4757469,0.35679188,8.946812,-4.1860495,-43.25747,98.0
31174435,3.2255116,-4.6487856,17.134659,0.15849784,0.6270143,0.36424872,,,,
31174440,2.1726987,-2.5323803,18.282093,0.42907476,0.83793646,0.38981506,9.870205,-4.321767,-43.387703,
31174445,1.6133544,-0.29859656,19.217527,0.78753597,1.0648376,0.43508875,,,,
31174450,2.4541674,0.4164538,19.550499,1.1891403,1.2240945,0.4638509,9.412302,-5.9687996,-44.618126,
31174455,3.9860759,-0.25667566,18.713278,1.5689068,1.2762923,0.41538137,,,,
31174460,5.1035666,-0.8998616,16.70467,1.8964752,1.2517914,0.26784235,9.102434,-5.365305,-43.394707,
31174465,5.7371707,-1.0843134,14.267269,2.1026034,1.1282208,0.041473873,,,,
31174470,5.632967,-0.78008777,11.8873625,2.1164522,0.81929433,-0.22377674,8.797443,-6.7082367,-44.16056,
31174475,4.5118833,0.31105274,9.484697,1.9108564,0.33673,-0.4980821,,,,
31174480,3.132088,1.5698768,7.664134,1.527894,-0.2267944,-0.7404296,8.491106,-9.191063,-42.282265,129.0
31174485,2.5463934,1.9291985,6.5370607,1.0224266,-0.7887209,-0.9295138,,,,
31174490,2.6841333,1.1889956,6.214869,0.4743485,-1.2531757,-1.0807812,9.106508,-9.471912,-41.95417,
31174495,3.1081328,-0.09737635,6.923931,-0.038043275,-1.5466559,-1.202754,,,,
31174500,3.0985513,-1.0723361,8.14802,-0.46681184,-1.6494539,-1.2948992,7.874628,-9.619467,-40.744987,
31174505,2.4781222,-1.3633866,9.964991,-0.7922498,-1.5700917,-1.3289876,,,,
31174510,1.5594561,-1.1861212,12.335317,-1.0026394,-1.352778,-1.2879751,6.8010273,-9.389631,-44.024406,
31174515,0.5844964,-0.90585035,14.700851,-1.0761425,-1.0209484,-1.1846445,,,,
31174520,-0.21679117,-0.57886755,16.89032,-1.0100962,-0.59537554,-1.0371054,8.028301,-8.746576,-41.679863,
31174525,-0.7893105,-0.25667566,18.640217,-0.8375236,-0.14796491,-0.8741201,,,,
31174530,-0.99891496,-0.081805736,19.767288,-0.59783924,0.24511732,-0.71220005,6.181772,-8.912735,-41.104805,153.0
31174535,-0.86357033,-0.15486783,20.071514,-0.3501655,0.5220858,-0.5689221,,,,
31174540,-0.60605645,-0.35369253,19.562477,-0.13977593,0.6674943,-0.45760205,6.488035,-7.8762016,-41.1092,
31174545,-0.20002283,-0.46987325,18.59111,0.015752533,0.7175617,-0.37823996,,,,
31174550,0.28625935,-0.35369253,17.55746,0.1292031,0.67761433,-0.33829257,5.71805,-7.2982407,-41.135048,
31174555,0.83602166,-0.16564749,16.406433,0.1931189,0.540728,-0.3468147,,,,
31174560,1.3750043,0.061922967,15.138027,0.20110838,0.30690265,-0.40007785,3.8697262,-7.1510487,-39.325546,
31174565,1.8541,0.16253307,13.91753,0.16169363,-0.0078827515,-0.4730484,,,,
31174570,2.2361789,0.1936743,12.843159,0.08020098,-0.35515866,-0.5721179,4.024746,-7.888075,-39.46792,
31174575,2.1451507,0.6308491,11.912515,-0.017270634,-0.66355246,-0.6839706,,,,
31174580,1.8025972,1.348295,11.156742,-0.106752776,-0.87074625,-0.7915622,3.4071026,-5.8406353,-39.971283,180.0
31174585,1.3977613,1.9244075,10.544697,-0.17226647,-0.9527715,-0.8890338,,,,
31174590,0.8599764,2.280136,9.798506,,,,3.4071026,-5.8406353,-39.971283,
31174595,0.16049668,2.5112996,9.082257,-0.2244644,-0.92347676,-0.97478753,,,,
31174600,-0.7258303,2.6921582,8.483387,-0.2782602,-0.81268936,-1.0307138,2.327732,-5.3892727,-38.300957,
31174605,-1.6720443,2.8346891,8.2354555,-0.3384476,-0.64810616,-1.0504212,,,,
31174610,-2.4948912,2.9496722,8.077354,-0.40023288,-0.46647868,-1.0264529,3.8617897,-3.71663,-36.424988,
31174615,-3.2159305,3.134124,7.9072747,-0.4428434,-0.2923081,-0.9620043,,,,
31174620,-3.8938508,3.4814684,7.494055,-0.47267076,-0.14903016,-0.85494536,1.4025555,-4.071965,-38.029694,
31174625,-4.139387,3.8491745,7.0988007,-0.51581395,-0.04836277,-0.7004822,,,,
31174630,-3.6782577,3.8946886,6.610123,-0.57919717,-0.0020238021,-0.5066042,1.3999271,-3.0238876,-36.95854,193.0
31174635,-2.6949136,3.6802933,6.110666,-0.67187506,-0.0078827515,-0.3004757,,,,
31174640,-1.4468694,3.4994345,5.8555474,-0.79384774,-0.04303645,-0.12204409,1.5502949,-2.106987,-34.953484,
31174645,0.033536315,3.3748696,5.8699203,-0.93392986,-0.08191856,0.0052549113,,,,
31174650,1.5977838,3.304203,6.065152,-1.0686857,-0.109615415,0.07875809,1.5502377,-1.816802,-35.266373,
31174655,3.1213083,3.0454915,6.243615,-1.1906585,-0.11867016,0.09154126,,,,
31174660,4.4651713,2.60113,6.5634117,-1.3025111,-0.10056067,0.042006504,2.1627636,0.25626373,-35.275146,
31174665,5.5431366,2.0477746,7.048496,-1.3818731,-0.041971184,-0.07091144,,,,
31174670,6.2521987,1.6261705,7.6629357,-1.4266143,0.0533699,-0.2296357,2.006546,2.745985,-36.236443,
31174675,6.3863454,1.288408,8.416313,-1.4266143,0.1673531,-0.41818732,,,,
31174680,5.9731255,1.0225098,9.416426,-1.3829385,0.28879315,-0.6237832,1.0811863,3.1973677,-34.71704,210.0
31174685,5.13351,0.86560607,10.610573,-1.28813,0.39052582,-0.8288464,,,,
31174690,3.9860754,0.75062305,11.614277,-1.1368625,0.46189848,-1.010474,2.0033607,3.0778642,-33.764145,
31174695,2.5955005,0.72906375,12.245486,-0.92540777,0.50397635,-1.1542845,,,,
31174700,1.160609,0.8536286,12.650322,-0.6590919,0.52794474,-1.2464298,2.6146412,5.312236,-32.846222,
31174705,-0.09701726,1.0189166,12.728176,-0.3538939,0.54392374,-1.2741265,,,,
31174710,-1.0983273,1.1362951,12.622774,-0.03324959,0.5455217,-1.2421687,1.8484898,3.9576674,-33.932938,
31174715,-1.8277504,1.0680239,12.27543,0.29911262,0.52102053,-1.1723939,,,,
31174720,-2.3367896,0.88117665,11.598707,0.634138,0.46296373,-1.0823791,2.7688503,5.164845,-32.995445,
31174725,-2.7787557,0.7194818,10.583025,0.9611739,0.3665574,-0.9822444,,,,
31174730,-3.0554333,0.65001297,9.210415,1.2610456,0.23020364,-0.8762507,3.072733,5.94362,-30.520676,184.0
31174735,-2.9967442,0.6883406,7.529987,1.5049909,0.05443516,-0.75853896,,,,
31174740,-2.7284503,0.7386457,5.524971,1.6738352,-0.16554174,-0.6477516,2.612379,5.3423476,-30.834686,
31174745,-2.454168,0.78176427,3.49121,1.7494689,-0.40895444,-0.5683895,,,,
31174750,-2.2864845,0.80691683,1.5580591,1.7153805,-0.6374535,-0.5167242,3.690487,6.0656233,-32.828186,
31174755,-2.2816937,0.89674723,0.12077196,1.5800921,-0.8015041,-0.48316842,,,,
31174760,-2.1810837,1.0237076,-0.4924705,1.371833,-0.8648873,-0.45227578,3.996399,7.1067886,-32.5231,
31174765,-1.9103945,1.0021483,-0.49726146,1.1310834,-0.83133143,-0.4245789,,,,
31174770,-1.6564738,0.8488376,-0.030143201,0.89406234,-0.71202195,-0.40487152,5.3817196,5.6699233,-31.388657,
31174775,-1.7666658,0.7386457,1.0358448,0.6879338,-0.53359026,-0.39688206,,,,
31174780,-2.0601118,0.6691768,2.3246121,0.5249485,-0.3311902,-0.39368626,5.5347347,7.2752275,-32.641556,158.0
31174785,-2.4338067,0.530239,3.5355268,0.3992474,-0.15116069,-0.38729468,,,,
31174790,-2.7727668,0.36854422,4.4817405,0.32148317,0.0017046201,-0.36385888,3.8428478,6.5217667,-32.055855,
31174795,-3.1728115,0.19127882,5.43035,0.29804736,0.13805835,-0.31698728,,,,
31174800,-3.855523,0.115821235,6.565807,0.32840738,0.27601,-0.2429515,3.8398151,7.864662,-30.988129,
31174805,-4.6807656,0.16133533,7.525196,0.41469374,0.44006056,-0.12790303,,,,
31174810,-5.283228,0.23679292,8.274981,0.5563738,0.63021004,0.029223341,5.6892548,6.4000564,-32.163284,
31174815,-5.510799,0.23799065,8.706167,0.7236201,0.8166312,0.22256866,,,,
31174820,-5.219748,0.01401341,8.612743,0.8780833,0.95564806,0.4324256,7.5340157,6.7344713,-31.34745,
31174825,-4.4400196,-0.3704609,8.274981,0.9904686,1.0318145,0.6321625,,,,
31174830,-3.5740542,-0.6950482,8.194733,1.0309486,1.0387386,0.79088676,6.304508,5.9764323,-31.524017,130.0
31174835,-2.894936,-0.57647204,8.533692,1.0266876,0.9849428,0.8952826,,,,
31174840,-2.4877048,0.051143333,9.202031,1.0085782,0.88640594,0.9474805,9.3809185,6.7509046,-32.075523,
31174845,-1.8888352,0.5314368,9.682324,1.004317,0.7292796,0.95333946,,,,
31174850,-1.0576041,0.4631656,9.7146635,0.98460966,0.48373637,0.9165878,7.689848,6.276048,-32.576378,
31174855,-0.55814683,0.49191135,9.531408,0.9095086,0.17427732,0.842552,,,,
31174860,-0.2970397,0.9314817,9.455952,0.78913385,-0.12719226,0.7386889,8.767359,5.5599775,-32.23175,
31174865,-0.046712197,1.4560915,9.618844,0.6501169,-0.36900705,0.61085725,,,,
31174870,0.3257847,1.3554814,9.700291,0.50098,-0.54797137,0.47184035,9.84153,6.9145827,-31.4469,
31174875,0.29584122,0.7673914,9.471522,0.3055042,-0.66301984,0.33229083,,,,
31174880,-0.46113,0.41286057,9.2715,0.04611254,-0.6715419,0.21617708,8.460491,4.965672,-32.232506,
31174885,-1.6564738,0.6104876,9.743409,-0.24204125,-0.52027446,0.15492442,,,,108.0
31174890,-2.784744,0.9374704,10.88725,-0.5014329,-0.21827228,0.16877286,9.535322,5.5878644,-31.129631,
31174895,-3.6602917,1.145877,12.590435,-0.70010453,0.15243942,0.23854761,,,,
31174900,-4.3202457,1.2788261,14.752356,-0.815153,0.5226185,0.32589924,8.613241,6.1403303,-32.706604,
31174905,-4.6472287,1.2153459,17.108307,-0.83592564,0.8256859,0.41112033,,,,
31174910,-4.7071157,0.9171088,19.09416,-0.75975925,1.0089113,0.4792972,9.383217,4.694127,-31.587349,
31174915,-4.6328554,0.40208092,20.590136,-0.6052961,1.0552503,0.5245709,,,,
31174920,-4.4100766,-0.22194122,21.379446,-0.3975697,0.9519197,0.55759406,12.306549,6.0350537,-33.542107,
31174925,-3.9824831,-0.6147997,21.235718,-0.15895067,0.7095722,0.57037723,,,,
31174930,-3.4087663,-0.7561329,20.12062,0.06422202,0.34418684,0.5623877,9.384956,4.6709642,-33.13468,
31174935,-2.7128797,-0.6531274,18.31443,0.23413154,-0.094169095,0.52829933,,,,76.0
31174940,-1.8421233,-0.5609014,16.36571,0.31988525,-0.552765,0.4643835,9.384701,5.108558,-33.449287,
31174945,-0.9450166,-0.49861902,14.342728,0.3087,-0.9820662,0.3717056,,,,
31174950,-0.33177412,-0.47705972,12.600018,0.20483682,-1.3144284,0.24440655,10.921165,6.893864,-33.896034,
31174955,-0.16409063,-0.5070032,11.1543455,0.037057802,-1.5056432,0.10112862,,,,
31174960,-0.3066216,-0.7022347,9.911093,-0.18398437,-1.561037,-0.025105096,10.003157,3.339723,-34.03248,
31174965,-0.7725422,-1.0783248,8.960087,-0.46042025,-1.5019149,-0.1055325,,,,
31174970,-1.3091294,-1.5119064,8.561241,-0.77627087,-1.3309401,-0.12843567,12.0014515,5.272493,-34.933746,
31174975,-1.9247674,-1.9646518,8.714552,-1.0995784,-1.0683526,-0.09701039,,,,
31174980,-2.4936936,-2.2509117,9.624832,-1.4021132,-0.7530346,-0.02936615,10.7722645,4.654915,-35.576225,
31174985,-3.0027328,-2.4796798,10.997442,-1.6487217,-0.4366513,0.080888614,,,,32.0
31174990,-3.3069582,-2.704855,12.615588,-1.8095765,-0.15329123,0.21617708,10.771257,5.39196,-35.584785,
31174995,-3.328518,-2.9180522,14.224152,-1.8750902,0.07520781,0.36531398,,,,
31175000,-3.3428907,-2.9959054,15.503338,-1.842067,0.2541721,0.51232034,10.157038,4.9334455,-36.059044,
31175005,-3.3500772,-2.8893065,16.214794,-1.7168986,0.40490687,0.660392,,,,
31175010,-3.1260998,-2.7431824,16.679516,-1.5192922,0.54445636,0.822312,9.538261,6.561821,-35.00994,
31175015,-2.4026654,-2.6928773,17.030455,-1.2833363,0.65311325,0.98636264,,,,
31175020,-1.2672085,-2.6773067,17.12867,-1.0090309,0.71649647,1.1211184,11.231382,6.2857347,-35.428925,
31175025,0.051502407,-2.7036572,16.607653,-0.6974414,0.75324804,1.2106005,,,,
31175030,1.4157275,-2.589872,15.590773,-0.36454654,0.7447259,1.2430911,10.310745,3.7796702,-34.494217,
31175035,2.7691727,-2.4689002,14.091204,-0.06520749,0.65524375,1.2063395,,,,14.0
31175040,4.1729236,-2.4689002,12.114933,0.15849784,0.4453869,1.1104658,11.079414,4.666533,-35.10443,
31175045,5.5143914,-2.529985,9.5960865,0.27780735,0.14072151,0.9602636,,,,
31175050,6.289328,-2.4581203,6.931117,0.28739473,-0.15009543,0.761592,13.387594,4.982472,-35.979256,
31175055,6.352809,-2.078437,4.7021246,0.20483682,-0.32905966,0.5421477,,,,
31175060,5.8341875,-1.5154996,3.3019676,0.05996097,-0.36687654,0.3317582,12.15613,5.4083385,-35.86006,
31175065,4.8544364,-0.90585035,2.7150753,-0.11154646,-0.29017755,0.15865284,,,,
31175070,3.7381437,-0.6100088,2.6875272,-0.28944546,-0.15595438,0.041473873,10.924873,6.555037,-36.832542,
31175075,2.565557,-0.57407653,2.735437,-0.45988762,0.005433042,-0.017648254,,,,
31175080,1.4145297,-0.5105964,2.7234592,-0.6223403,0.1859952,-0.024572466,12.470156,3.0127697,-38.61026,
31175085,0.26230454,-0.3980089,3.0097191,-0.7768035,0.3766774,0.015907547,,,,11.0
31175090,-0.64558184,-0.28781685,3.5822387,-0.92487514,0.54925007,0.09846547,11.237528,3.1646652,-37.09504,
31175095,-1.2815814,-0.17043844,4.43982,-1.0559026,0.68666905,0.21351391,,,,
31175100,-1.5702366,-0.26266438,5.4818525,-1.1528416,0.78627115,0.34454134,14.618935,6.1503096,-37.97409,
31175105,-1.6217394,-0.44831395,6.8017616,-1.1938542,0.850187,0.4782319,,,,
31175110,-1.6672535,-0.5992291,8.240246,-1.1762773,0.87735116,0.60446566,13.543684,4.086455,-36.893585,
31175115,-1.807389,-0.4495117,9.58411,-1.0883931,0.8720249,0.7248404,,,,
31175120,-1.6708467,-0.17403167,11.050142,-0.9280709,0.8363385,0.8521394,14.620234,5.6988173,-38.58789,
31175125,-0.9785533,-0.13450624,12.124515,-0.69477826,0.727149,0.9703837,,,,
31175130,0.12336677,-0.38124058,12.462277,-0.4156792,0.51569426,1.0476153,14.3153,4.0656996,-39.040848,
31175135,1.3606315,-0.59084487,11.974796,-0.13391699,0.23073627,1.0689204,,,,
31175140,2.5368114,-0.6794776,11.191476,0.123344146,-0.056884877,1.0300384,13.239336,3.0244427,-38.591263,
31175145,3.6159744,-0.6902572,10.266821,0.36089793,-0.30296072,0.94535,,,,
31175150,4.4232507,-0.72738713,9.257127,0.5696896,-0.48245764,0.8212468,14.159,4.2408853,-37.034836,
31175155,4.823296,-0.774099,8.035433,0.7326749,-0.58312505,0.6737078,,,,
31175160,4.719092,-0.8603362,6.6041346,0.8386686,-0.588984,0.52563614,12.930307,3.7614512,-38.29796,
31175165,4.3178496,-0.89267516,5.2207456,0.878616,-0.508024,0.40206558,,,,
31175170,3.829172,-0.78727406,4.3212433,0.83760333,-0.3626155,0.3083224,14.31497,3.0569987,-37.481537,
31175175,3.5848331,-0.8172176,4.072114,0.7417296,-0.18737966,0.2513308,,,,
31175180,3.383613,-0.9130367,4.3571754,0.629877,0.0064983065,0.22097076,12.469404,3.3122206,-38.304214,
31175185,3.1787996,-1.1789349,4.9788017,0.54465586,0.22327943,0.19913286,,,,10.0
31175190,2.868585,-1.527477,5.975322,0.49565375,0.44485426,0.1863497,12.932396,3.733656,-40.154755,
31175195,2.3236136,-1.8065503,7.217377,0.48287058,0.63287324,0.18528444,,,,
31175200,1.9211735,-2.074844,8.610348,0.5121653,0.76443326,0.20392655,15.855392,3.1976423,-39.456787,
31175205,1.7367215,-2.4772844,10.008109,0.587799,0.80917436,0.23375392,,,,
31175210,1.7211509,-2.964764,10.985465,0.70923907,0.76656383,0.2635813,13.547062,2.738926,-38.270775,
31175215,1.7882243,-3.463024,11.50169,0.8642349,0.6717554,0.2902129,,,,
31175220,2.011004,-3.8558822,11.566368,1.0250897,0.54925007,0.30992028,12.472782,1.9646921,-39.68141,
31175225,2.0900545,-4.012786,11.504086,1.1630414,0.41129845,0.32323608,,,,
31175230,2.2457607,-4.139746,11.4513855,1.2653066,0.26216158,0.33868238,15.089462,0.6823311,-39.291946,
31175235,2.446981,-4.2343674,11.472944,1.3207003,0.11408992,0.3669119,,,,
31175240,2.2325857,-3.6714303,11.404673,1.351593,-0.003621697,0.39034766,12.935408,0.65427876,-39.035667,
31175245,1.5486765,-1.862844,11.231001,1.3888772,-0.045699608,0.41697925,,,,
31175250,1.9115915,-0.2950033,10.893238,1.4304225,-0.014806964,0.45852455,13.091787,0.043815613,-40.572357,
31175255,3.539319,-0.6159974,10.020086,1.4378793,0.012889886,0.48249295,,,,
31175260,5.2472954,-1.407703,8.41871,1.3467994,0.02567305,0.426034,14.168283,-0.80345154,-39.14289,
31175265,6.0833173,-1.3226635,6.7921796,1.1731614,0.13539518,0.27157077,,,,
31175270,6.1671586,-0.8759069,5.945378,0.9574455,0.38093844,0.06863809,13.4018135,-2.29848,-39.763695,
31175275,5.2940073,-0.4243592,6.269965,0.694858,0.6627006,-0.15826304,,,,
31175280,3.4686525,0.337403,7.7575574,0.4077695,0.86936176,-0.38516417,13.70879,-2.284546,-39.13717,
31175285,1.7415125,1.0213121,9.908697,0.16701995,0.94393015,-0.5779769,,,,
31175290,0.69947934,0.92669076,12.007135,0.008828321,0.8555133,-0.7249832,14.169237,-1.25031,-39.44722,
31175295,0.055095643,0.123007685,13.374954,-0.092904344,0.5870669,-0.8485538,,,,
31175300,-0.4311865,-0.90585035,14.284039,-0.16054858,0.20357205,-0.9588086,16.475533,-1.0539837,-38.46354,
31175305,-1.003706,-1.6137142,15.018252,-0.19410437,-0.19590177,-1.0371054,,,,
31175310,-1.7019879,-1.7203131,15.675812,-0.17066857,-0.5362535,-1.0504212,14.166719,-0.7826042,-37.75029,
31175315,-2.274507,-1.352607,15.637484,-0.09556751,-0.77913356,-0.9955601,,,,
31175320,-2.6146653,-0.7908674,15.031427,-0.014607477,-0.88885564,-0.88530535,14.475498,-0.21377754,-39.451607,
31175325,-2.4302135,-0.22792993,13.967835,0.043449383,-0.857963,-0.7351032,,,,
31175330,-1.9223719,0.23200196,12.834774,0.053569388,-0.6992388,-0.5769116,14.324125,-0.3936329,-41.465218,
31175335,-1.2887678,0.45238596,12.258661,0.01202411,-0.44623867,-0.43736207,,,,
31175340,-0.51862144,0.28949344,11.959227,-0.050293807,-0.20868492,-0.33190098,14.324125,-0.3936329,-41.465218,
31175345,0.041920513,0.060725234,11.310052,-0.14829804,-0.08404909,-0.26905042,,,,
31175350,0.21439496,0.11701898,10.784245,-0.30276126,-0.072863825,-0.23229887,14.476305,-0.80341434,-39.444756,
31175355,0.19642888,0.19247656,10.566256,-0.5136834,-0.146367,-0.20566727,,,,
31175360,0.06707303,0.50748193,10.948336,-0.7491067,-0.2944386,-0.18169884,15.248177,-1.2617636,-41.277428,
31175365,-0.032339327,0.86321056,12.009531,-0.95843095,-0.49097976,-0.14547989,,,,
31175370,0.13055322,1.0476625,13.221643,-1.1022415,-0.6848577,-0.10446724,13.397373,0.076280594,-38.707962,
31175375,0.40244,1.1015606,14.256491,-1.1704184,-0.81748307,-0.07197669,,,,
31175380,0.5365868,1.591436,15.26858,-1.1539068,-0.8686157,-0.060791425,14.322908,-0.37741852,-40.382095,
31175385,0.7402025,2.1555712,15.801575,-1.059631,-0.83239675,-0.066650376,,,,12.0
31175390,1.1079085,2.348407,15.946501,-0.92487514,-0.726403,-0.094879866,13.710567,-1.5845604,-41.621468,
31175395,1.4624393,2.2561812,15.631495,-0.7773362,-0.58685344,-0.1422841,,,,
31175400,1.7103713,2.0669384,14.82901,-0.64524347,-0.43718395,-0.2077978,13.399862,-0.24633408,-40.561333,
31175405,1.5750268,1.9339895,13.842073,-0.54564136,-0.29124284,-0.2818336,,,,
31175410,1.2468462,1.9136279,12.852739,-0.4827908,-0.17512912,-0.35267362,14.479399,-1.5682554,-41.29299,
31175415,0.92944527,1.8860799,11.858617,-0.46095288,-0.10641962,-0.41978523,,,,
31175420,0.4994569,1.8321817,10.955522,-0.48651922,-0.0824512,-0.47837472,14.62755,0.9701462,-39.30677,
31175425,0.11737807,1.7100122,10.159025,-0.52912974,-0.06966803,-0.51832205,,,,
31175430,-0.22876856,1.6644981,9.646391,-0.57227296,-0.035579607,-0.54761684,12.785793,-0.5620718,-41.34678,
31175435,-0.5545536,1.6225773,9.463138,-0.58718663,0.0059656748,-0.5721179,,,,25.0
31175440,-0.9210619,1.5447242,8.957691,-0.5781319,0.018216206,-0.58330315,14.476524,0.7856579,-41.62986,
31175445,-1.4564512,1.4704643,8.028247,-0.58718663,0.015020414,-0.5753137,,,,
31175450,-2.152338,1.4992101,7.0029817,-0.63618875,0.014487783,-0.5305726,14.166819,0.51859856,-39.467766,
31175455,-2.8110943,1.7746902,6.375366,-0.7219424,0.021411996,-0.4426884,,,,
31175460,-3.1632297,2.0489726,6.329852,-0.80769616,0.048043583,-0.31432414,15.091494,0.9447212,-41.46163,
31175465,-3.0171056,2.165153,6.65923,-0.86308986,0.09544781,-0.16998094,,,,
31175470,-2.6134672,1.9639329,6.9945974,-0.8662856,0.16682047,-0.04001879,15.859777,1.1130695,-40.825417,
31175475,-2.1415582,1.6932437,7.0868235,-0.8279362,0.2696184,0.072366506,,,,
31175480,-1.63731,1.5770632,7.08323,-0.7709446,0.38786265,0.17143603,14.0166645,0.3225298,-42.56452,
31175485,-0.96058726,1.5171762,6.940699,-0.71182245,0.5013132,0.25612447,,,,58.0
31175490,-0.027548373,1.3842272,6.6508465,-0.6580267,0.6067743,0.31045294,15.7073765,-0.066223145,-40.66079,
31175495,0.8779425,1.2201369,6.3849483,-0.60955715,0.70158273,0.32163817,,,,
31175500,1.6409025,1.2033684,6.3861465,-0.5546961,0.7718901,0.28488657,14.321846,0.6498108,-40.703545,
31175505,2.0457382,1.2704419,6.5131063,-0.48545393,0.803848,0.21511182,,,,
31175510,2.2828908,1.2908034,6.7754107,-0.40023288,0.7798796,0.13042337,16.785797,-0.07072735,-42.026787,
31175515,2.3894894,1.0895833,6.8820105,-0.30915284,0.6973217,0.03721282,,,,
31175520,2.1726985,0.9877754,6.9574676,-0.21807282,0.57321846,-0.06345458,15.551216,2.1333141,-41.309196,
31175525,1.7858288,1.0464647,7.1083827,-0.11953593,0.42994058,-0.15293673,,,,
31175530,1.2181004,1.1901934,7.147908,-0.002889578,0.29891315,-0.21898307,16.783085,1.4126291,-41.42498,
31175535,0.6120444,1.2716396,7.079637,0.13346414,0.19345206,-0.25520203,,,,93.0
31175540,0.020361207,1.3039787,6.753852,0.26502421,0.113557294,-0.26159358,16.628475,1.8548384,-41.279182,
31175545,-0.594079,1.1937866,6.214869,0.37474635,0.043249894,-0.2397557,,,,
31175550,-1.0839545,0.9901709,5.4327455,0.44505373,-0.027590126,-0.19181885,16.935741,2.1543255,-41.275,
31175555,-1.4324965,0.7637982,4.626667,0.45836952,-0.09044067,-0.12843567,,,,
31175560,-1.7139652,0.6811542,4.1272097,0.4280095,-0.14370385,-0.058128268,18.16769,0.99836254,-40.921455,
31175565,-1.8421233,0.6847474,3.9367695,0.36675686,-0.1682049,0.02229913,,,,
31175570,-1.820564,0.5925214,4.2397976,0.3087,-0.14370385,0.10379179,15.705273,0.9749069,-40.05384,
31175575,-1.7247448,0.5218548,4.9632316,0.28739473,-0.069135405,0.17250128,,,,
31175580,-1.687615,0.4260357,6.065152,0.32840738,0.03952147,0.22789498,16.320683,1.5622997,-40.81916,
31175585,-1.622937,0.33860075,7.1479077,0.42002,0.12847099,0.25932026,,,,120.0
31175590,-1.6049709,0.27512056,7.9312296,0.5435906,0.16309205,0.27103817,18.784336,0.5562086,-41.520042,
31175595,-1.5846095,0.0930642,8.407929,0.6826075,0.1508415,0.27636448,,,,
31175600,-1.5582591,-0.031500682,8.652269,0.81789595,0.11408992,0.28009292,16.784908,0.95418835,-42.502983,
31175605,-1.6912081,0.021199845,8.770844,0.96490234,0.07787096,0.27583185,,,,
31175610,-1.8900329,0.2092449,8.890619,1.1241592,0.056033056,0.268375,18.016857,-0.20177555,-42.14942,
31175615,-2.0696938,0.31105274,8.775636,1.285014,0.058696214,0.27157077,,,,
31175620,-2.2553434,0.17930141,8.4270935,1.4314878,0.07946886,0.28275606,15.400455,-0.3703413,-40.974434,
31175625,-2.3643377,-0.15606555,7.934823,1.5396119,0.11994887,0.3083224,,,,
31175630,-2.5799308,-0.5285625,7.5479527,1.6088542,0.16628782,0.35093293,17.55872,-2.4245472,-42.444603,
31175635,-2.9272752,-0.9106412,7.494055,1.6493341,0.19664784,0.42443612,,,,144.0
31175640,-3.2614443,-1.0004717,7.6497607,1.6535952,0.18333206,0.5197772,18.47639,-0.74734783,-39.655434,
31175645,-3.5417154,-0.81721765,7.7934895,1.6258984,0.12101413,0.62630355,,,,
31175650,-3.9261894,-0.16684523,7.9264383,1.5800921,0.05390253,0.7349604,17.405663,-2.8714247,-42.598,
31175655,-4.0375795,0.7614027,8.056992,1.5246983,-0.019068018,0.8441499,,,,
31175660,-3.3536704,1.1051538,8.145625,1.442673,-0.13571437,0.93682784,19.251614,-2.4081316,-43.021736,
31175665,-2.040948,0.99256635,7.6066422,1.2919382,-0.2805902,0.98582995,,,,
31175670,-0.8132653,1.4033909,6.811343,1.0852771,-0.35515866,0.9741121,17.406548,-3.8963404,-42.12182,
31175675,0.8863267,1.471662,6.246011,0.85411495,-0.33332077,0.8936847,,,,
31175680,2.44219,0.7805665,5.678282,0.5755485,-0.25821966,0.7381562,19.096783,-3.5549936,-40.69084,
31175685,2.708088,0.50628424,5.3009944,0.22401156,-0.123996474,0.53469086,,,,159.0
31175690,2.0864615,0.7661936,5.534553,-0.15522225,0.07946886,0.33548662,18.94519,-4.455682,-41.61277,
31175695,0.9498069,1.0596397,6.6640215,-0.51954234,0.30370682,0.17836022,,,,
31175700,-0.68870044,1.3566792,8.712155,-0.8327299,0.47681215,0.07023598,17.40599,-4.6125383,-40.720657,
31175705,-2.4781227,1.57347,11.458572,-1.0505763,0.5737511,0.028158076,,,,
31175710,-3.9441557,1.4560914,14.406208,,,,18.174538,-4.013546,-40.863243,
31175715,-4.952652,1.1722273,17.091537,-1.1278079,0.61742693,0.056920193,,,,
31175720,-5.4389343,0.8284761,19.144464,-1.0628268,0.6003827,0.13148864,19.713963,-5.0174303,-40.50379,
31175725,-5.4616914,0.51586616,20.263153,-0.89664567,0.47841007,0.22203602,,,,
31175730,-5.1622567,0.40567416,20.496712,-0.6963761,0.23819312,0.31045294,20.943684,-3.53856,-41.418922,
31175735,-4.6220765,0.4296289,20.087086,-0.4966392,-0.059548035,0.39620662,,,,170.0
31175740,-3.6650825,0.33500752,19.257051,-0.30595705,-0.33385336,0.47343823,19.71558,-5.3284626,-41.583504,
31175745,-2.3188236,-0.1812181,18.088058,-0.1291233,-0.5447756,0.54800665,,,,
31175750,-0.56413555,-0.939387,16.722637,0.0013714756,-0.7040325,0.60819405,18.175407,-4.0251274,-41.63691,
31175755,1.2731965,-1.6197029,15.213484,0.049840964,-0.8371904,0.62790143,,,,
31175760,2.7452178,-1.7215108,14.173847,0.0040346347,-0.94851047,0.58635616,18.172169,-3.4030628,-39.477493,
31175765,3.7333531,-1.4783697,13.70553,-0.13338436,-1.0289379,0.47184035,,,,
31175770,4.5981207,-1.3562003,13.335429,-0.32406652,-1.0976473,0.3067245,20.328846,-4.423089,-40.80491,
31175775,5.3323345,-1.587364,12.911428,-0.55363077,-1.1557043,0.11657494,,,,
31175780,5.661713,-2.0724485,12.898254,-0.8034351,-1.1674222,-0.08742301,19.403042,-2.5184612,-40.69523,
31175785,5.449713,-2.6222107,13.293509,-1.0606962,-1.1109631,-0.295682,,,,
31175790,4.64603,-2.9503913,14.163067,-1.3003805,-0.9879252,-0.48423365,17.560131,-3.4564104,-42.432625,
31175795,3.3692403,-3.0929222,15.397936,-1.487867,-0.7951125,-0.6301748,,,,
31175800,1.8624842,-3.1456227,16.680716,-1.5959913,-0.5442429,-0.71273273,19.713524,-2.6959457,-43.00692,
31175805,0.40363777,-3.0593855,17.83294,-1.6114374,-0.26354596,-0.71539587,,,,
31175810,-0.72343487,-2.938414,18.694115,-1.5405974,0.0198141,-0.64562106,19.712708,-2.9745512,-41.920357,
31175815,-1.2947564,-2.8066626,19.113323,-1.3840038,0.27973843,-0.5172568,,,,
31175820,-1.3666209,-2.7060525,18.92408,-1.1602983,0.49332374,-0.35799992,19.098957,-3.149828,-43.171715,
31175825,-1.0623951,-2.713239,18.132376,-0.9035699,0.6451238,-0.19341673,,,,
31175830,-0.73062134,-2.6785045,16.965776,-0.6463087,0.7569764,-0.044279844,20.789024,-1.9379263,-42.67942,
31175835,-0.4156159,-2.4629116,15.892603,-0.39224342,0.86616594,0.07982336,,,,152.0
31175840,-0.08384211,-2.0233412,15.099699,-0.144037,0.9726923,0.18421918,20.170162,0.12572765,-42.099648,
31175845,0.4802931,-1.6185051,13.97023,0.098310456,1.0089113,0.25878763,,,,
31175850,1.1342587,-1.3981211,12.086187,0.30763474,0.8672312,0.2934087,21.093395,-1.0210066,-40.825294,
31175855,1.7774446,-1.3214658,9.672743,0.44878215,0.5684248,0.2832887,,,,
31175860,2.4254217,-1.1657598,7.181444,0.49725166,0.2009089,0.2433413,21.094723,-1.6175928,-41.282646,
31175865,3.0135117,-0.9609464,5.1392994,0.45570636,-0.15062806,0.1794255,,,,
31175870,3.5177598,-0.7225962,3.6121821,0.34332106,-0.43079233,0.100595996,22.325943,-0.7376251,-42.809853,
31175875,3.796833,-0.471071,2.4982843,0.19098838,-0.6060282,0.012179124,,,,
31175880,3.958528,-0.23870958,1.5532681,0.01735043,-0.6528998,-0.082096696,21.095207,-2.3476887,-40.809883,
31175885,3.6794546,-0.03748937,0.9088844,-0.16374436,-0.5884514,-0.18382937,,,,123.0
31175890,3.0051274,0.16732404,0.88373184,-0.35762233,-0.43505338,-0.28769255,20.940807,-1.1846485,-41.755775,
31175895,2.1798851,0.3805216,1.5640478,-0.54723924,-0.2251965,-0.36172834,,,,
31175900,1.3043377,0.5470074,2.771369,-0.70489824,-0.0014911703,-0.39954522,23.24953,-1.8889914,-41.844963,
31175905,0.31500506,0.70870215,3.9403625,-0.80077195,0.19132152,-0.4096652,,,,
31175910,-0.346147,0.81410325,4.7404523,-0.82580566,0.34791526,-0.39475155,22.323227,-0.122509,-41.11463,
31175915,-0.89111835,0.74343663,5.5609035,-0.7869235,0.46136582,-0.35693467,,,,
31175920,-1.4289033,0.51945937,6.5598183,-0.7091593,0.5071721,-0.30100834,21.552517,0.60981274,-40.677994,
31175925,-1.8481121,0.2978776,7.254507,-0.58452344,0.5061069,-0.22484201,,,,
31175930,-2.0026205,0.060725227,7.7443824,-0.4162118,0.49119323,-0.1374904,22.17112,-1.0162458,-41.572365,
31175935,-2.0026205,-0.11174922,8.0246525,-0.21008334,0.4736164,-0.047475632,,,,95.0
31175940,-1.7007902,-0.22433673,7.895297,0.021611484,0.44059318,0.03135387,23.707352,0.19332123,-41.083855,
31175945,-1.1905532,-0.49742126,7.22097,0.2415884,0.36282897,0.0856823,,,,
31175950,-0.61324286,-0.8687204,6.093898,0.4093674,0.22327943,0.116042316,23.396526,1.2436781,-39.556107,
31175955,-0.08144663,-1.1980987,4.9512544,0.496719,0.04271726,0.12403178,,,,
31175960,0.22757007,-1.3286523,4.359571,0.5137632,-0.14849754,0.11497705,23.244995,0.052804947,-40.165154,
31175965,0.4383722,-1.3681777,3.9738994,0.49139267,-0.33864704,0.09793283,,,,
31175970,0.5964738,-1.3681777,3.487617,0.4493148,-0.5069587,0.081421256,23.400719,0.17475414,-42.01986,
31175975,0.82284653,-1.4160872,3.1498547,0.38060528,-0.6038977,0.072366506,,,,
31175980,1.1510271,-1.6185052,3.083979,0.29804736,-0.615083,0.06917071,23.863583,-0.55991936,-42.309364,
31175985,1.4348912,-1.7310927,3.239685,0.22188102,-0.5415798,0.06810546,,,,23.0
31175990,1.6468911,-1.8472733,3.699617,0.15743257,-0.4025629,0.06810546,24.322598,-0.23030281,-40.444595,
31175995,1.7606763,-2.042505,4.394305,0.12547468,-0.2198702,0.07130124,,,,
31176000,1.6648571,-2.3802676,5.1524744,0.13452941,-0.021198545,0.08355178,24.167728,0.64950085,-40.613403,
31176005,1.5235239,-2.7970808,6.091502,0.17500943,0.15456994,0.10752021,,,,
31176010,1.3510494,-3.2677922,7.1275463,0.2399905,0.26855314,0.13574968,23.398613,1.2158833,-41.41291,
31176015,1.192948,-3.563634,7.9264383,0.3257442,0.29625,0.16717495,,,,
31176020,1.1725864,-3.7900066,8.387568,0.4141611,0.24778049,0.20019811,23.553173,1.063859,-41.871605,
31176025,1.5414901,-4.0091925,8.546867,0.4881969,0.1641573,0.23694973,,,,
31176030,2.1188004,-4.137351,8.54567,0.54465586,0.089588866,0.2614508,25.091873,0.21433258,-41.04966,
31176035,2.5835233,-4.231972,8.952902,0.58194005,0.067218326,0.26198342,,,,12.0
31176040,2.9715908,-4.3110228,9.66316,0.6186917,0.08745833,0.24227603,25.091873,0.21433258,-41.04966,
31176045,3.031478,-4.2259836,10.565059,0.66875905,0.11515518,0.21351391,,,,
31176050,2.221806,-3.2713854,11.604696,0.73640335,0.13805835,0.1847518,24.167381,0.65413284,-40.303932,
31176055,0.57371676,-0.84237015,12.925802,0.84452754,0.16948363,0.18368654,,,,
31176060,-0.27068943,1.7782834,14.128332,1.0469276,0.19558258,0.21884024,25.55513,-1.6834002,-40.24234,
31176065,0.7605641,2.1148481,14.201395,1.3270919,0.14977625,0.26251608,,,,
31176070,2.2852862,0.74702984,12.552108,1.5880815,-0.015339597,0.25239605,25.55513,-1.6834002,-40.24234,
31176075,3.001534,-0.04108262,9.71586,1.7430773,-0.21614176,0.15598969,,,,
31176080,3.3824153,-0.333331,6.904767,1.7659805,-0.36740917,0.014842283,24.785892,-1.4048882,-40.574234,
31176085,3.374031,-0.6519296,4.5895367,1.620572,-0.49896923,-0.13429461,,,,
31176090,2.4170375,-0.3477038,3.0636175,1.2701004,-0.6507693,-0.28715992,25.557007,-2.4320269,-41.007454,
31176095,0.9450159,0.57695085,2.9953463,0.7630349,-0.7919167,-0.43310103,,,,
31176100,-0.34734476,1.3291311,4.4326334,0.19418417,-0.8819315,-0.5470842,23.094166,-1.1473312,-41.39312,
31176105,-1.1330616,1.0668262,6.7095356,-0.32886022,-0.9074978,-0.6173916,,,,
31176110,-1.4384853,-0.1440882,9.1469345,-0.74164987,-0.8824641,-0.647219,23.248913,-2.3150043,-40.75669,
31176115,-2.0122023,-1.4029121,11.254955,-1.0361952,-0.81268936,-0.6434906,,,,
31176120,-2.9380548,-1.9538722,13.362976,-1.2348669,-0.7024346,-0.5934232,24.630737,0.05760193,-41.21409,
31176125,-3.625557,-2.15629,15.65066,-1.3275448,-0.58099455,-0.4799726,,,,
31176130,-3.8219862,-2.2808552,17.81258,-1.3360668,-0.522405,-0.31485677,22.783386,1.4944134,-41.89573,
31176135,-3.4482918,-2.382663,19.235493,-1.2742816,-0.5367861,-0.12683778,,,,
31176140,-2.5008798,-2.520403,20.06792,-1.1464499,-0.584723,0.04413703,23.555641,-0.9952345,-41.53817,
31176145,-1.3067338,-2.5802898,20.39251,-0.96162677,-0.6241377,0.16930547,,,,
31176150,-0.4491526,-2.2760642,20.166136,-0.7496393,-0.6544977,0.23322129,23.399307,1.2066174,-42.031837,
31176155,0.071863994,-1.6256917,19.423538,-0.5392498,-0.67313987,0.25292867,,,,
31176160,0.407231,-0.9597486,18.115604,-0.35868758,-0.6752703,0.25612447,23.551868,1.5153513,-41.257805,
31176165,0.69468844,-0.47705966,16.611246,-0.22233386,-0.6544977,0.25399393,,,,
31176170,0.9402249,0.012815662,15.154796,-0.14616752,-0.62307245,0.24121077,23.857716,1.1102219,-39.078804,
31176175,1.3869817,0.5218549,13.660016,-0.117938034,-0.58738613,0.22310129,,,,
31176180,1.8648796,0.91710883,11.9927635,-0.12805805,-0.5085566,0.18954548,21.705921,1.0520582,-40.83407,
31176185,2.088857,1.2824192,10.702798,-0.18345174,-0.3892471,0.11870547,,,,
31176190,1.6995916,1.9399781,9.920675,-0.2803907,-0.27739438,0.015374914,23.401241,0.16780567,-42.484062,
31176195,0.91986334,2.9329038,9.39846,-0.41994023,-0.23904493,-0.091151446,,,,
31176200,0.019163474,3.879118,8.700178,-0.6127529,-0.2960365,-0.1710462,23.552685,1.7939558,-42.344368,
31176205,-0.5832994,4.510327,8.213896,-0.8577635,-0.40948707,-0.20353675,,,,
31176210,-0.7102598,4.734304,8.085738,-1.1288731,-0.50269765,-0.18329674,21.39655,1.7936993,-40.231293,
31176215,-0.2754804,4.5893774,8.467817,-1.3738836,-0.5000345,-0.13322936,,,,
31176220,0.34494853,4.204903,9.215206,-1.5635006,-0.38551867,-0.07996617,22.62783,3.2517228,-42.53901,
31176225,1.0264622,3.6323838,10.203341,-1.7153007,-0.21720703,-0.03788826,,,,
31176230,1.6564732,2.8059435,11.318436,-1.8362081,-0.03185118,-0.008060883,22.009045,4.0118575,-40.3965,
31176235,2.1870713,2.0130403,12.765305,-1.914505,0.17001626,0.0068528065,,,,14.0
31176240,2.5703483,1.4009955,14.524784,-1.9203639,0.3836016,0.0052549113,23.08781,4.002721,-42.071968,
31176245,2.9033194,0.87159467,16.212399,-1.8287512,0.57801217,-0.014985095,,,,
31176250,3.0434551,0.40806964,17.321507,-1.6391343,0.73833436,-0.051736686,22.625202,4.2998,-41.467857,
31176255,2.9943478,0.022397578,18.080872,-1.3669595,0.87575334,-0.09914091,,,,
31176260,2.8877492,-0.26865306,18.446182,-1.0372605,0.9700292,-0.14601251,23.392628,5.347969,-41.151375,
31176265,2.7619863,-0.51179415,18.21502,-0.6825277,0.97588813,-0.19661254,,,,
31176270,2.5176477,-0.5992291,17.150229,-0.33951285,0.88214487,-0.25946307,22.467705,6.2276807,-40.565514,
31176275,2.1271844,-0.57287884,15.603947,-0.05135907,0.7244859,-0.3223136,,,,
31176280,1.7678628,-0.659116,13.796558,0.17234628,0.5519132,-0.3745115,21.698524,6.2160077,-40.58451,
31176285,1.4372869,-0.8267995,12.069419,0.33799475,0.39425424,-0.41073048,,,,15.0
31176290,1.0240667,-0.9765169,10.263227,0.44718423,0.27547735,-0.42724204,24.159718,5.3874373,-39.27559,
31176295,0.56892574,-1.026822,8.622326,0.50098,0.2126268,-0.4160568,,,,
31176300,0.08863234,-0.89147747,7.286846,0.5142958,0.22594258,-0.37291363,23.390484,5.66595,-39.607468,
31176305,-0.43477973,-0.70702565,6.3741684,0.50630635,0.31915316,-0.30580202,,,,
31176310,-0.8360224,-0.6112065,5.886688,0.49725166,0.4555069,-0.21898307,23.392506,5.0600996,-40.68376,
31176315,-1.0108923,-0.57647204,5.5165873,0.49086004,0.601448,-0.13109884,,,,
31176320,-1.1761804,-0.558506,5.1572657,0.49618638,0.73993224,-0.047475632,21.695896,7.2640853,-39.513367,
31176325,-1.2252877,-0.47466415,5.0338984,0.5164264,0.86137223,0.029223341,,,,
31176330,-1.3354797,-0.21954574,5.287819,0.56649375,0.94393015,0.09100862,21.696346,5.810841,-38.103645,
31176335,-1.3546436,-0.023116514,5.7154117,0.6597043,0.9348754,0.13468441,,,,
31176340,-1.1210843,-0.08659668,5.453107,0.7949928,0.7878691,0.16717495,24.311802,4.5446944,-36.63105,
31176345,-0.8276382,-0.31895813,4.41826,0.9100413,0.5322059,0.18741496,,,,
31176350,-0.61204517,-0.40279984,3.1762052,0.959576,0.22540995,0.19007812,23.696838,4.38563,-36.79927,
31176355,-0.43957067,-0.36926314,2.2503524,0.92229176,-0.08404909,0.18102337,,,,
31176360,-0.40124303,-0.25188473,2.0263753,0.81416756,-0.3477018,0.16930547,23.695084,5.4221263,-36.501785,
31176365,-0.5449717,-0.1201334,2.394081,0.6836727,-0.50962186,0.17196864,,,,
31176370,-0.8000902,-0.023116514,3.2372894,0.59578854,-0.51601344,0.19753498,22.312817,5.3710036,-38.547516,
31176375,-0.9306438,-0.0051504225,4.333221,0.5766138,-0.36314812,0.248135,,,,
31176380,-0.9498076,-0.18241581,5.4914346,0.6208222,-0.12825753,0.31151816,25.082176,4.685246,-37.85163,
31176385,-0.9965194,-0.471071,6.36818,0.6943254,0.10823098,0.3717056,,,,17.0
31176390,-1.0001127,-0.43992975,6.9694448,0.7838075,0.3026416,0.42869717,25.697758,5.270323,-38.771675,
31176395,-0.8060789,-0.2279299,7.2533092,0.8834097,0.44378898,0.4761014,,,,
31176400,-0.4719096,-0.103365034,7.6018515,0.9750223,0.5162268,0.49900454,24.313232,5.2493114,-38.80587,
31176405,-0.08503985,-0.020721033,7.5683146,1.0538518,0.50770473,0.49101508,,,,
31176410,0.028745383,-0.036291644,7.3119984,1.0953971,0.4443216,0.44307822,23.390976,3.0542798,-36.79146,
31176415,-0.15211324,-0.053059995,7.055682,1.0959297,0.37507948,0.36850977,,,,
31176420,-0.6970846,-0.023116529,6.961061,1.0687655,0.33406684,0.29873502,24.31443,3.4966168,-37.7022,
31176425,-1.3893778,0.16732404,7.1047897,1.0282855,0.33087105,0.25878763,,,,
31176430,-1.9068012,0.17451046,7.5371733,0.9952623,0.3521763,0.2662445,23.081146,4.3809247,-36.504997,
31176435,-2.1128125,-0.2542802,8.187546,0.9590433,0.34365422,0.3253666,,,,20.0
