Date created: 2021-10-22-21-42-26-550000000
Timestamp,acc_x,acc_y,acc_z,gyro_x,gyro_y,gyro_z,mag_x,mag_y,mag_z,light
31169880,-0.5976723,1.351489,10.695613,0.17341153,-0.20096177,0.21537814,4.4941998,-4.9476223,-50.323814,
31169900,0.28296554,1.1434815,10.255143,0.30310735,-0.13518174,0.2851529,2.7259083,-5.202532,-50.829132,
31169920,1.5471793,1.10186,8.263602,0.23080261,0.11728571,0.13708128,2.7248793,-5.261181,-49.82251,313.0
31169940,0.8237448,1.3878205,8.532196,-0.0636096,0.3769437,-0.08822197,3.4969206,-6.1559668,-51.2632,
31169960,-0.75667214,1.8321817,9.754787,-0.24310651,0.27960524,-0.10353512,2.5723991,-6.0051928,-50.127213,
31169980,-1.1447397,1.7908597,11.303165,-0.042970113,0.35803527,0.0872802,3.4957476,-5.923271,-50.492104,
31170000,-0.6599547,1.7216902,11.501989,0.29991156,0.27854,0.19287443,4.4169426,-5.450824,-49.39131,
31170020,-0.1473223,1.9013511,10.608775,0.5411938,0.025673052,0.17489812,3.6489534,-6.7085238,-48.931557,
31170040,0.2940446,2.0962832,8.276479,0.43267003,-0.18112123,0.05731966,3.3430424,-7.31557,-49.78334,
31170060,0.07276228,2.337328,7.966862,0.01468727,0.014887262,-0.051603526,4.1124105,-7.3787584,-49.84086,291.0
31170080,0.07725381,1.8408651,10.684832,-0.04643222,0.40064582,-0.1156525,3.7271347,-7.881997,-48.60649,
31170100,-0.2676951,1.973515,11.242379,0.11677503,0.23712789,-0.21614236,2.494156,-6.350562,-48.500137,
31170120,-1.3923723,2.7409663,10.4246235,0.16302522,-0.1596828,-0.25666675,4.187909,-7.2139683,-48.757538,
31170140,-1.0764686,2.5466332,10.093448,0.058496233,-0.426265,-0.0972767,4.8019447,-7.621378,-47.035133,
31170160,-0.87794334,1.7004302,10.184177,-0.009680633,-0.5723393,0.03827808,3.2660465,-6.447338,-50.801277,263.0
31170180,0.05299961,1.5201706,9.502363,-0.10728541,-0.6740719,0.12935811,2.187437,-6.8020916,-48.812073,
31170200,0.9584905,1.3450012,8.563935,-0.4938429,-0.4084218,0.09353862,1.8814535,-7.480524,-49.508263,
31170220,1.3791964,0.6979225,11.484323,-0.74524504,0.40144473,-0.088754594,2.5707598,-6.0557346,-48.579025,243.0
31170240,0.8767448,0.12869695,14.199597,-0.49264446,0.39545262,-0.26438993,3.1871824,-5.3371463,-50.429184,
31170260,1.1597106,-0.44502014,14.24062,-0.048429593,-0.116672784,-0.3565352,2.8797321,-6.5025587,-49.185226,221.0
31170280,1.6297807,-0.4229903,13.161586,0.33546475,-0.47566658,-0.41259468,3.8009481,-5.2344155,-49.09961,
31170300,1.1477333,0.48472494,11.631945,0.5676922,-0.1847165,-0.32710728,3.4184866,-6.860594,-49.01291,
31170320,0.8881232,2.2205484,11.646617,0.5916606,0.26335996,-0.12350882,3.6494236,-7.3660746,-48.537018,201.0
31170340,2.5212405,2.477763,8.6358,0.41868845,-0.03957434,-0.20500147,4.495696,-7.355551,-48.670853,
31170360,3.176404,2.5002205,7.3431396,-0.53192604,0.024208307,-0.30220675,4.725998,-7.7078323,-47.809845,178.0
31170380,3.1386752,1.345001,10.796222,-1.3106337,0.07760465,-0.5036747,4.3419466,-7.359043,-48.75202,
31170400,1.5163375,0.80062866,13.471373,-1.4528464,0.15030888,-0.5280426,5.1051435,-4.1560707,-47.299866,
31170420,0.9593888,0.63534063,14.265473,-1.1049048,0.23606259,-0.357201,5.3352757,-4.071915,-46.830826,123.0
31170440,1.073174,0.4715498,12.399995,-0.71302086,0.21981733,-0.29435042,6.4893217,-2.7555199,-48.67453,
31170460,0.7596657,0.17540878,11.917007,-0.46574655,0.13619412,-0.3080657,5.4133024,-3.5065904,-48.53784,
31170480,1.1480327,0.5362277,9.433195,-0.1253949,-0.24530335,-0.44042468,7.1053886,-2.900539,-49.121826,
31170500,-0.14822061,1.4941198,6.6939645,-0.12126699,-0.5502351,-0.5661258,7.6424923,-3.23657,-47.479546,
31170520,-1.6489879,2.0807126,5.0554576,-0.31980547,-0.44996715,-0.3606631,6.873536,-2.5999584,-48.512016,134.0
31170540,-1.5366999,1.0557472,5.284226,-0.5368529,-0.0024232753,0.04573492,6.873005,-2.0863423,-48.672737,
31170560,-0.38477406,-0.4941275,6.462801,-0.6275335,0.21781994,0.32270342,7.410557,-1.1258025,-49.057404,149.0
31170580,0.06377925,-1.1283303,8.12137,-0.5388503,-0.13851069,0.36131924,6.798106,-1.7525735,-50.92256,
31170600,-0.117378816,-0.89117795,10.110217,-0.10502173,-0.26714122,0.3715724,5.565366,-1.0203066,-50.033104,
31170620,-0.1371415,-0.8253024,10.3153305,0.769027,0.09171939,0.42883033,6.0269747,-1.0870075,-50.02086,171.0
31170640,-0.06258223,-1.0127485,6.9907045,1.3430707,0.20716733,0.3994024,7.3375063,-2.7704744,-50.510445,
31170660,-1.9145865,0.068809986,5.5285645,1.1686339,0.16508941,0.38635296,7.0321646,-4.5428953,-50.420128,190.0
31170680,-2.0628068,0.28590024,7.2440267,0.86623234,-0.09536752,0.63895357,7.572281,-5.2084875,-51.09543,
31170700,0.47310662,-1.2882285,8.130953,0.5602353,-0.14064121,0.6960783,7.1879873,-5.8695583,-50.55564,
31170720,0.39944565,-1.3364375,11.422041,0.20763312,0.43793,0.5662493,7.804394,-6.88745,-50.219,203.0
31170740,-0.8150619,-0.09977183,14.852666,0.4189548,0.7445927,0.44880402,7.5761156,-7.14102,-52.156296,
31170760,-1.0770674,0.61587733,13.657321,0.88181174,0.29278788,0.4048619,8.728363,-7.320302,-50.50054,
31170780,0.17367183,0.2867985,9.168195,0.5995169,-0.30868652,0.3000666,7.9612064,-7.937826,-51.595825,
31170800,1.0141853,0.2023579,9.410437,-0.4738692,-0.21813911,0.16331337,7.6547556,-8.899496,-51.514923,
31170820,0.8854285,-0.13570401,13.828598,-1.2500467,0.037657265,-0.033094577,7.578101,-8.4700165,-52.295624,222.0
31170840,-0.513531,-0.4555004,18.84563,-1.0818684,0.003169356,-0.19767779,9.499749,-7.0485554,-52.80597,
31170860,-0.97684234,-1.0882488,18.61301,-0.17026912,-0.36354762,-0.13296303,7.9587574,-5.0830383,-52.94445,
31170880,0.077553265,-1.7700193,13.131814,0.4020437,-0.6599572,-0.022708256,8.880513,-4.8351774,-52.07318,
31170900,1.9888456,-2.130539,7.597958,0.102172025,-0.44251028,-0.06651722,8.651527,-6.3818417,-51.751442,
31170920,1.2291796,-1.5951493,6.7068405,-0.34603757,0.082398325,-0.2992773,8.802195,-4.3111477,-51.462135,254.0
31170940,-1.4079429,-0.36896372,7.485671,-0.49117973,0.19172099,-0.21685253,9.5704975,-3.781227,-51.294403,
31170960,-1.2734966,-0.19259663,7.9129643,-0.25455806,-0.13731226,0.076361254,10.569045,-3.3134007,-50.578545,
31170980,0.5123326,-0.08629725,5.4641867,-0.1686712,-0.4695413,0.15519075,9.877638,-3.2629414,-51.447525,
31171000,1.5888008,-0.16444975,4.329328,-0.34044495,-0.22040282,0.018437546,10.722779,-1.8624554,-52.293922,
31171020,0.27997118,-0.011737991,6.189118,-0.3754655,-0.015073281,0.038144924,11.412377,-1.527019,-50.268715,238.0
31171040,-0.32758206,0.13648225,8.154608,0.08033413,0.16016258,0.3025966,11.797073,-1.1607671,-50.80507,
31171060,0.18505034,0.2903917,7.911468,0.82295597,0.1758752,0.49647456,13.104356,-1.7155046,-49.760162,207.0
31171080,1.9717778,-0.5917432,5.6309714,1.140005,-0.5294624,0.37237138,14.181486,-2.7159686,-48.715813,
31171100,3.4138558,-0.97352254,3.8116057,0.59698695,-1.1534405,-0.09021933,12.797827,-3.182682,-48.976974,
31171120,1.7088741,-0.6731894,7.1107783,-0.04163854,-0.40908763,-0.30513626,13.56941,-3.492464,-50.73398,189.0
31171140,-0.7929037,-0.030302936,12.753927,0.21841893,0.4696216,-0.047475632,13.797825,-2.5894523,-49.732788,
31171160,0.81536067,-0.6303703,12.883283,0.5409274,-0.061545394,0.18887971,14.412117,-3.4344563,-47.695786,164.0
31171180,6.2057867,-2.7219226,10.7549,0.046911493,-0.59178036,-0.10246986,14.720741,-3.8766475,-47.992516,
31171200,7.0531864,-3.1602952,12.47695,-0.5923798,0.094782025,-0.8645327,14.56583,-4.154112,-46.677666,
31171220,0.7342137,-1.73259,17.402353,-0.59890455,0.73638135,-1.0928543,14.638962,-1.5698109,-46.47361,142.0
31171240,-2.562264,-0.3336304,16.940325,0.08579361,0.15883099,-0.70873797,16.946257,-1.6038637,-46.106308,
31171260,-0.8698585,-0.057850942,9.778144,0.0917857,-0.4935097,-0.23975569,16.56107,-1.6741405,-45.49601,110.0
31171280,1.229479,-0.37435353,10.431211,-0.9419193,-0.16088122,0.014309652,17.713446,-0.6973138,-45.401283,
31171300,1.37201,0.13408677,15.804269,-1.352179,0.30810103,0.021766495,17.943058,-0.1720891,-45.01474,
31171320,1.3827896,0.6395327,18.251251,-0.71182245,0.33033845,-0.022175623,18.784672,1.9990292,-43.62607,69.0
31171340,1.4902868,0.714092,14.896084,0.32960582,-0.1454349,-0.176772,17.635,0.47963333,-45.49424,
31171360,0.55006135,0.8859676,7.5192084,0.67608273,-0.529196,-0.4544063,19.47898,0.8244715,-43.9821,18.0
31171380,-1.5720332,0.8994422,4.3580737,0.16116099,0.088124126,-0.47904053,18.710861,-0.21443224,-43.679657,
31171400,-2.093649,0.40297925,6.415491,-0.45109922,0.52847743,-0.13322935,18.941431,0.29805183,-44.144142,
31171420,-0.50801295,0.339114,8.797366,-0.43538654,0.7479217,0.32203764,18.939737,0.53769636,-42.90885,16.0
31171440,0.9992136,0.047550105,10.87647,0.17753942,0.89426225,0.47823194,20.633137,0.619709,-44.028404,
31171460,0.2886548,0.30566293,10.639917,1.1252245,0.6853374,0.37836346,20.787544,-0.54333067,-43.08251,
31171480,0.6216264,0.19756693,6.2415185,1.6996678,0.41023317,0.3067245,20.096548,-1.2943563,-43.32315,
31171500,0.35063776,5.388353E-4,3.269329,1.4424067,0.40464056,0.16437864,19.407022,-2.9333105,-43.785614,
31171520,-1.6241348,-0.51748335,6.247807,0.9174981,0.7736212,0.21604392,20.792315,-3.284296,-43.979248,
31171540,-3.683348,-0.548924,11.602302,1.1738272,0.7493864,0.5530667,19.025822,-4.793342,-44.54738,
31171560,-0.97346294,-0.45909363,10.703398,1.7364194,0.107165724,0.8414868,19.180138,-5.9552236,-43.524124,
31171580,2.694314,-1.6879742,5.903157,1.3602482,-0.15102753,0.51711404,16.954592,-8.517035,-45.02008,
31171600,0.21649101,-0.38842702,11.143566,0.27740788,0.51915634,0.058251776,16.953915,-8.146195,-44.86962,
31171620,-2.0190892,0.654205,16.738506,0.6145638,0.68760115,0.1199039,16.802435,-10.061373,-44.619064,
31171640,0.7351121,0.19487204,10.925577,0.8988559,-0.009214327,0.0771602,16.877243,-9.453198,-43.46351,
31171660,1.6283262,-0.08450064,8.411822,-0.20555595,-0.21121493,-0.29661414,15.416629,-9.269319,-44.507942,
31171680,-0.447356,0.025391934,12.720091,-1.1532409,0.074142545,-0.5867653,16.03233,-8.396373,-45.895615,
31171700,-3.1979642,0.50508654,16.64598,-1.104372,0.19611521,-0.48037207,15.264024,-7.985506,-47.234985,
31171720,-2.5553772,0.1146235,15.303314,-0.4592218,0.21369205,-0.120712504,15.032107,-6.888073,-47.56299,18.0
31171740,0.59827036,-0.11893566,11.286696,-0.14030856,-0.098696455,0.00805123,15.259827,-5.975796,-45.942863,
31171760,1.4471681,-0.096478045,9.206522,-0.29450545,-0.23185441,-0.28449678,14.798657,-5.4807653,-46.88865,26.0
31171780,-0.25422055,0.12330711,8.610647,-0.44896865,-0.71721506,-0.46639052,14.031408,-5.1563435,-49.078194,
31171800,-1.6777337,0.3424934,7.7671394,-0.4738692,-0.7224083,-0.256001,13.953502,-5.433799,-47.8388,
31171820,-1.9598012,0.009222448,9.134059,-0.30129653,-0.2967023,0.13801336,13.7234335,-4.9398994,-49.088356,47.0
31171840,0.5545529,-0.6058166,8.806478,0.25956473,-0.44264343,0.38102663,13.567102,-3.6788335,-48.410408,
31171860,2.334094,-0.23302035,5.633367,0.6827406,-0.6646177,0.18342024,12.415553,-4.8837223,-48.966774,81.0
31171880,0.6045584,0.5640751,2.7800527,0.8883365,-0.19443703,0.030155445,11.493786,-5.9998236,-48.744637,
31171900,-0.25032786,0.92399585,1.5245223,0.6433259,0.16122782,0.2914113,11.034154,-6.755453,-49.52114,
31171920,2.4359016,0.053538788,1.9341491,0.03692466,0.026072523,0.38315713,12.41733,-6.933552,-48.014412,102.0
31171940,3.0722008,-0.77948874,6.71223,-0.3694734,0.16042888,0.12815969,11.64656,-4.970258,-49.06228,
31171960,1.2091174,-0.75283915,11.734053,0.049175162,0.27814052,0.029223341,11.645746,-5.2488623,-47.97573,138.0
31171980,1.1123571,0.49310914,13.72555,0.9892702,0.21302627,0.16504443,12.187531,-6.949793,-48.871147,
31172000,2.9700935,0.028086834,7.8276253,1.3662404,0.21089575,-0.09221671,13.031799,-5.9718447,-48.39718,
31172020,2.390388,0.4895159,4.985689,0.20004311,0.04924201,-0.6239163,12.2628975,-7.000325,-47.398415,170.0
31172040,-0.3799832,-0.0617436,9.693703,-0.9866604,0.19731364,-0.6681248,12.186352,-7.5853376,-47.006645,
31172060,-1.6624624,-0.25637624,18.31952,-0.9822662,0.199311,-0.324311,13.030476,-6.3160467,-46.768196,193.0
31172080,-0.9213613,0.7679903,20.733267,0.24198787,-0.0078827515,-0.17384253,13.182023,-4.7636003,-46.627632,
31172100,0.45244563,2.2906163,14.115157,0.7398654,-0.8624904,-0.46705627,12.487724,-4.09571,-45.646675,
31172120,-0.059887335,3.5030277,9.01159,-0.17200017,-1.1351979,-0.63323736,13.028393,-4.4792247,-47.17643,207.0
31172140,-1.2336718,4.066264,10.851019,-1.0891922,-0.12492858,-0.20939569,11.6405325,-3.3703465,-45.59877,
31172160,0.0682708,4.057282,15.883619,-1.0500436,0.28852683,0.1543918,11.715052,-2.613603,-44.36756,
31172180,2.950031,3.5916605,15.191325,-0.19889805,0.11302467,0.0024585985,11.480475,-0.7571206,-43.23416,
31172200,3.969008,2.3031926,9.373307,0.016684638,-0.24090914,-0.52964056,11.093751,0.4232645,-42.79315,
31172220,3.180297,1.1171312,7.3706875,-0.34204283,-0.105354354,-1.0095417,13.093345,0.5296345,-42.58988,229.0
31172240,-0.71025974,0.8623122,8.362116,-0.28545076,0.3744137,-1.1582792,11.2433815,2.9419768,-42.122154,
31172260,-3.6339414,0.06312071,7.675213,0.054235175,0.62741375,-0.91553223,11.854852,4.160699,-40.109123,206.0
31172280,-4.513381,-0.93160176,6.6709085,0.28193527,0.0961136,-0.4707847,12.010273,3.1288543,-40.24807,
31172300,-3.2162297,-0.6770822,5.163553,0.30963212,-0.34410655,-0.024172995,13.16119,4.9210625,-39.85329,
31172320,-1.1722876,0.028685711,4.4038873,0.42002004,0.10143992,0.19167602,12.54553,5.2053843,-39.949272,171.0
31172340,-0.90369457,0.13378733,5.48335,0.393566,0.2477805,0.24902272,12.160273,5.0637207,-39.1834,
31172360,-1.549875,0.28320533,6.911355,0.4948548,0.20357206,0.39514136,12.237452,6.4363203,-41.131924,144.0
31172380,-1.6474907,0.74433494,7.0484953,0.59605485,0.47601318,0.7260388,13.622232,6.0197372,-40.78313,
31172400,-1.6992929,1.9830966,10.667763,0.5276116,0.710238,1.0139263,15.082045,5.484708,-38.57392,
31172420,-1.1192877,2.0938873,13.597135,0.9326781,0.16908416,0.9884931,15.081138,7.522955,-40.299953,121.0
31172440,-1.4295021,1.0222104,10.473132,1.1369424,-0.7389198,0.601403,15.468402,5.3222885,-39.955307,
31172460,-3.734851,2.96135,12.1475725,0.40763634,-0.5996366,0.63029826,14.546448,5.655957,-41.374992,88.0
31172480,-1.7421122,2.755938,14.142106,0.21722049,0.14697993,0.9312352,16.3907,5.924774,-40.016727,
31172500,1.3217049,1.2527752,12.732067,0.107764676,0.020346735,0.7012714,15.315944,5.3739696,-41.275196,
31172520,1.4690268,-0.35908237,11.376226,-0.4975713,-0.37353444,0.11764022,15.315494,5.4523067,-40.966587,30.0
31172540,-0.54257625,-1.3739954,14.341531,-1.2319374,-0.25995073,-0.09434723,15.932439,5.7298265,-42.734245,
31172560,-1.4166265,-1.4265674,17.382591,-1.06549,0.2250105,0.28022605,17.083443,6.1459703,-40.698498,15.0
31172580,1.1621062,-1.5220873,14.858055,-0.39543918,0.32607734,0.58209515,16.542284,8.200367,-40.813133,
31172600,4.098065,-1.1846242,10.03416,-0.089575395,0.24245417,0.4156477,16.774397,7.8963118,-41.655045,
31172620,4.2130475,-0.3249468,6.4430385,-0.22606227,0.1622931,-0.103002496,17.621447,7.4622927,-41.938477,13.0
31172640,1.4070439,0.13528448,5.5953383,-0.40915442,0.11555466,-0.36039677,18.31032,8.892872,-40.622406,
31172660,-0.3503391,-0.06324077,5.6447453,-0.33751544,0.35017896,-0.11112514,17.311031,8.651952,-40.954006,11.0
31172680,-0.47041246,-0.34021798,5.694152,-0.06720487,0.38466686,0.25625762,18.617039,9.344401,-40.31048,
31172700,0.6264173,0.32183242,4.8428593,0.2266747,0.15536888,0.5880872,20.924858,8.362613,-39.235737,
31172720,3.4863193,0.44699615,2.4746294,0.2995121,-0.0024232755,0.5818288,19.389185,7.4351244,-40.578693,10.0
31172740,3.155444,0.8886625,3.4567752,0.07008097,-0.048495926,0.30499345,20.545042,7.424838,-42.406998,
31172760,1.9065009,0.3942956,6.098389,0.09458203,-0.22173439,0.16051707,21.776386,6.2769823,-41.51187,
31172780,2.2939696,-1.6553359,7.5042357,0.069282025,-0.3891139,0.12429811,21.392231,6.2653546,-41.908203,
31172800,3.261144,-2.1239512,11.782859,-0.013009582,0.07440886,0.04307176,21.00936,5.8747816,-42.99655,
31172820,0.8635696,1.4117751,18.529728,0.926686,0.5148953,-0.05546511,20.393751,5.4347973,-42.232956,
31172840,1.6100607,0.73026145,12.515876,2.174376,-0.597373,-0.30540255,21.935265,3.4623306,-42.558678,
31172860,1.8286481,1.285713,4.3113623,0.85171807,-1.9734269,-0.69129425,23.014442,1.2768021,-41.88747,
31172880,2.759591,-1.0789237,10.429415,-1.2572373,-0.7001709,-0.7777138,21.169703,1.3039608,-43.171783,
31172900,0.21469443,-0.97831357,21.153374,-1.3520458,1.146863,-0.39741465,20.246359,2.09028,-43.90029,
31172920,1.6795295,0.041561395,20.956644,-0.19889806,0.7749528,-0.08768934,21.78362,2.4177089,-43.246788,
31172940,3.7432344,1.9291985,14.098689,0.23679471,-0.34916657,-0.4424221,22.013927,2.499548,-42.93248,
31172960,2.8092968,3.4380503,9.919176,-0.22779334,-0.7487736,-0.96240383,21.70904,1.0829115,-43.69748,
31172980,0.8177562,3.3059995,8.144427,-0.8279362,-0.0624775,-1.1110082,22.247719,1.5942745,-44.541214,
31173000,-0.72433317,2.6074183,7.425783,-1.4603033,0.60491014,-1.0377712,22.632965,0.8676977,-44.213676,
31173020,-2.5296257,2.1145487,10.444984,-1.7097081,0.5136969,-0.95308274,23.475342,2.6668196,-43.052834,
31173040,-2.8230717,2.1049664,13.026411,-1.117022,-0.18631437,-0.6819732,23.089512,4.6313167,-44.400673,
31173060,0.32428753,1.5806564,9.400556,-0.2162086,-0.5820598,-0.4825026,22.782831,3.9621487,-44.477943,
31173080,1.3693149,1.2396001,4.8380675,0.0016377922,0.10596728,-0.6686574,22.166792,4.902862,-45.045837,
31173100,-1.0230408,1.3034652,5.0648685,-0.11887015,0.8278165,-0.7090042,21.784922,3.3411236,-45.57892,
31173120,-2.319722,0.9982556,6.1424055,0.06395571,0.92275804,-0.46319473,22.936514,4.3283734,-44.787888,14.0
31173140,-2.2280946,0.20984378,5.743559,0.35264212,0.22514364,-0.25932992,23.324997,3.4863997,-47.244705,
31173160,-2.5727441,0.62396216,4.7293735,0.3868637,-0.22612861,-0.12563935,22.558714,1.9165082,-47.942024,
31173180,-3.680653,0.95753264,7.0101686,0.6453233,0.14591467,0.1667755,22.865808,2.2183115,-47.78312,22.0
31173200,-3.5099752,-0.29260784,8.212099,1.2542546,0.46203163,0.6063299,22.715876,-0.079286575,-48.45668,
31173220,-2.9299698,-0.34171513,6.553231,1.2835493,0.5228848,0.87197995,22.793674,-0.59636784,-48.60353,35.0
31173240,-2.7952242,1.2342104,8.318398,0.72029114,0.21568945,0.93855894,22.797615,-2.1684833,-50.210243,
31173260,-1.9154849,0.61258364,9.94433,0.06741782,-0.35116392,0.78116626,21.646217,-4.171383,-49.90616,
31173280,-3.1009474,1.1776171,14.800564,-0.32699597,0.11808467,0.6796999,21.492151,-3.8812156,-50.068115,52.0
31173300,-4.1369915,1.4662722,17.765266,0.16555521,0.6136985,0.68862146,22.262032,-4.819595,-49.49643,
31173320,-2.927874,1.6028146,14.168457,0.2979142,-0.11587383,0.66558516,21.725405,-4.7069945,-51.29087,98.0
31173340,0.5078411,0.079589635,10.266222,-0.497305,-1.2533089,0.3393482,21.339134,-4.545733,-49.98684,
31173360,0.94381815,-1.5613132,12.532346,-1.5206237,-1.1731478,-0.061457217,20.571892,-5.1620975,-51.00476,
31173380,-1.3525474,-2.3602052,17.365223,-1.4971879,-0.14982913,0.075961776,19.185358,-3.274898,-51.602776,139.0
31173400,-0.27068946,-2.6362844,16.581001,-0.7461772,0.31902003,0.45239928,18.340464,-2.7972865,-53.331726,
31173420,3.7234716,-2.2389343,11.133984,-0.2982339,0.176541,0.37450188,19.261124,-2.2453418,-51.844963,189.0
31173440,5.164053,-1.2316355,7.213185,-0.35615757,0.09757833,-0.18129936,17.491467,-1.686028,-52.1276,
31173460,2.727252,-0.07312211,5.6866665,-0.3931311,0.0958029,-0.47642174,18.10489,-0.71042395,-51.581963,
31173480,0.9923267,0.18199632,3.9436553,-0.4371176,0.14844468,-0.3884931,18.181236,0.021997452,-51.97547,210.0
31173500,0.14911817,0.16912065,3.8038201,-0.5463071,0.42434788,-0.14428145,17.95039,-0.4144659,-51.357094,
31173520,-0.15061608,-0.0054498576,6.167858,-0.37599814,0.547519,0.030954394,17.71952,-0.27171707,-51.441864,233.0
31173540,0.38926488,-0.57766974,5.961847,0.21668786,-0.019733794,0.09793283,17.793512,0.998641,-50.371384,
31173560,0.78990865,-0.87800294,3.221719,0.3463837,-0.9028373,0.080489144,17.794363,0.6254859,-50.676582,
31173580,1.2504394,-1.9904034,4.3245378,-0.12592751,-0.64491034,0.13721442,16.872429,-0.054178715,-50.846413,
31173600,1.4558516,-4.388576,10.225499,-0.43445447,0.36376107,0.22856078,15.642416,-0.44369364,-51.027245,
31173620,0.06587526,-2.816544,16.94871,0.0763394,0.5069059,0.38768452,17.257114,-0.55616665,-50.289352,184.0
31173640,3.4997938,-1.3564998,13.9277115,1.2232287,-0.22479703,0.5926146,17.71901,-0.77143526,-50.352745,
31173660,5.612435,-0.56055933,6.816647,0.9708944,-0.591514,-0.03682299,16.563946,-1.2782383,-48.595825,
31173680,2.4185343,-1.2463076,11.065115,-0.64044976,-0.2552902,-0.8245853,14.951367,-2.2794414,-49.86245,155.0
31173700,-0.71594906,-2.8273237,18.951029,-0.93912303,0.3250121,-0.7516148,16.33386,-1.1459122,-49.376892,
31173720,-0.054198056,-2.110177,19.718182,-0.08331698,0.18466362,-0.34534994,16.946999,-0.02174139,-48.755608,128.0
31173740,1.47262,-0.7675114,13.926214,0.35530528,-0.319206,-0.36891887,15.255235,-0.053212643,-49.184235,
31173760,0.8249425,0.29727873,9.803895,-0.2127465,-0.5228045,-0.48902735,16.329636,1.0088906,-48.24121,
31173780,-0.05419807,1.5450236,11.029182,-0.8096935,-0.26181495,-0.32697412,15.018951,2.1154613,-46.893745,98.0
31173800,0.52401054,1.8091252,10.942945,-0.7685477,-0.016271703,-0.2571994,14.250174,3.183877,-48.627663,
31173820,0.4668185,1.84895,8.668439,-0.68345976,-0.17739281,-0.40553734,13.01699,4.4286003,-47.97631,48.0
31173840,0.046112582,1.4477074,7.1823435,-0.86428833,-0.1536907,-0.49555206,14.013506,6.008943,-46.80909,
31173860,-0.52371186,0.8170976,8.090828,-0.881732,0.09797781,-0.5145937,14.012943,6.233531,-46.57955,
31173880,-0.95040655,0.60719377,8.892115,-0.5694766,0.053636216,-0.4963511,12.7045355,7.237443,-47.165405,16.0
31173900,-0.4964633,0.3251262,9.303239,-0.10102698,-0.3527618,-0.3834331,12.242363,7.5287323,-46.948128,
31173920,-0.17666689,0.20475337,8.571122,0.5850027,-0.3084202,-0.18316357,11.779462,7.540259,-45.721657,
31173940,0.19732717,0.47005263,6.4475303,1.0610424,-0.017736433,-0.07490617,11.16594,7.0724792,-46.81485,
31173960,-0.3287798,0.6059961,5.2728467,1.1583807,0.28519788,-0.09607829,11.939419,5.0007367,-48.08712,
31173980,-1.0450277,0.25505844,5.683073,1.0731597,0.29119,-0.037888262,10.860411,5.374922,-46.648026,
31174000,-1.8139765,-0.40100324,6.811942,0.94333076,0.30703577,0.2290934,11.480282,3.0083432,-47.765945,
31174020,-2.3098407,-0.56718963,8.76785,0.90111965,0.6429932,0.6132541,11.634163,3.2271585,-48.074173,
31174040,-1.9088974,-0.05785095,11.806216,0.9321455,0.7379349,0.83482885,12.482566,1.6173415,-48.1118,
31174060,0.19253623,-1.0417937,13.082407,1.0017871,-0.103356995,0.63895357,13.252472,0.53386927,-47.383667,
31174080,-0.69319195,-0.4075908,13.086,0.49991482,-0.64491034,0.30326238,10.947673,-0.6954775,-48.43273,15.0
31174100,-3.4414046,0.92758906,14.937105,0.4707532,0.6955906,0.44307822,11.871007,-0.9751301,-48.329155,
31174120,-2.588914,-0.43633658,13.869921,0.2794053,0.80824226,0.57530403,12.714492,0.013240814,-47.158882,
31174140,-0.67552525,-0.64025164,13.840876,-0.16574174,-0.5518329,0.41205242,12.639875,-1.6105843,-47.219315,
31174160,0.7312195,-0.5249693,13.905553,-0.5295292,-1.4863353,0.17223497,12.177122,-1.4562807,-46.304016,
31174180,0.8102703,-0.7947599,12.803633,-0.6769351,-0.81814885,0.19939919,10.7166,-0.8394394,-47.97252,14.0
31174200,1.9723766,-1.2537937,12.103555,-0.7788009,0.04444832,0.33122557,10.484206,-0.89348364,-46.430023,
31174220,2.5951583,-1.2822827,11.414598,-0.70516455,0.18879153,0.17569709,10.86882,-0.091953754,-47.435715,
31174240,2.3912864,-0.5025116,9.857792,-0.41474706,0.11049466,-0.06491932,10.559601,0.28579807,-46.519196,
31174260,1.3750043,0.29398492,7.4991446,-0.030186957,0.16429047,-0.22803782,11.712593,0.7478509,-46.341095,
31174280,0.47340602,0.054736547,4.798243,0.10257151,-0.020000126,-0.21099359,11.942624,0.9057102,-45.872917,20.0
31174300,-0.17726578,-0.014432905,3.8843684,0.11721888,-0.054221716,-4.7088042E-4,12.55967,0.16873884,-46.468094,
31174320,0.75098217,0.26973075,3.3205323,0.25024366,0.07627306,0.27956027,11.327873,-0.41409445,-44.789566,36.0
31174340,2.7308452,-0.3342293,2.833352,0.24944471,-0.0891091,0.19979866,11.7922535,-1.8202171,-45.612946,
31174360,1.8316426,-0.66270924,3.4678543,0.15077469,-0.17233281,0.03761229,10.944647,-1.6682758,-44.47505,
31174380,1.0947334,-1.9835163,5.3102765,-0.07572697,0.023542523,0.12829284,10.792547,-3.502801,-43.761154,62.0
31174400,2.2203088,-4.1813674,9.808986,-0.2867823,0.18639468,0.29007977,9.794705,-4.4865565,-44.471016,
31174420,3.3440876,-5.282389,15.317688,-0.07506118,0.4440553,0.3573245,9.948279,-4.4807487,-44.235115,98.0
31174440,2.556574,-0.6677998,18.94085,0.99366444,1.1007903,0.42603403,9.641253,-5.145283,-44.002914,
31174460,5.246397,-0.6133025,13.086001,2.0065968,0.8840091,-0.10313566,8.949939,-6.036771,-43.777634,
31174480,2.8676867,1.1476736,6.834999,0.7466565,-0.95383674,-0.98836964,8.798807,-9.331488,-42.118217,129.0
31174500,1.9301564,-1.1319236,11.287295,-0.8344609,-1.398318,-1.2741265,7.3378277,-9.504549,-42.384697,
31174520,-0.71714675,-0.2680542,18.842337,-0.69890606,0.005965665,-0.7980869,7.1050367,-8.829656,-41.392334,153.0
31174540,0.07905042,-0.33572644,18.02937,0.04957465,0.6508496,-0.38023734,6.1030426,-7.587221,-41.122124,
31174560,1.9026084,0.26224488,13.452807,0.10643309,-0.1799228,-0.5323037,3.947236,-7.519562,-39.396732,
31174580,1.0552078,2.0160346,10.14555,-0.16782789,-0.91566485,-0.88512784,3.4071026,-5.8406353,-39.971283,180.0
31174600,-2.027174,2.9026608,8.175867,-0.36494604,-0.5548956,-1.017398,3.094761,-4.5529513,-37.362972,
31174620,-3.6016023,3.726406,6.828411,-0.55988926,-0.051824875,-0.59062684,1.4012413,-3.5479264,-37.494118,193.0
31174640,0.82643974,3.3059998,6.0085583,-0.9967804,-0.088310145,0.013377544,1.5502663,-1.9618945,-35.10993,
31174660,5.661713,1.8908708,7.422789,-1.3844032,0.019547783,-0.16918199,2.0846548,1.5011244,-35.755795,
31174680,4.4220533,0.84195065,10.97169,-1.1833347,0.41129845,-0.904347,1.5422735,3.137616,-34.240593,210.0
31174700,-0.46562153,1.0192161,12.569175,-0.1867807,0.53460264,-1.2337798,2.2315655,4.6349516,-33.38958,
31174720,-2.7919307,0.734753,9.730534,1.0903372,0.27854,-0.92485327,2.9207916,5.5542326,-31.75806,184.0
31174740,-2.4376988,0.80601853,2.673753,1.6796942,-0.50336343,-0.5540084,3.151433,5.703985,-31.831436,
31174760,-1.8786546,0.90333486,0.0039923936,1.0212282,-0.7354578,-0.41965204,4.6890593,6.388356,-31.95588,
31174780,-2.5866039,0.4499905,3.8661025,0.3859316,-0.08564697,-0.36545676,4.6887913,6.898497,-32.348705,158.0
31174800,-4.832579,0.18798503,7.768038,0.5057738,0.540728,-0.029765628,4.764535,7.1323595,-31.575706,
31174820,-4.0321894,-0.40699193,8.4040365,0.98154706,1.002786,0.6876893,6.919262,6.3554516,-31.435734,130.0
31174840,-1.4980727,0.3844143,9.532606,0.97675335,0.56842476,0.91498995,8.535383,6.5134764,-32.32595,
31174860,0.0694685,1.1276114,9.561652,0.5614338,-0.42679763,0.53841937,9.304444,6.23728,-31.839325,
31174880,-2.14066,0.7766739,10.623149,-0.34936655,-0.3144123,0.1946055,8.997907,5.276768,-31.681068,108.0
31174900,-4.5768614,0.9533405,17.886242,-0.7540335,0.8531165,0.4352219,8.998229,5.4172287,-32.146976,
31174920,-3.6285517,-0.5615003,20.262554,-0.06454169,0.47787738,0.5546646,10.845753,5.353009,-33.338394,76.0
31174940,-0.8207512,-0.51089585,13.615701,0.21761997,-1.0887258,0.29540607,10.152933,6.001211,-33.67266,
31174960,-1.0782652,-1.3142794,9.036743,-0.6300635,-1.3655611,-0.08902091,11.002304,4.306108,-34.483112,
31174980,-3.0329757,-2.5883749,11.865503,-1.6838754,-0.3169423,0.15825337,10.771761,5.0234375,-35.580505,32.0
31175000,-3.0554333,-2.8303177,16.357025,-1.5903986,0.46416214,0.7453468,9.84765,5.747633,-35.534492,
31175020,0.74229854,-2.609934,15.854575,-0.5340566,0.71742857,1.1952873,10.771064,5.0327024,-34.96157,14.0
31175040,5.5823636,-2.3838608,8.336066,0.2321342,0.02673833,0.8436172,12.233504,4.8245025,-35.541843,
31175060,4.248081,-0.90135884,2.8600018,-0.20022964,-0.20189385,0.12855916,11.540502,5.9816875,-36.346302,
31175080,-0.062582254,-0.34171516,3.4388092,-0.84498036,0.44964796,0.07582861,11.853842,3.0887175,-37.85265,11.0
31175100,-1.6666547,-0.43992978,7.526993,-1.1528416,0.84645855,0.53801984,14.081309,5.1183825,-37.433838,
31175120,-0.29135048,-0.32015583,11.902932,-0.5431114,0.5774795,0.9847647,14.467767,4.8822584,-38.81437,
31175140,3.849833,-0.71780527,9.687714,0.44665164,-0.3563571,0.8675857,13.699168,3.632664,-37.81305,
31175160,4.1127367,-0.83937573,5.0545588,0.8241544,-0.4117508,0.37183875,13.622639,3.409225,-37.889748,
31175180,2.938653,-1.3564998,5.632169,0.53826433,0.3268763,0.19793443,12.7009,3.5229383,-39.229485,10.0
31175200,1.7918177,-2.7449791,10.276403,0.6683596,0.7529817,0.24786866,14.701227,2.9682841,-38.86378,
31175220,2.19845,-4.060695,11.498696,1.1935345,0.33420002,0.33468765,13.781122,1.3235116,-39.48668,
31175240,2.3080432,-1.6113186,10.887251,1.4021931,-0.012809597,0.4370861,13.0135975,0.34904718,-39.804012,
31175260,5.6979446,-1.0076584,6.856558,1.0430661,0.30117682,0.15199496,13.7850485,-1.5509658,-39.453293,
31175280,1.491185,0.6021034,10.762086,0.12267837,0.813968,-0.63416946,13.9390135,-1.7674279,-39.292194,
31175300,-1.3528469,-1.3981211,15.153897,-0.15522225,-0.3269292,-1.0104738,15.321126,-0.91829395,-38.106915,
31175320,-2.0640044,-0.08360235,13.523175,0.02360885,-0.723074,-0.65867054,14.399812,-0.30370522,-40.458412,
31175340,-0.04944989,0.1717728,11.207901,-0.25375912,-0.12799121,-0.2597294,14.400215,-0.5985236,-40.454987,
31175360,0.14193174,0.8799789,12.609001,-0.99504936,-0.5719398,-0.12590566,14.322775,-0.5927415,-39.992695,
31175380,0.9617843,2.0878987,15.662038,-0.97893727,-0.7535672,-0.09115144,14.016738,-0.98098946,-41.00178,12.0
31175400,1.3654224,1.9501588,13.34561,-0.5336572,-0.2524939,-0.31552255,13.9396305,-0.90729475,-40.927162,
31175420,-0.04162181,1.7073172,10.056019,-0.5437771,-0.04543329,-0.5291079,13.706672,0.20403719,-40.326775,25.0
31175440,-1.8352363,1.5722722,7.591072,-0.6308624,0.017284099,-0.5329695,14.3216715,0.6521282,-40.548813,
31175460,-2.7338402,1.9678257,6.767626,-0.84125197,0.14498256,-0.11298934,15.475636,1.0288954,-41.143524,
31175480,-0.43687582,1.4246509,6.7649307,-0.68758774,0.5493832,0.2649129,14.8620205,0.12815332,-41.612656,58.0
31175500,2.089755,1.2135493,6.6391683,-0.43738395,0.76323485,0.16690865,15.553822,0.28954172,-41.365166,
31175520,1.4471681,1.1240182,7.073348,-0.051758546,0.37388104,-0.17264411,16.16715,1.7729716,-41.36709,93.0
31175540,-0.7725422,1.0629336,5.7570333,0.38579845,0.009694098,-0.20540094,16.782108,2.004582,-41.277092,
31175560,-1.7753494,0.6200695,4.3167515,0.3477153,-0.131187,0.06011598,16.936481,0.98663473,-40.487648,
31175580,-1.6250331,0.28320533,7.3880553,0.49365634,0.1204815,0.25865448,17.55251,1.0592542,-41.1696,120.0
31175600,-1.8022985,0.12749921,8.772342,1.047993,0.07667254,0.27396765,17.400883,0.3762064,-42.326202,
31175620,-2.5317216,-0.35399196,7.8509808,1.557322,0.14058834,0.34161186,16.479588,-1.3974442,-41.70952,144.0
31175640,-3.6917322,-0.30578294,7.85667,1.596071,0.08479518,0.6812977,17.941027,-1.8093863,-41.126717,
31175660,-1.3303891,1.2431934,7.2024055,1.1685008,-0.276196,0.9476136,18.32908,-3.152236,-42.571777,
31175680,2.0466366,0.778171,5.794463,0.031198874,2.398938E-4,0.44667348,19.020987,-4.0053377,-41.151806,159.0
31175700,-3.0159078,1.3896167,12.917118,-1.0037047,0.5559967,0.051771417,17.790264,-4.313042,-40.79195,
31175720,-5.1712394,0.5449114,19.997852,-0.78812194,0.3143595,0.26504606,20.328823,-4.277995,-40.961357,170.0
31175740,-1.3187112,-0.60132515,17.320307,-0.09596697,-0.60496294,0.56438506,18.945494,-4.676795,-41.610207,
31175760,4.102257,-1.5358611,13.531559,-0.25176173,-1.0576999,0.37037402,19.250507,-3.913076,-40.1412,
31175780,4.781674,-2.684493,13.938191,-1.1630946,-1.0153557,-0.37437838,18.481586,-2.9874358,-41.563927,
31175800,0.061982647,-2.9875212,18.080275,-1.5330074,-0.1270591,-0.64775157,19.713116,-2.8352485,-42.46364,
31175820,-0.8938133,-2.640177,17.47871,-0.7756051,0.69039744,-0.12896827,19.94399,-2.5438771,-42.925568,152.0
31175840,0.82703865,-1.5903583,12.707215,0.1776726,0.8543149,0.25492606,20.631779,-0.44763947,-41.46247,
31175860,3.1883814,-0.8300933,4.607803,0.37181687,-0.24663493,0.13388549,21.710333,-1.177609,-42.04625,
31175880,3.2057488,0.06791168,1.227483,-0.26281387,-0.47540024,-0.22883675,21.018007,-1.7661686,-41.28283,123.0
31175900,0.15861455,0.68748504,4.183675,-0.7795998,0.24977785,-0.39022416,22.786379,-1.0057502,-41.479797,
31175920,-1.8205639,0.19157827,7.39584,-0.4799945,0.49452215,-0.1777041,21.861818,-0.20321655,-41.12518,95.0
31175940,-0.8965083,-0.69714427,6.5403557,0.29232156,0.2673547,0.089277565,23.551939,0.71849966,-40.31998,
31175960,0.5213157,-1.3702737,3.7427354,0.45876896,-0.39950025,0.09167441,23.322857,0.113779545,-41.092506,
31175980,1.4983714,-1.809844,3.6043963,0.20070891,-0.44477394,0.06917071,24.09309,-0.39511108,-41.37698,23.0
31176000,1.4330946,-3.0021935,6.5744905,0.21881838,0.17454363,0.123499155,23.78317,0.93269205,-41.013157,
31176020,1.8541,-4.0421305,8.608252,0.5072385,0.14218624,0.2401455,24.322523,0.6390958,-41.460632,12.0
31176040,2.1996477,-3.1626906,11.18968,0.71709543,0.12753886,0.20605707,24.629627,0.4342327,-40.676796,
31176060,1.4441737,1.1497697,12.649425,1.4262946,0.028469376,0.22243552,25.55513,-1.6834002,-40.24234,
31176080,2.5296252,-0.1890034,4.388317,1.3549218,-0.5772661,-0.20992832,25.17145,-1.9184575,-40.790844,
31176100,-1.2327735,0.21223931,7.8860154,-0.47813025,-0.87114567,-0.61379635,23.17154,-1.7311678,-41.074905,
31176120,-3.4584723,-2.1934202,16.515429,-1.29319,-0.5856551,-0.37877256,23.707062,0.77600765,-41.55491,
31176140,-1.0462257,-2.250612,20.012527,-0.8492414,-0.6341245,0.17489812,23.477474,0.10569143,-41.785004,
31176160,0.8572815,-0.22553447,15.885417,-0.21128175,-0.6350566,0.24360761,23.704792,1.3127866,-40.168304,
31176180,1.6432978,1.7681025,10.5036745,-0.25296018,-0.35356075,0.058118604,22.553581,0.60993195,-41.659065,
31176200,-0.38746902,4.428282,8.366906,-0.9933183,-0.42706394,-0.17277727,22.474617,1.7938275,-41.28783,
31176220,1.3037388,3.1640677,10.875572,-1.7573786,-0.11614015,-0.029765628,22.318438,3.6317902,-41.467754,14.0
31176240,2.8778677,0.6757643,16.534891,-1.6888022,0.64392537,-0.040151946,22.856506,4.1512604,-41.769913,
31176260,2.573642,-0.4881388,17.353846,-0.5276651,0.88813704,-0.23110043,22.930166,5.7878246,-40.858444,
31176280,1.1995356,-0.8723136,11.187881,0.36462632,0.35856792,-0.4071352,22.929121,5.8017225,-39.93005,15.0
31176300,-0.5482655,-0.6965454,6.2660723,0.5021785,0.40051264,-0.25719938,23.391495,5.3630247,-40.145615,
31176320,-1.2728978,-0.31895813,5.298599,0.55970275,0.87002754,0.051860183,21.696121,6.537463,-38.808506,
31176340,-0.7500846,-0.29440448,3.824481,0.8967254,0.36535898,0.18142284,24.00432,4.4651623,-36.71516,
31176360,-0.6692372,-0.10007127,2.9977417,0.6675607,-0.43412128,0.19673601,23.00395,5.396565,-37.52465,
31176380,-0.93812966,-0.3303366,6.5205927,0.7455912,0.18160102,0.39700556,25.389967,4.977784,-38.311653,17.0
31176400,-0.17007934,-0.053359427,7.384462,1.0550503,0.46083316,0.4504019,23.852104,4.1517954,-37.798664,
31176420,-1.5265191,0.01610944,7.4476423,1.0128392,0.34019208,0.28728345,23.697788,3.9387708,-37.1036,20.0
31176440,-3.2491677,-0.41268116,11.095657,0.8318775,0.23659524,0.5747714,23.31104,4.3234615,-35.647408,
31176460,-3.8148,1.2357074,14.954088,1.3131104,0.34738266,1.1434889,23.929098,2.8494446,-36.234024,
31176480,1.2603208,0.7398434,9.490986,1.4032583,-0.14170647,1.1589353,24.082855,2.3462706,-35.527935,23.0
31176500,3.2599466,1.1087471,7.21588,-0.02259697,-0.010545913,0.21750866,23.699318,1.81987,-35.840904,
31176520,-2.0122023,0.3260245,16.758266,-0.66614926,-0.12905647,-0.35080943,23.083334,1.9637313,-35.470985,36.0
31176540,-4.3016806,-0.21385649,19.694225,-0.037776947,-0.8411852,-0.13496038,23.004568,3.5068843,-35.722958,
31176560,-2.1430552,-0.4309467,13.379745,0.34412,-0.79617774,0.232955,21.387638,3.9384964,-34.83959,
31176580,3.2443757,-2.448239,6.1657615,-0.8188814,-0.42386818,0.066773884,21.540894,3.8038452,-34.13778,85.0
31176600,2.0987382,-3.0270467,11.310052,-1.8993249,0.23286682,-0.37424523,22.541254,4.3198957,-35.12484,
31176620,-0.51532775,-3.2010183,16.202517,-1.307571,0.31649,-0.29062203,20.766478,7.624808,-34.20129,165.0
31176640,-0.8782426,-2.4245837,12.775187,-0.35922024,0.19238678,0.0622465,20.687008,7.802319,-32.116,
31176660,1.2186993,-1.3499122,6.539457,-0.06467486,0.1574994,0.28661764,20.918375,8.231834,-33.19857,
31176680,3.0242913,-0.10096955,1.7251437,-0.4789292,0.25230786,0.009915434,20.839844,8.97582,-32.667465,243.0
31176700,0.36710668,0.34638605,3.100448,-1.0170205,0.27680895,-0.39088994,20.760311,9.950183,-31.519993,
31176720,-2.8970323,-0.2336192,6.184326,-1.0355294,0.31755528,-0.16305672,20.52897,10.750483,-31.99931,
31176740,-3.195569,-0.35129705,8.801985,-0.50902295,0.44365585,0.423504,21.140259,12.478188,-30.456467,290.0
31176760,0.53209525,-0.5543139,8.405834,0.14198625,0.18226679,0.7113915,20.447763,12.326063,-30.085022,
31176780,4.3918104,-1.4747764,8.178563,0.56462955,-0.22999018,0.38382292,21.214792,13.162384,-29.147038,321.0
31176800,4.3639627,-2.6982672,7.5195065,0.9321455,-0.3170755,-0.042815108,21.447348,12.345871,-29.750858,
31176820,1.9762694,-3.3872669,7.384761,0.96294934,-0.0796105,-0.014985099,20.908846,11.832191,-29.061863,
31176840,0.99981236,-2.710544,10.396177,1.058246,0.40517318,0.321505,19.443657,13.741386,-28.114449,
31176860,1.4795071,0.9916681,11.022894,1.5566561,0.23606262,0.603933,22.213594,13.1926155,-28.116573,
31176880,7.596361,-0.47166988,3.8556223,1.3951356,-0.8760725,0.19127658,20.676464,13.080509,-29.159485,
31176900,2.9233816,0.1978664,6.7864904,-0.48159236,-0.8317309,-0.8506844,21.676569,14.034154,-30.461143,
31176920,-2.3167276,-1.6840814,19.079784,-1.4955902,0.23912522,-0.9753202,21.211166,15.815747,-29.177853,
31176940,-3.0419586,-1.000771,22.559221,-0.30915287,0.5105011,-0.5556063,21.054419,16.069271,-26.863224,290.0
31176960,0.8006884,-2.21468,12.370649,0.6023132,-0.7033667,-0.4983484,22.437162,19.080898,-28.953026,
31176980,-0.05809076,1.0937753,7.29014,-0.32819444,-1.159699,-0.7851707,20.744633,18.987305,-28.607132,228.0
31177000,-3.2548568,3.280847,11.128594,-1.3512468,0.05523412,-0.5344342,22.892815,22.060404,-27.351166,
31177020,-1.4891325,3.357759,14.996522,-1.3923926,0.52994215,0.017638594,23.50688,22.882809,-27.190655,
31177040,2.5856192,2.547232,14.062457,-0.79557884,0.00782989,-0.069713004,25.040943,24.048782,-24.689766,179.0
31177060,4.1208215,1.7055206,9.581415,-0.3552255,-0.31294757,-0.6847695,24.578867,25.207153,-25.643261,
31177080,1.9765689,0.58503556,7.8105583,-0.26827335,-0.44211078,-1.1958299,27.881456,29.08535,-25.91555,57.0
31177100,-2.0655017,-0.4713704,6.5532303,-0.2881139,-0.24343914,-1.0897028,29.6485,30.876476,-26.20187,
31177120,-4.1914887,0.4404086,9.128969,-0.2672081,0.38493317,-0.24361728,30.49256,32.5085,-26.354538,
31177140,-0.79949135,0.4089679,10.422827,0.3989811,0.61875844,0.4089898,34.952896,32.80542,-25.705357,17.0
31177160,2.2712126,0.11132974,7.829721,1.1533208,0.13646045,0.26504606,37.799847,32.69078,-26.329655,
31177180,1.599281,0.29548213,4.243989,1.356653,-0.36381388,-0.20060726,42.570724,31.579247,-26.50764,15.0
31177200,-1.4354907,0.14366867,3.7598033,1.1025876,0.04764411,-0.229902,46.41935,32.831524,-30.372906,
31177220,-2.6847327,-0.7357713,6.6915693,0.7835412,0.7174285,0.23761553,51.806236,30.49025,-29.592743,
31177240,-1.7825359,-1.2445111,11.000136,0.7557112,0.944596,0.69993985,55.423927,29.498194,-30.497238,
31177260,-1.6220386,0.53143674,13.948072,1.1224282,0.9672328,0.7898215,61.121605,24.00851,-28.589539,
31177280,-1.1833668,1.2530748,11.785255,1.4908762,0.23925838,0.5559962,64.97782,18.1404,-30.437603,14.0
31177300,-2.7015016,1.6132948,8.703471,0.7800791,-0.6426467,0.32177135,67.75438,12.872221,-30.539677,
31177320,-3.1024446,1.3569785,12.193384,-0.33272177,-0.25009704,0.5360224,68.686615,8.204625,-33.016052,
31177340,-1.0426322,-0.41896933,17.015184,-0.81968033,-0.040772762,0.6075283,69.0043,1.9972668,-34.32915,
31177360,0.637197,-1.095093,19.004028,-0.5183439,-0.5033635,0.35572663,68.47328,-3.1748543,-34.591988,
31177380,0.8650668,-0.21265876,15.527592,0.040519908,-0.67553663,0.17196865,66.86395,-6.245574,-36.221493,13.0
31177400,2.3667326,-0.2776361,9.501166,-0.149097,-0.23225386,0.044935975,64.10477,-11.194946,-39.095943,
31177420,2.3325968,-0.799551,8.956795,-0.8661525,0.32208264,-0.13962093,60.955063,-12.742375,-40.858784,
31177440,1.8891339,-1.4648951,11.380718,-1.0035715,0.048443057,-0.35160834,58.187153,-14.681028,-39.589684,
31177460,0.98843396,-1.1558784,11.382814,-0.4273971,-0.5423787,-0.4569363,55.960384,-14.910931,-42.892456,
31177480,1.1980383,-0.9025565,7.494354,0.2622279,-0.5069587,-0.28742623,51.11517,-15.499245,-42.92878,
31177500,1.5768234,-0.6405511,2.8896456,0.30909947,-0.027590131,-0.1967457,46.500282,-14.775906,-44.212677,
31177520,1.0815581,-0.6648053,2.303053,-0.23005702,0.20530312,-0.31871834,44.65673,-15.994774,-45.01825,
31177540,-1.3803948,-0.86363,5.9501686,-0.40635815,0.05550043,-0.35626888,40.652702,-13.103817,-44.919167,15.0
31177560,-2.9922523,-0.45789585,7.3317604,0.07700519,-0.1461007,0.07103494,39.420708,-12.164335,-44.960693,
31177580,-0.4953511,-0.6854663,5.891993,0.5511806,-0.29603654,0.51644826,37.34529,-12.575954,-45.78138,23.0
31177600,4.181308,-2.3069057,4.0044413,0.5330711,-0.2470344,0.4320261,34.19153,-11.970898,-46.56327,
31177620,5.1299167,-2.9593744,5.66331,0.2931205,0.40504003,-0.077702485,33.730156,-12.703365,-45.792442,
31177640,1.3923715,-2.8381035,9.646392,0.5969869,0.90278435,-0.086757235,33.187256,-10.625805,-44.359734,42.0
31177660,-1.2231915,-0.11354585,9.713466,1.0100429,0.61875844,0.474903,32.880943,-10.938032,-45.21495,
31177680,2.9964437,-2.0038779,7.1353316,0.26475787,-0.69497776,0.52523667,31.42069,-12.206239,-44.772285,69.0
31177700,1.61575,-0.1821164,11.702012,-0.9005072,-0.9347952,-0.10766302,30.11343,-11.2899275,-46.285675,
31177720,-1.6561743,-0.8747091,17.75778,-1.0584326,0.13406363,-0.21019463,29.49561,-9.674293,-46.0876,
31177740,-1.3031408,-0.026110865,17.676334,-0.42646497,0.86909544,0.23628393,29.262474,-8.560644,-45.332474,113.0
31177760,4.0160193,-0.4093874,12.252972,-0.39903444,0.22980417,-0.16065988,28.953426,-8.18521,-44.570686,
31177780,2.0966423,-0.5082009,10.951927,-1.1179541,-0.34064442,-0.77877903,28.181671,-6.498204,-44.37729,167.0
31177800,-2.0262759,1.9205148,12.079899,-1.5708243,0.06069359,-0.3783731,27.949871,-5.112902,-45.172913,
31177820,-0.5036497,1.5564022,13.407893,-1.6997211,0.66283375,0.15039706,26.794344,-4.093916,-44.903923,
31177840,1.9166818,0.12360656,17.241257,-1.30331,0.38679737,0.016706493,26.329102,-2.2420921,-43.853592,204.0
31177860,1.9334502,0.5673689,16.046211,-0.24070965,-0.3831218,-0.53882843,25.557962,-1.0698595,-43.57682,
31177880,-0.060785577,0.44280413,9.23946,0.1365268,-0.66408515,-1.0003538,25.482328,-1.4499726,-44.270737,230.0
31177900,-4.6095,-0.3489016,6.06575,-0.37746286,-0.012809582,-0.6390964,23.864182,-0.061359882,-43.47586,
31177920,-5.7766967,0.12899637,10.3845,-0.3628155,0.5982522,0.4177782,23.863155,0.31411123,-43.015945,
31177940,-0.014972031,0.7736795,9.720352,0.37492386,0.6083722,1.0632391,23.399374,1.7846727,-42.812363,250.0
31177960,5.613804,0.35267416,6.9631567,0.8590418,0.35270894,0.70939404,23.863224,-0.0486207,-42.624832,
31177980,2.7829466,0.17780426,5.9480724,1.2116439,0.15763256,-0.09847513,23.018412,-2.249434,-41.07271,
31178000,-1.7540896,0.43501878,4.846452,1.5645125,0.16455679,-0.10020618,23.479519,-1.5134926,-41.611443,
31178020,-1.9074001,-0.30787903,3.7960348,1.4726335,0.3073021,0.31431448,23.481352,-3.4193869,-40.892883,
31178040,-1.6723437,-1.585268,6.9436936,1.2045866,0.41476053,0.50619507,23.710646,-4.4095297,-38.3221,210.0
31178060,-1.0842538,-1.0082572,7.373083,1.1031202,0.08559412,0.6476088,22.09748,-5.041051,-39.515644,
31178080,-2.8000152,1.2970917,7.912365,0.7848728,0.4722848,0.79661256,22.63661,-5.548813,-39.496357,184.0
31178100,-3.2222185,1.7369612,10.429714,0.1861947,0.6959901,1.0762441,23.02105,-6.119872,-38.62898,
31178120,-1.1261747,1.1030579,14.198101,-0.21101543,0.5978527,1.0438868,23.098467,-6.9213476,-38.076096,
31178140,1.5011091,-1.2309511,13.426457,-0.3178081,-0.4899145,0.43535507,22.175714,-7.879616,-37.159367,151.0
31178160,0.15331024,-2.3634992,14.342428,-1.0472474,-1.7261528,-0.40393943,21.559048,-6.8582497,-37.263912,
31178180,-5.5173864,-1.5313696,19.90982,-1.0336653,-0.85436773,-0.0982088,21.789051,-5.1803904,-38.670498,69.0
31178200,-4.1223197,-1.1196468,18.758194,-0.122998044,0.29292107,0.9782399,20.712881,-5.133451,-39.39425,
31178220,3.0862741,-0.9220199,9.512244,0.17168048,0.47747794,1.1883632,20.8667,-5.4926906,-38.921974,
31178240,4.712505,0.12121107,4.9653277,-0.74058455,0.38986,0.32110557,21.098644,-6.735216,-38.437523,15.0
31178260,-0.17397203,0.37962332,9.055906,-1.2132952,0.10610045,-0.15693147,22.404915,-5.6121206,-38.5728,
31178280,-1.2216945,0.3942956,9.8931265,-0.93472886,-0.63212717,0.16704181,20.021233,-4.717944,-40.49962,13.0
31178300,0.7470895,-0.3638733,8.932838,-0.40196392,-0.3531613,0.51351875,19.405119,-4.7894044,-39.740295,
31178320,4.1516633,-1.3130816,6.4888515,0.0747415,0.106233604,0.5120541,20.865046,-4.095779,-39.170338,
31178340,4.868809,-0.45310494,3.4846227,0.22547628,-0.27313334,-0.08342827,21.096128,-4.458483,-39.005623,12.0
31178360,2.5371108,0.665883,0.9936244,0.20310576,-0.15422332,-0.5952874,21.403418,-3.7974224,-39.46993,
31178380,-0.605757,-0.4039976,1.5562625,-0.2463023,-0.029853811,-0.6944901,22.174938,-4.6852584,-40.446423,
31178400,-1.3441632,-1.615511,7.5293884,-0.30462548,0.17800574,-0.27664047,21.559196,-3.531539,-41.558456,
31178420,1.656473,-2.4194932,10.47942,0.6522475,0.15203993,0.04000913,20.248238,-2.7830682,-39.51041,
31178440,5.572781,-3.199521,5.5429378,1.193934,-0.22919123,-0.19900936,21.635157,-3.9517522,-40.158817,
31178460,4.2962904,-1.2693641,7.188032,0.5471859,-0.0640754,-0.6319058,20.942987,-4.4700828,-39.628357,
31178480,3.3952909,-0.8833927,11.262742,0.2174868,0.17094836,-0.6602684,22.250555,-4.2325997,-39.83073,
31178500,2.2439642,-0.20247795,11.6133795,-9.326264E-5,0.6584396,-0.82525116,22.633045,-2.751514,-39.760986,
31178520,0.65366584,-1.0103532,13.941186,-0.23844598,0.35696995,-1.2084796,23.17122,-1.4375076,-41.155693,
31178540,-0.19253697,-3.005188,12.944069,-0.50129974,-0.78778875,-1.288907,22.554049,-0.48173904,-40.71782,14.0
31178560,-0.44795483,-3.3651087,13.857344,-1.165891,-1.1663568,-1.1449635,20.78485,-0.073308945,-41.23085,
31178580,-2.7763603,-3.9391258,17.630823,-1.5449917,-0.55076766,-0.8289796,20.704762,1.5597639,-40.400547,15.0
31178600,-3.880376,-2.2308495,20.55151,-1.326879,-0.30056387,-0.16705145,20.780859,2.2231138,-40.483715,
31178620,-0.8045817,0.34488887,18.736933,-0.49557394,-0.4816587,0.29021293,20.240168,3.185841,-39.65711,
31178640,2.7796528,2.2771416,10.932165,-0.012876425,-0.4848545,0.115243375,19.394495,3.6738765,-40.68977,27.0
31178660,2.7003028,2.912243,5.563299,-0.47799712,0.015153572,-0.44601732,18.315304,4.557045,-39.72087,
31178680,-0.47101134,2.32565,6.06605,-1.14645,0.62142164,-0.72817904,19.160269,5.5257273,-39.865837,53.0
31178700,-2.8853543,1.0580997,9.890731,-1.1319357,0.7516501,-0.5588021,20.236221,5.698744,-39.22202,
31178720,-2.8374445,0.16373083,12.500306,-0.22805968,0.36482632,-0.21858358,19.002924,7.089719,-38.649742,
31178740,-1.4983723,0.46675885,9.899414,0.9581113,0.020080417,-0.018180886,19.693117,7.4895935,-37.244328,105.0
31178760,-0.5791073,0.75571346,4.210752,1.4879467,-0.42386818,-0.08635776,19.46282,6.9010878,-36.933712,
31178780,-1.3777,0.4601713,-0.123866275,0.9125713,-0.4658129,-0.0055308864,18.926811,6.4989147,-38.6448,137.0
31178800,-1.4765135,-1.0064604,3.7966337,0.15650047,0.33033842,0.50619507,19.00264,6.2974987,-37.402462,
31178820,0.14971706,-1.6179062,12.640741,0.6294775,0.7062432,0.7999415,19.0789,7.0310793,-37.71859,
31178840,1.5765239,-1.8107424,12.953051,2.3327007,0.3686879,0.5280329,19.07916,7.0276046,-37.950687,174.0
31178860,2.3158286,-1.9517763,3.9164078,2.7518818,-0.46860924,0.11950442,19.54323,5.408476,-38.229927,
31178880,-0.7938021,0.037369322,3.0782897,1.5938072,-0.25116232,0.0055212267,18.315641,3.684172,-38.93693,202.0
31178900,-3.7549129,0.93417656,7.604845,0.32507843,0.57361794,0.57450515,18.853676,3.4804945,-38.30213,
31178920,-3.8884609,1.488131,12.941373,-0.66561663,1.1621761,1.1036747,19.315042,3.7788417,-38.526257,
31178940,-1.8463154,1.366261,19.065413,-0.65043664,1.248063,0.99022424,20.77533,4.3952894,-38.187542,238.0
31178960,-0.4117232,-0.526167,20.822798,0.06608623,-0.3249318,0.36797717,21.314896,3.8817382,-38.555084,
31178980,2.0969415,-1.5717933,13.515688,0.4285421,-2.0204318,-0.20846358,20.85283,4.5334425,-38.883656,278.0
31179000,0.40273952,-1.0843136,8.610347,-0.6387187,-1.3027107,-0.3073999,20.390245,5.626216,-39.294727,
31179020,-0.42370063,-3.1617923,11.765492,-1.7010528,0.11369044,0.24893394,18.773697,6.3422227,-39.111084,
31179040,0.374892,-3.8223457,16.823843,-1.5937275,0.3187537,0.6271025,20.387152,7.765964,-39.16482,304.0
31179060,2.8482237,-2.9860244,14.501428,-0.831132,-0.08582453,0.658439,20.540876,8.348669,-39.786804,
31179080,5.099375,-1.0938956,8.850194,-0.43765026,-0.4132155,0.2645134,20.156586,7.687599,-39.24703,
31179100,2.4005685,0.1448664,6.1966033,-0.49117976,-0.24037649,-0.34401837,20.618156,8.272657,-40.016148,
31179120,-0.7818247,0.20355567,6.7322927,-0.52779824,0.2744121,-0.3517415,20.541363,8.99348,-41.032368,
31179140,-0.95549685,-0.5294608,6.9999876,-0.21820596,0.60504323,-0.06305511,20.92555,9.294134,-41.0263,263.0
31179160,-0.8620731,-0.21984519,5.197989,0.12547468,0.047777265,0.031753343,21.773306,8.344183,-41.30374,
31179180,-0.34105662,-0.1752294,3.345086,0.26076314,-0.21587545,0.08661441,22.00259,9.235614,-41.076218,219.0
31179200,1.2189988,-1.6601267,3.5430126,0.20576891,0.01462094,0.16091654,20.697485,7.445703,-41.16533,
31179220,1.3642247,-2.5126173,7.403925,0.16835153,0.18905786,0.052126504,23.00523,7.333313,-41.10663,
31179240,1.500767,-3.207606,9.553268,0.7973896,0.20237364,0.09753337,23.082098,6.683879,-40.24599,176.0
31179260,2.946609,-4.0398207,6.7133,1.2412051,-0.10495489,0.13055652,23.3154,5.133795,-40.60915,
31179280,2.7119808,-3.2034137,7.451535,0.79193014,-0.06740436,0.1300239,22.39423,4.0821333,-41.00679,121.0
31179300,2.056518,0.5820414,12.600616,0.55996907,0.18785943,0.4113866,23.473352,3.5616972,-42.3668,
31179320,4.897855,-0.5043082,12.335617,0.5061732,0.20010996,0.09287284,24.244362,2.608262,-42.800873,
31179340,2.747314,-0.30967563,13.884293,0.06022729,0.10410307,-0.67771214,24.550781,1.9059978,-40.773186,47.0
31179360,-0.009582311,-0.8555453,13.941185,-0.119269624,-0.36501235,-1.0948961,24.550251,2.4196134,-40.933914,
31179380,-0.62581915,-0.8324888,13.842073,-0.18291911,-0.4984366,-0.9353727,24.62784,2.9907284,-42.254097,
31179400,-0.50694346,-2.2631884,13.813327,-0.40569234,-0.83026624,-0.8348385,22.324444,1.2361846,-43.916092,
31179420,-1.1031182,-2.7389903,12.87969,-0.91062725,-0.40269607,-0.3625273,23.244967,2.9477124,-43.758255,
31179440,-0.94202226,-0.7246922,15.612032,-1.1718831,0.41609216,0.17436549,22.782417,2.9546063,-42.841255,28.0
31179460,1.0192757,0.71708643,14.881111,-0.76894724,0.4744153,0.3574577,23.24538,2.1462278,-43.129906,
31179480,2.7961216,1.5546055,10.746515,-0.55895716,0.020479888,0.09580231,22.475912,2.2831216,-43.07325,16.0
31179500,1.7960098,2.212763,7.08862,-0.73485875,0.12793835,-0.28582835,23.55614,0.51781607,-43.877144,
31179520,-0.52640676,1.7001309,6.091501,-1.0441847,0.6270143,-0.5560058,24.475292,2.609448,-42.949913,
31179540,-2.908111,0.56826717,7.378473,-1.1186199,0.9660344,-0.5341679,24.322472,1.3634009,-42.320236,
31179560,-3.8645053,0.3320132,11.248069,-0.6007687,0.68280745,-0.11764987,23.783106,1.7295432,-41.950974,
31179580,-1.516937,0.66528416,10.194958,0.7541133,0.68760115,0.3966061,23.397106,2.7555707,-41.972458,
31179600,2.2050376,0.21703018,5.0201244,1.746273,0.52541476,0.42803138,24.783527,-0.36028433,-39.735184,
31179620,2.4547663,0.21223924,1.1705905,1.7525315,-0.19470334,-0.041883003,23.93958,-1.1977725,-40.675064,
31179640,-1.0300562,0.99705786,2.4252224,1.2269571,-0.43172452,-0.31525624,23.942245,-2.8976088,-40.96484,
31179660,-3.711495,0.9740015,3.9032326,1.1330807,0.4154263,0.14027706,24.405075,-3.921311,-40.864094,
31179680,-1.934948,-0.6447432,5.53635,0.9720928,0.82981384,0.9115279,23.485483,-6.4412727,-40.857788,
31179700,0.257813,-0.6348617,8.957992,0.7278812,0.6384659,1.2795763,24.79373,-7.515414,-40.038982,
31179720,0.51382977,2.7131186,13.691157,0.8446607,0.18492997,1.0461504,23.641554,-9.07377,-39.5853,
31179740,0.93393683,0.6374367,12.427543,0.81017274,-0.9611604,0.24600446,22.796572,-10.404026,-38.971863,
31179760,-3.2078454,1.3991988,14.627192,-0.104888566,-1.1495789,-0.0119224675,22.336346,-12.599003,-37.410248,
31179780,-3.2000604,0.038866486,18.907013,-0.07692538,-0.14397015,0.31165135,20.799942,-12.431349,-39.46234,
31179800,0.4419654,0.22002456,15.984829,0.54332435,0.17787257,0.49953717,20.108152,-13.099404,-39.084896,
31179820,2.5626483,0.8507198,11.273264,0.41109845,-0.70709515,-0.1149867,18.954754,-13.700759,-38.719715,
31179840,1.1686937,0.42004701,6.1070724,-0.7174151,-1.2234817,-0.59728473,18.26296,-14.368815,-38.342274,20.0
31179860,-0.32578546,-1.3609912,7.6276026,-2.1718996,-0.2670081,-0.39195526,16.875404,-12.106144,-38.480373,
31179880,-0.19702849,-3.1722727,14.059762,-2.3821557,0.4865327,-0.06971301,17.563467,-10.085927,-37.171154,52.0
31179900,1.45675,-3.2192838,15.480579,-1.4741516,-0.10442226,0.009382808,15.715266,-8.275962,-37.54761,
31179920,3.0862744,-1.7637311,11.037866,-0.7110235,-0.40895444,-0.20340359,15.790045,-7.5226936,-36.548508,
31179940,2.4092522,-1.150189,7.2598963,-0.4929108,-0.29603648,-0.55480736,14.40325,-7.0069265,-35.1961,139.0
31179960,0.10749674,-1.4705844,5.70074,-0.63712084,-0.19829862,-0.56878895,13.9385605,-4.8730245,-35.000217,
31179980,-1.5061575,-1.0567656,6.2316375,-0.5556282,0.14351782,-0.14814302,13.472905,-2.219716,-34.578236,208.0
31180000,-1.3624288,-0.8148221,6.7451677,-0.10555435,0.3560379,0.25559184,13.007423,-0.94363165,-32.59265,
31180020,0.121270746,-1.0118504,5.4042997,0.35543844,0.09105361,0.39207873,13.237673,-0.5716071,-32.591232,
31180040,2.4475799,-1.9278214,4.1718254,0.24078944,-0.4899145,0.2139134,12.928618,0.3104949,-32.454372,261.0
31180060,3.636336,-2.311098,7.282055,0.19777945,-0.35036498,-0.017515097,11.390258,0.287148,-32.492367,
31180080,2.2262976,-3.0980127,10.356053,0.8882034,0.42674476,0.0055212267,13.004388,1.3400512,-32.69656,288.0
31180100,2.0274727,-3.251024,9.434392,1.3495957,0.58506954,0.25718972,13.846892,2.9203746,-31.378399,
31180120,2.4125457,-1.7310927,8.936133,0.98727286,-0.11480856,0.28848183,13.231394,3.274927,-31.707348,
31180140,4.406183,0.6050977,12.189492,0.7249517,-0.30921915,0.19740179,12.848295,1.8019481,-31.235523,
31180160,5.564996,-1.4038105,13.051266,0.86543334,0.33965948,-0.5622642,14.153759,3.5146801,-31.377651,
31180180,0.898903,-1.7751095,14.259186,0.63413805,0.06135938,-1.1503786,12.845379,4.3735,-31.807053,318.0
31180200,-2.5625637,-0.8824944,12.211651,0.40044582,-0.61921084,-1.134577,14.459967,4.8413982,-31.694927,
31180220,-1.4423778,-0.13989606,9.249342,-0.3228681,-0.6253361,-0.6319058,12.383126,5.100067,-32.059113,
31180240,-0.1233675,-1.7454655,12.160147,-1.3240826,-0.34823444,-0.37970465,12.151442,6.339119,-32.77566,
31180260,0.059287712,-2.411409,17.226284,-1.8021196,-0.6303961,-0.16904883,13.226229,7.1789503,-31.907448,
31180280,-0.29793802,0.17241444,19.1774,-1.31849,-0.4373171,0.1911434,11.9932575,9.1445055,-32.347794,282.0
31180300,2.4781222,1.5195717,15.561428,-0.37999287,0.050440427,0.4839577,13.146839,9.236877,-32.242783,
31180320,5.64195,1.8863794,10.879765,-0.12725909,-2.643466E-5,0.136016,13.071122,8.857923,-32.859337,
31180340,4.213347,1.9881871,9.314617,-0.31261495,-0.111479625,-0.6265795,12.915775,9.961156,-32.875977,232.0
31180360,-0.16109632,1.6372496,8.552258,-0.26694176,-0.02612539,-1.039236,11.374543,11.350935,-32.079205,
31180380,-3.5215251,0.9284018,7.0873365,-0.011811163,0.44791687,-0.75880533,13.069176,9.96928,-32.485344,
31180400,-3.7992296,0.9051314,6.680191,0.22361208,0.7483212,-0.08755618,12.527985,11.734652,-32.20972,192.0
31180420,-1.623536,0.98508054,4.9105315,0.47727796,0.5212869,0.2779624,13.7607,11.581598,-33.80231,
31180440,0.3781858,0.597013,4.4116726,0.59605485,0.3401921,0.2433413,12.76155,10.181093,-32.804977,77.0
31180460,0.052400738,0.27661777,4.8335767,0.88926864,0.46509427,0.120836,13.299312,10.487556,-32.563007,
31180480,-1.4872932,0.64043105,5.033898,1.1953987,0.36123106,0.12829283,13.916767,9.889887,-33.701458,
31180500,-1.5723326,0.6622898,3.6445205,1.3244288,0.22540995,0.30685765,14.915607,10.643265,-33.607956,22.0
31180520,-0.50933903,-0.14618422,4.80513,1.167702,0.436199,0.5268346,15.764644,7.5053406,-32.31238,
31180540,-0.5590452,0.32063466,8.530698,1.1346786,0.34764895,0.72097886,14.996466,7.697409,-33.49445,
31180560,0.12965491,1.3438035,9.165501,1.209913,0.033529367,0.794482,16.384052,6.6645517,-34.918232,
31180580,0.61623645,0.4215442,7.2560043,0.35290843,0.008495674,0.41365033,15.616873,5.251335,-34.998333,
31180600,-3.102145,2.1298199,12.456589,-1.0009084,0.6826743,0.2392134,17.305521,7.06098,-33.97132,20.0
31180620,-3.469252,0.3598606,19.521753,-1.09838,0.6021138,0.15838653,17.765491,6.9437375,-32.410877,
31180640,-3.3554668,0.044256326,20.809322,-0.22526333,-0.5197419,0.14027706,18.61138,7.610654,-33.016613,
31180660,-1.1186888,-0.41777155,15.9515915,0.35530528,-1.8615744,0.14120917,18.534317,7.46671,-32.707336,
31180680,2.2580376,-0.32704285,9.765867,-0.22433123,-1.759309,0.107653365,19.22826,7.3101177,-34.003757,
31180700,3.5620763,-1.2822399,9.766766,-1.2031752,-0.25688812,0.026560184,17.92021,8.236851,-34.82085,17.0
31180720,3.4066696,-2.846787,13.008146,-1.4429927,0.23140207,-0.12404145,17.689014,9.179927,-35.611343,
31180740,2.2813935,-3.4546394,12.7521305,-0.98759246,-0.08378278,-0.23735885,18.229185,9.164935,-37.14538,15.0
31180760,0.6503721,-3.434278,10.300359,-0.613685,-0.3486339,-0.11205725,18.91588,11.999376,-35.61348,
31180780,0.27428192,-2.3428383,8.891517,-0.40848866,-0.19536912,0.26677713,19.914845,12.099836,-34.81597,
31180800,1.1273717,-1.479268,7.908173,-0.20728701,0.11728571,0.38688558,20.457531,10.676352,-36.875305,
31180820,0.96088594,-0.98579943,7.1661735,-0.0024901032,0.18905784,0.21764182,20.686003,11.289179,-35.561226,
31180840,-0.20870642,-0.7519408,6.0510783,0.31269473,0.15483627,0.110982314,22.303802,11.280106,-37.76496,14.0
31180860,-1.0522144,-0.9549576,4.404486,0.41362846,0.043649368,0.29660448,21.303904,10.613172,-37.008286,
31180880,0.37938356,-1.5547255,5.0392885,0.12693942,-0.08538067,0.5520014,21.457947,10.902218,-37.54948,
31180900,1.5358007,-1.6505446,8.146224,0.20603523,0.24019049,0.65133727,22.382938,11.03468,-39.46256,
31180920,2.9973423,-2.6814988,9.375402,0.8718249,0.49319056,0.5426803,22.768848,10.009811,-39.36371,
31180940,3.9356,-3.2985914,7.2673407,1.2322835,-0.07659225,0.23788184,24.539194,9.513779,-39.77822,
31180960,1.852004,-0.91872597,6.302603,0.7573091,-0.40309554,-0.0056640366,24.770247,9.296167,-39.769955,
31180980,1.7987046,0.16223367,8.648076,0.36023214,0.18120153,0.171436,25.387184,9.139566,-40.990917,
31181000,1.7436085,-1.0909011,10.594103,-0.17173384,0.576148,-0.09701039,26.620106,7.898317,-41.410164,
31181020,1.2836767,-2.300318,17.152325,-0.5814608,-0.3084202,-0.50926733,26.006804,7.644702,-42.970123,
31181040,2.1640153,-3.3384593,19.03547,-0.07080012,-1.1437199,-0.78743434,25.236427,8.444937,-42.92118,
31181060,1.2890666,-2.439855,14.118752,0.41788954,-0.449834,-0.6622658,24.621616,9.29689,-44.49398,
31181080,-0.6066553,-0.1905006,9.268504,-0.17559542,0.9912013,-0.25187308,25.70073,7.9082136,-44.760582,
31181100,-1.1243781,1.0317923,10.570448,-1.0569679,1.0532528,0.0679723,26.930265,8.521159,-44.427567,15.0
31181120,0.6647449,1.995673,13.222842,-1.4359353,-0.33558443,0.08022283,26.46798,8.958699,-44.289368,
31181140,2.0783765,2.6744916,12.760514,-1.2372637,-0.76461935,-0.16079304,26.772827,10.592975,-43.75904,23.0
31181160,1.5959873,2.7155144,10.644408,-1.0182189,0.054568335,-0.43603048,26.775604,10.121794,-45.68808,
31181180,-0.872254,2.714017,9.813178,-0.99265254,0.53273845,-0.5731832,26.77306,12.1095,-45.865913,
31181200,-1.9885471,2.1540742,9.449964,-0.8993088,0.6061085,-0.44135678,27.002813,12.34338,-45.24386,69.0
31181220,-1.2130109,0.79104674,9.300545,-0.5923798,0.32394683,-0.28915727,27.849432,11.915152,-45.140457,
31181240,-0.5189209,0.32841995,8.292049,-0.1433712,-0.10255805,-0.24894358,27.46393,12.138536,-44.610954,136.0
31181260,-0.9351353,0.44040853,8.433981,0.39112478,-0.09470173,-0.13709092,29.002607,11.868222,-44.492165,
31181280,-0.6563615,-0.010240819,7.5880775,1.0483923,0.15337151,0.16304708,28.926903,11.41672,-45.030495,
31181300,0.50424784,5.388353E-4,5.5588074,1.3508826,0.23038119,0.23375393,29.62057,8.586336,-42.73638,191.0
31181320,-0.6371976,0.2861996,5.0024576,1.4262946,0.13366413,0.1433397,29.163227,7.6555004,-45.367973,
31181340,-1.0782651,-0.28572085,5.02252,1.5389462,-0.08072014,0.32057294,30.474295,5.8925385,-46.24353,240.0
31181360,-0.46622035,-0.8453645,6.848173,1.5546588,0.018881995,0.5795651,30.399208,4.926263,-46.6985,
31181380,-0.85848,0.5263463,7.973749,1.6368173,0.57468325,0.770913,31.170946,2.8776839,-46.42344,
31181400,-1.1366549,2.0786164,6.820027,1.581024,0.9529849,0.8303015,33.32557,0.36545324,-44.019287,281.0
31181420,1.1857616,0.018504933,5.233022,0.5695564,0.36722317,0.5894188,34.559044,-1.5345035,-44.12136,
31181440,-1.551372,2.0025601,16.004292,-0.91062725,-0.008948013,0.21777499,33.252037,-1.4899087,-44.773453,
31181460,-1.6777335,0.66378695,23.785105,-0.38931388,0.093716756,0.11111547,35.252808,-2.5570197,-44.169655,
31181480,-0.02814731,-0.42316145,19.222918,0.7228212,-0.38338813,0.07689388,35.40506,-2.895412,-42.30477,
31181500,2.7960362,-1.6888295,11.9268875,0.56742585,-1.195918,-0.212192,33.328953,-2.8636475,-43.053215,306.0
31181520,1.7837327,-1.2579856,9.411636,-0.6215414,-1.1650252,-0.5482826,34.637207,-2.1287627,-44.49945,
31181540,-0.0398252,-2.189228,11.487317,-1.5094384,-0.09829698,-0.36292678,34.097927,-1.7637796,-44.207565,278.0
31181560,0.07036682,-3.393555,14.212474,-1.4844048,0.2565689,-0.08782249,33.403275,-0.5845885,-43.54206,
31181580,1.6412019,-3.2857585,11.669073,-0.9176847,-0.063942246,-0.06638406,34.634377,0.0075101852,-44.601646,
31181600,1.9385407,-2.1224542,7.8905067,-0.65642875,-0.43145818,-0.30353838,34.86476,-0.34592962,-43.818,201.0
31181620,1.4028517,-1.2202568,5.816621,-0.61554927,-0.5596893,-0.41152942,35.40309,0.1700654,-44.352257,
31181640,0.20660967,-1.0226299,4.249379,-0.62806606,-0.2548907,-0.3256426,35.245014,2.395082,-43.298615,122.0
31181660,-0.7521806,-1.3307482,4.838068,-0.7562972,0.34591788,-0.024306152,35.55694,1.474761,-45.988564,
31181680,-1.4765134,-1.407703,6.8457785,-0.47719812,0.60198057,0.22283497,37.401245,2.3941793,-45.48905,
31181700,-1.767564,-1.1855224,7.044303,0.15064153,0.3851995,0.42869717,37.860855,2.7882366,-44.244057,17.0
31181720,-0.8027851,-0.5677884,5.6136045,0.5839374,-0.38911393,0.5819619,39.170837,1.2568111,-44.425888,
31181740,2.5871165,-0.6818731,3.174109,0.50071377,-0.8679499,0.48675403,39.174946,-1.1858621,-45.09395,14.0
31181760,3.048845,-1.2328331,3.509476,0.0043009557,-0.32599705,0.1452039,38.871414,-2.910056,-46.706543,
31181780,0.5329937,-1.7334881,9.30354,-0.22153492,0.46096635,0.21378024,37.3323,-3.0680714,-45.8918,
31181800,0.37758693,-1.1495904,15.390151,0.5033769,0.47295055,0.6305646,40.101364,-3.0985951,-45.745186,
31181820,5.6629114,-1.7679231,12.934486,1.6119168,-0.16394386,0.6914178,40.489983,-6.0409403,-45.701454,
31181840,9.645693,-3.085736,5.966338,0.8470575,-1.0266742,-0.39941204,41.26075,-7.570113,-45.20028,
31181860,1.7966084,-1.3136805,12.957842,-0.9064994,-0.3218692,-1.2441661,39.878487,-8.996143,-45.52767,
31181880,-2.0885582,-1.9673467,22.581976,-0.62020975,1.000256,-0.697819,38.569332,-8.1269,-45.26078,
31181900,1.3717105,-1.3400308,17.584108,0.7169622,0.8917322,0.036147557,38.495644,-9.618372,-46.32869,
31181920,4.973013,0.21104151,8.007586,0.4059053,-0.3002976,-0.2514736,38.880676,-11.065782,-44.90947,
31181940,2.0343597,2.5098026,7.423089,-1.0628268,-0.7841935,-0.70913744,38.80461,-11.874223,-44.669846,
31181960,-0.79889244,2.4376388,13.735174,-1.8559154,-0.3632813,-0.46066466,38.958626,-11.005964,-45.914185,
31181980,0.42369986,1.7013285,17.526617,-1.4226195,0.048975687,-0.12191092,38.112762,-10.877187,-46.32363,
31182000,1.9418347,1.4617808,15.036519,-0.68971825,0.1885252,-0.30700046,37.34122,-9.410135,-46.050278,
31182020,1.706778,1.1587527,11.328318,-0.32486546,0.15736625,-0.7417611,38.64565,-8.190173,-44.639076,
31182040,-0.14462739,0.46406394,8.805578,-0.13285173,0.048842527,-1.050155,37.570854,-8.523336,-46.132225,
31182060,-2.8778255,0.7928862,7.1492767,0.11109362,0.068017274,-0.95428115,38.723045,-8.412434,-44.78936,
31182080,-4.1633425,1.6195829,5.277339,0.28859314,0.2572347,-0.4424221,38.414787,-7.613303,-45.27057,
31182100,-2.666467,1.6725829,4.3425035,0.2788726,0.44365585,0.04134071,37.493103,-9.164683,-44.579086,16.0
31182120,0.23805031,0.46406385,4.7946506,0.25823313,0.30304104,0.14387232,37.10804,-9.887875,-43.264786,
31182140,0.5395811,-0.2303254,7.16288,0.4582364,0.24032366,0.014842284,37.184605,-10.3161955,-42.40673,23.0
31182160,-1.7232476,0.31284934,9.552069,1.162775,0.42674476,0.18621655,36.797607,-10.434698,-40.09351,
31182180,-1.853502,0.69343096,8.581003,1.9247048,0.4130295,0.5587925,36.108616,-13.9621725,-38.676914,
31182200,-0.7162485,-0.46298623,6.2768517,1.8934126,0.09278464,0.5895519,35.031944,-15.862406,-36.51499,30.0
31182220,-2.1526372,-0.58365846,10.450375,1.3951356,0.09664623,0.6248388,33.801563,-17.042984,-35.371193,
31182240,-2.8194785,-0.3770485,15.687789,1.6286947,-0.03850908,1.0020752,31.802462,-18.386116,-34.476776,
31182260,0.9668746,-0.045274734,11.909821,1.4057882,-0.21667437,1.0878289,29.880505,-20.454706,-32.875603,
31182280,1.5552641,3.4497285,11.748425,0.7212233,0.7946601,0.5559962,28.648096,-20.088646,-31.827145,
31182300,-1.0037059,2.3409212,12.20117,0.37168372,1.0785528,-0.036822997,26.493504,-20.471321,-30.638191,34.0
31182320,-3.1880827,1.1904929,12.175719,-0.1221991,0.21702099,0.0654423,23.876905,-19.62424,-30.558323,
31182340,-1.4268072,0.5431148,11.934074,-0.6895851,-0.94118667,0.42656666,21.413704,-18.262363,-30.712742,63.0
31182360,2.8338509,0.24487764,11.493007,-1.192922,-1.1857978,0.5167146,20.644753,-17.191635,-32.291912,
31182380,4.8376684,0.063719586,11.030378,-1.2706864,-0.015739076,0.17955865,19.3358,-15.601559,-33.116703,
31182400,3.0266867,-0.7291838,11.517261,-1.198781,0.51063424,-0.19554727,17.181757,-14.761372,-33.953835,127.0
31182420,1.2603209,-1.3559009,12.26974,-0.855633,0.21848577,-0.30935287,16.870358,-12.038972,-33.993107,
31182440,1.0195752,-0.8768052,11.230402,-0.22339912,-0.15475595,-0.21086043,15.870203,-10.893403,-35.269363,193.0
31182460,1.4582472,-0.608811,6.525384,0.47661215,-0.35449284,-0.18729147,15.791332,-9.2765465,-35.522198,
31182480,1.7723542,-0.78966963,2.6566856,0.4656932,-0.32320076,-0.209662,14.25196,-8.996967,-35.022053,
31182500,1.5720323,-0.57377714,1.5359008,0.027470436,-0.16687332,-0.31019625,14.791466,-8.279546,-36.87411,223.0
31182520,0.29344577,-0.28991294,3.4980974,-0.26228124,-0.11680594,-0.3486789,11.865057,-5.7442455,-36.97626,
31182540,0.04401655,-1.311285,4.1403847,-0.090640664,-0.13078752,-0.2466799,12.328633,-6.12661,-38.35318,243.0
31182560,-0.5949773,-1.8320022,5.4378357,-0.019933794,-0.19363807,-0.09820882,12.712761,-4.594984,-39.831627,
31182580,0.49676198,-2.4503353,7.2928343,0.16861784,0.07187885,0.26571184,12.093723,-2.9631333,-38.550423,
31182600,3.087472,-3.4546397,8.176766,0.39751634,0.20769994,0.39886978,12.094034,-2.3160067,-39.641262,
31182620,2.2806664,-0.21218821,11.153832,0.29738158,-0.17872438,0.24906711,12.862308,-1.6409936,-39.629967,
31182640,4.3394094,-0.84207076,13.174932,0.2646247,-0.6626203,0.007784914,11.938297,-0.9905019,-39.583103,
31182660,2.6341276,0.17001893,12.6093,0.0024367422,-0.5018987,-0.45733577,13.091799,-0.46285105,-39.94743,
31182680,2.3778114,-1.5481381,13.633367,-0.7295324,-0.13158648,-0.6741169,13.320332,0.7280297,-39.413864,
31182700,-0.11498332,-0.82200867,17.415527,-0.9726789,0.09158623,-0.6255142,14.317196,2.3037395,-38.556107,194.0
31182720,-1.3465587,1.0063404,16.424997,-0.551234,-0.09470172,-0.21738516,15.776039,4.60381,-39.01075,
31182740,-0.9132765,1.9926789,10.02877,-0.59970343,-0.12266489,0.06917072,16.158966,5.1383176,-38.15621,160.0
31182760,0.3662084,0.9135156,9.138251,-1.5331407,-0.13358384,0.19287443,17.005123,5.2950926,-38.36913,
31182780,0.14552496,0.38501316,13.619593,-2.0119767,-0.31041756,0.077825986,17.538666,8.190479,-37.538185,
31182800,-0.81566083,0.6431259,15.637783,-1.5206238,-0.2258623,0.14160866,18.152086,8.731964,-36.445843,123.0
31182820,1.2420552,0.98358333,13.921123,-0.9152878,-0.024394337,0.4820935,18.919647,9.054669,-35.347134,
31182840,4.223228,1.2830181,10.799216,-0.5750692,0.21462417,0.42203927,20.68524,10.720388,-34.161777,60.0
31182860,4.265748,1.5189729,9.051415,-0.3817239,0.5310074,-0.0076614134,22.762259,10.459404,-33.952328,
31182880,1.9250661,1.5102892,7.6542525,-0.099828556,0.97828496,-0.29980993,24.298117,11.312031,-32.685883,
31182900,0.031140879,1.3497921,6.946089,0.26489103,1.2197002,-0.2691836,26.374258,10.628506,-31.156063,20.0
31182920,-0.9692709,1.077606,5.505808,0.6329396,0.852717,-0.04894037,28.371784,11.124247,-29.564472,
31182940,0.70397085,0.3544708,4.3964014,0.78007907,0.43846267,0.15425865,27.908878,12.076559,-29.509632,17.0
31182960,1.3705127,0.25535786,7.098501,0.88234437,0.2620284,-0.049473006,28.451092,9.501597,-29.698471,
31182980,-0.68510723,0.26044828,6.4415417,1.4732993,0.2797384,-0.23043464,30.757673,9.115236,-28.243748,
31183000,-2.6305354,-0.28482252,3.758905,1.4630461,0.17773943,0.03614755,31.145695,7.4833584,-29.29855,
31183020,-3.0844784,-0.88309336,6.1388125,1.0254892,0.51569426,0.7201799,31.223372,6.6784086,-28.977768,
31183040,-2.5137556,0.302968,12.506293,1.0431992,0.78960013,1.3052759,30.610712,3.9559002,-28.03289,
31183060,2.1271844,-0.41058514,12.099662,1.2377429,-0.7614236,0.97837317,31.150183,2.5752666,-27.229664,
31183080,1.7813375,0.7889508,8.944516,0.17980313,-1.6555791,0.022165973,29.691936,2.148663,-29.659843,
31183100,-3.332111,-0.52736473,14.049881,-0.804234,-0.16540858,-0.13868882,28.693304,0.3070879,-28.580002,15.0
31183120,-5.731482,-1.3094884,18.805803,-0.74391353,0.47947532,0.649473,26.768799,1.1669931,-28.3283,
31183140,-0.21379682,-1.2825392,15.770135,-0.093969606,0.16402413,1.3416278,26.924011,-0.15156269,-27.92226,
31183160,5.454205,-0.29081124,10.518946,-0.29583704,-0.637054,0.78955513,24.002563,0.0020308495,-29.544353,
31183180,5.3961573,-1.0625831,8.473292,-1.2230158,-0.960761,-0.29688048,23.080055,0.053620815,-30.109573,
31183200,2.1071224,-2.6880865,11.479233,-2.0904067,-0.35688972,-0.6883648,22.31157,0.032681942,-30.747501,
31183220,-1.304039,-3.3896623,16.44416,-1.6830766,0.53393686,-0.34281996,21.002321,2.2779903,-32.121567,
31183240,-1.0363443,-2.7147362,15.3443365,-0.5899829,0.5403285,0.15625602,18.615839,4.222562,-32.822506,17.0
31183260,2.0915518,-2.1326349,8.7948,0.05157202,0.2480468,0.2123155,18.46268,3.8493881,-32.976757,
31183280,4.4226513,-1.8981773,3.3364027,-0.21128175,0.24644892,-0.20793094,19.076607,5.3972564,-33.59847,
31183300,1.2669084,-1.047483,4.1867976,-0.39970022,0.8263517,-0.46532524,17.690594,5.9026,-32.942352,25.0
31183320,-1.327395,-0.09168708,5.119237,0.014420949,1.021295,-0.104600385,18.610857,7.6176023,-32.552418,
31183340,-0.9522031,0.36794534,3.462165,0.31535792,0.5782785,0.20006499,17.074741,7.202571,-34.13346,44.0
31183360,0.28086948,-0.3231502,1.8565955,0.13386361,0.055633582,0.27583185,17.53551,7.436479,-33.7378,
31183380,1.6379081,-1.3424263,3.0806854,-0.2842523,0.20463732,0.20552444,17.383095,7.2705216,-34.82302,
31183400,1.0507164,-4.0376387,6.35201,-0.5204745,0.7778822,0.2490671,16.535652,7.4926925,-33.918087,70.0
31183420,-1.5169371,-6.3627505,11.565769,-0.60929084,1.227956,0.71551937,17.460846,7.9118667,-36.376156,
31183440,-2.228993,-2.5293858,19.926586,0.16555521,1.088806,1.3916954,18.230782,6.683302,-35.491577,105.0
31183460,6.1812325,-3.6989782,15.980637,1.2246935,0.01502043,0.8774394,17.922733,6.8283587,-35.346153,
31183480,5.794662,-1.6050308,10.179087,0.66143537,-0.5567598,-0.6536106,18.156736,4.3282223,-35.156612,
31183500,-1.1657003,-3.3270802,12.911729,-0.25442493,0.05789728,-1.298095,18.464048,4.4100704,-34.91777,130.0
31183520,-5.655725,-1.7424712,17.506556,-0.020732738,0.26389262,-0.5311052,19.003353,3.8999937,-35.053215,
31183540,-2.465846,-2.2047985,12.59822,0.047355343,-0.17885755,-0.14956339,19.15896,2.7932858,-35.268677,158.0
31183560,-1.3720107,-1.85446,12.487729,-0.6578935,-0.5109534,-0.25959623,17.390736,1.7415233,-34.83619,
31183580,-3.2767155,-1.1738443,15.070654,-1.065623,-0.7323951,-0.32817256,17.62435,0.8385658,-36.29018,
31183600,-4.0202117,-0.20008248,14.609224,-0.78519243,-0.4417113,-0.013387207,15.31528,1.5475416,-35.891525,187.0
31183620,-2.5523827,0.6006062,12.677871,-0.3862513,0.06388938,0.42270505,14.239943,0.8597517,-36.451992,
31183640,1.3459592,1.2348092,8.986437,-0.12619382,-0.1859149,0.45998928,12.932665,0.47370148,-36.32527,213.0
31183660,3.4770367,1.8534415,7.0973034,-0.26481125,-0.28325334,0.054123875,13.085737,0.84803295,-36.09365,
31183680,1.9639927,1.5285547,6.948484,-0.2782602,0.21715418,-0.33576256,12.315102,1.6517425,-35.8126,
31183700,-0.118277125,1.1404871,7.876433,-0.016738001,0.52807796,-0.38609627,12.085843,0.61521864,-35.883682,239.0
31183720,-1.2115136,0.59491694,7.330563,0.67142224,0.5377984,-0.23869044,11.777517,0.4021759,-35.03768,
31183740,-1.2403449,0.0064847553,3.358261,1.2105787,-0.020000111,-0.13456093,10.857239,-1.2402797,-35.50584,
31183760,-1.0312539,0.109832555,-0.10829568,0.8835428,-0.33971232,-0.04334774,10.008549,-0.85680246,-33.674217,
31183780,-0.92315793,0.050843865,3.494504,0.3603653,0.111293614,0.087413356,10.315531,-0.4087491,-33.59439,
31183800,-1.8034961,-1.5568216,9.915284,0.8779502,0.20397152,0.27529922,8.391737,-0.57144165,-32.711777,221.0
31183820,-1.8340385,-2.9195497,8.0174675,1.7513332,-0.13145332,0.5586593,8.237599,-0.35266256,-32.718143,
31183840,-2.176592,-1.4633979,5.2803326,1.3764935,0.0885236,0.83376366,7.853672,-0.65679216,-32.956314,193.0
31183860,-0.8485986,1.1851029,7.678506,0.7186933,0.8318112,1.0165894,6.6235933,-2.0584822,-31.809948,
31183880,1.1893549,-0.07521818,11.219623,0.0915194,0.35337475,0.5876878,7.6999407,-1.6736183,-31.787628,
31183900,-1.9541119,0.12540315,15.86715,-0.18065543,-0.29936546,0.031487025,7.4672613,-1.5790944,-30.169483,167.0
31183920,-5.393121,-0.07881139,16.754375,0.1802026,-0.33305442,-0.0044656172,6.3912,-2.112526,-30.26746,
31183940,-4.6645956,0.026290223,13.285124,0.28979158,-0.67660195,0.3292282,7.1588554,-0.922739,-30.339523,130.0
31183960,0.37429312,-0.41926876,10.077578,-0.3849197,-1.4374664,0.37143925,6.159315,-0.72606516,-30.985718,
31183980,2.8826585,-1.831104,10.892939,-1.2927905,-1.4630327,-0.14494725,5.1579523,-0.07095051,-30.553917,
31184000,0.6048579,-2.5305839,14.520893,-1.6431291,-0.3508976,-0.42058414,5.3867054,1.3340955,-30.487122,38.0
31184020,-0.14342964,-2.477883,15.1524,-1.2423236,-0.06447487,-0.31685415,4.924447,1.6265426,-30.192474,
31184040,0.91926444,-1.6544373,11.45947,-0.740185,-0.3176081,-0.24388361,4.5370455,3.177766,-29.601013,
31184060,1.5169363,-1.0325112,8.500455,-0.5515003,-0.25262702,-0.32684097,4.380844,4.2200346,-28.765766,15.0
31184080,3.0150087,-1.4011154,5.683073,-0.5223387,-0.23784648,-0.4643931,5.9966717,4.0925064,-29.033627,
31184100,1.7220492,-1.5340645,6.1986995,-0.6664156,0.1179515,-0.71100163,4.381813,4.1347485,-29.538578,
31184120,-0.52550846,-1.2750534,7.7545633,-0.3554918,0.4270111,-0.61020106,5.840601,5.3500977,-28.58778,
31184140,-0.31710184,-0.9986751,6.7532535,0.17940363,0.39199054,-0.36013046,5.225235,5.919972,-29.30613,
31184160,0.83691996,-0.8540481,4.883282,0.4426569,0.049907792,-0.30593517,6.995323,4.920747,-28.863613,14.0
31184180,1.8585914,-1.1732455,4.822198,0.43919477,-0.3477018,-0.33842573,5.380804,4.090117,-28.584625,
31184200,1.8457159,-1.6969571,5.612107,0.40670425,-0.124662265,-0.4201847,5.996437,3.9508877,-28.645084,
31184220,1.1132983,-2.6668262,7.919252,0.6134985,0.35483947,-0.37664205,7.8412657,5.2974777,-29.156464,
31184240,0.865965,-2.685092,9.293658,0.9719597,0.17574205,-0.21272464,7.226861,4.9138255,-29.554214,
31184260,1.0183774,0.982685,8.606753,1.1924692,-0.26407862,0.050794926,7.3060484,4.378215,-30.93892,15.0
31184280,6.944492,-0.9825056,4.5395317,0.79392755,-0.522405,-0.28462994,7.7683315,3.5065548,-30.530418,
31184300,3.5252888,-1.8616463,10.154576,-0.50915605,-0.47726446,-1.3194003,7.305134,4.173315,-29.853222,
31184320,-1.9813606,-5.297661,19.409761,-0.6829272,-0.5166792,-1.5190042,6.9963408,5.051942,-29.94846,
31184340,-4.529251,-4.4757123,20.385921,0.20190734,-0.4485024,-0.60474163,7.077057,3.772337,-31.788807,
31184360,-0.6192315,-2.8258266,11.840351,0.32174948,-0.19789912,-0.10246986,7.7682724,3.36262,-30.296608,
31184380,1.9505181,-1.9895049,7.7842073,-0.94791144,-0.39923394,-0.38649574,8.84425,4.3313303,-30.667973,
31184400,0.5590444,-2.219471,14.0205345,-1.9288862,-0.7521025,-0.5838358,9.230735,3.9501143,-31.89206,18.0
31184420,-0.5482655,-1.543347,19.82508,-1.6769512,-0.2907102,-0.1903541,7.3829575,4.8860483,-31.56195,
31184440,1.2923603,-0.484845,20.479044,-0.51608026,0.30716893,0.022299128,9.380386,5.889613,-30.517918,
31184460,2.2661223,0.52964014,14.360992,0.5314733,-0.017070651,-0.27344465,8.535804,5.205325,-31.072678,41.0
31184480,1.332784,1.2686453,5.6914573,0.4529101,-0.4550271,-0.66679317,9.30389,5.9552016,-30.984875,
31184500,-0.69349134,0.7868547,3.651408,-0.2545581,-0.11081384,-0.753479,8.844378,5.4874406,-32.229,66.0
31184520,-2.649699,-0.28362483,7.012863,-0.51115346,0.48719847,-0.42444572,8.6127405,5.568066,-31.539257,
31184540,-2.2080328,-1.0968897,10.698906,0.0418515,0.49678582,-0.027235623,9.841235,6.6290298,-30.824547,
31184560,-0.5308983,-0.856743,8.408229,0.85331595,0.37614477,0.102060735,11.22576,6.650041,-30.790352,100.0
31184580,-0.8779433,-0.05545546,3.9346728,1.0629066,0.87335646,0.008317543,12.53127,7.204347,-29.526176,
31184600,-2.6553884,-0.039285995,3.6978202,0.7354712,0.9826791,0.07849178,12.91646,7.708743,-30.68317,130.0
31184620,-3.8639073,-0.52796364,6.735287,0.70204854,0.78587174,0.43202615,13.30008,7.7998657,-29.90086,
31184640,-3.8091109,-0.7181047,8.599268,1.0862092,0.9676323,1.0292394,15.532529,6.4344893,-29.752144,
31184660,-2.296366,-0.2012802,10.258137,1.4978892,0.9597316,1.3803325,16.914244,8.012561,-29.116993,157.0
31184680,-0.27667814,1.3402101,7.5281897,1.9538662,0.64099586,1.4422953,18.303959,5.3593626,-30.44458,
31184700,3.4773362,-0.83997464,2.7695723,1.0812824,-0.46354923,0.92977047,20.610115,5.8470316,-29.696423,180.0
31184720,-2.383801,-1.0205339,13.355492,-1.079072,-0.63252664,0.30725712,21.226126,4.6172915,-28.738274,
31184740,-5.834188,-2.251211,26.690819,-0.78812194,0.6389985,0.70180404,23.069092,6.6399612,-28.406326,
31184760,-1.9630951,-2.4680018,20.204763,0.9153676,-0.21454386,1.0466831,22.301212,6.176796,-29.03912,223.0
31184780,1.2824789,0.75601286,9.928161,0.91643286,-1.6356053,0.8043358,24.147762,5.763742,-28.911026,
31184800,2.7559977,1.6405433,6.393332,-0.14417017,-0.64504343,0.6131209,25.456564,6.346585,-30.665012,271.0
31184820,3.4988954,0.22870818,8.937929,-1.3316727,0.6894654,0.51405144,26.459354,3.6462734,-29.834972,
31184840,3.6863415,-1.0615563,13.78039,-1.640599,0.71995854,0.18595022,28.07449,3.9621303,-30.030605,
31184860,2.3576639,-1.0933821,14.183428,-1.019151,-0.0010916851,-0.13935462,30.15009,4.298889,-29.286438,300.0
31184880,1.8043938,-1.19211,10.554877,-0.45416182,-0.3451718,-0.20793095,30.9975,4.728477,-30.97274,
31184900,1.2830778,-2.047296,7.735698,-0.32992548,-0.21374492,-0.22577411,30.228844,5.1439753,-32.002644,335.0
31184920,-0.7234348,-2.6350863,8.221382,-0.29197547,-0.17792544,-0.15506725,31.691586,4.714662,-32.580345,
31184940,-1.1022199,-1.7107313,6.6765976,-0.004620632,-0.32919285,0.18874656,31.694483,4.09723,-34.430294,
31184960,0.54377323,-0.047370717,5.6168976,0.27940527,-0.119335935,0.5711761,32.081192,2.9893918,-34.94952,
31184980,2.952427,0.3892052,3.4483914,0.5617001,0.09478202,0.56025726,31.007927,0.97144604,-35.726673,
31185000,3.3372004,-0.08450065,2.1751943,0.26475787,-0.14969596,0.14733443,31.622572,1.9308362,-36.264168,268.0
31185020,2.528427,-1.2687653,4.2350063,-0.2456365,-0.09616647,-0.1501404,31.162613,0.60062456,-36.02806,
31185040,1.3552417,-3.3965492,11.305261,-0.2741323,0.5035769,-0.20912936,32.001045,2.1628351,-30.995453,
31185060,0.23984692,-4.867972,17.184664,0.7490533,0.67335325,-0.022575099,30.931952,1.0300851,-36.657825,224.0
31185080,0.98034924,-0.9953814,13.454904,2.124708,0.3588342,0.21937288,30.087116,-0.15739441,-36.355564,
31185100,6.2294416,-1.0049634,-0.47660047,1.7541295,0.31316105,-0.1871583,29.705702,-1.3633509,-37.743965,192.0
31185120,1.6759362,-0.41148347,4.245786,-0.7347256,0.75471276,-1.0319123,30.0889,-0.39819622,-37.66823,
31185140,-3.6249583,-2.5003407,19.080086,-1.2587022,0.77801543,-0.98410857,30.011724,0.03823042,-37.984726,
31185160,-2.6844337,-2.3278663,19.690334,0.10044098,-0.16048174,-0.45560467,29.238611,2.466914,-37.490406,158.0
31185180,0.38447395,-2.0218441,9.371511,0.3678221,-0.6662156,-0.3735794,30.31522,2.8483043,-37.70019,
31185200,-0.99442345,-0.76811033,7.336552,-0.9481778,-0.49004763,-0.4852989,27.627079,1.8859339,-40.232147,93.0
31185220,-2.493394,0.66708076,13.497722,-1.6925306,-0.14809807,-0.11711723,27.933147,2.1290889,-39.06661,
31185240,0.34105587,1.5339444,15.579992,-1.3372653,-0.28431863,0.2550592,26.623642,4.8119917,-40.75528,
31185260,3.3207319,2.083707,13.565395,-0.73965245,-0.1624791,0.088878095,26.700365,4.4539013,-40.130165,26.0
31185280,3.385709,2.193899,10.5234375,-0.32739544,-0.19230649,-0.5261784,25.4688,4.9534726,-40.01182,
31185300,0.7126545,1.2914023,6.0606594,-0.33724916,-0.68046355,-1.0683975,25.852133,6.5680695,-40.87219,15.0
31185320,-3.334207,0.07749356,5.7690105,-0.6230061,-0.22466387,-0.8751853,24.159512,6.475633,-40.44892,
31185340,-4.867014,-0.41657388,8.001297,-0.48092663,0.62328583,-0.10233669,22.309057,9.18395,-39.90726,
31185360,-2.146349,-0.31506547,7.7779183,0.12174625,0.7375354,0.39873663,23.079155,8.459736,-39.802338,
31185380,0.0029939897,-0.14648366,6.13462,0.57954323,-0.16008227,0.23082446,22.462923,9.041193,-39.747013,
31185400,-0.90878505,-0.5980314,5.5037107,0.8396007,-0.7093588,0.03428334,22.695234,8.589727,-40.58721,
31185420,-2.2786138,-1.0629252,4.8882875,0.9381376,-0.1491633,0.36384925,23.003641,7.9333725,-40.41717,
31185440,-1.7148635,-2.1212564,6.1064734,0.7668965,0.7079744,0.9401568,22.773655,6.6170864,-39.47907,
31185460,0.5770106,-2.5704086,9.89073,0.7904654,0.8949281,1.1880969,22.081852,6.0215774,-39.17985,
31185480,0.07785271,-1.6676126,14.199898,1.5484004,0.47508112,0.9587989,23.234257,7.2874312,-39.475372,
31185500,-0.96747416,0.39190012,9.277788,2.1498747,-0.077923834,0.919251,25.08322,4.6713486,-38.78003,15.0
31185520,0.25152487,0.40148205,3.2085438,0.7043122,-0.55023503,0.6988746,23.779572,2.0660548,-39.1692,
31185540,-0.8390167,0.7081033,11.021398,-0.9768067,0.33300155,0.50499666,23.6264,1.7654276,-39.401672,
31185560,-2.376315,-0.77619505,24.351936,-0.5086234,0.3547063,0.29034606,25.007612,3.7120225,-38.770798,
31185580,-1.5298128,-1.458607,22.888897,1.1393392,-0.8937825,0.22323446,24.775438,3.8721433,-37.695084,
31185600,-0.088034205,-0.29799765,12.225124,1.3124446,-1.4687586,0.04466966,23.854767,3.3927457,-39.26007,
31185620,0.08144591,-0.13480571,4.081995,-0.1969007,-0.42533287,0.06810546,23.087091,1.8413844,-38.71953,
31185640,-0.10929407,-1.4157879,8.841511,-1.8098428,0.63606906,0.23588444,24.239511,3.0346918,-38.936825,
31185660,-0.7932032,-2.481177,16.49836,-1.6568444,0.35430688,0.24760237,23.853813,3.8396053,-38.955738,15.0
31185680,-0.29733914,-2.2107873,16.064476,-0.5050282,-0.57233924,0.28089187,23.236263,4.9451003,-38.36485,
31185700,1.526219,-0.83518374,8.6417885,0.068882555,-0.944782,0.2854192,24.083834,4.504132,-39.11248,26.0
31185720,3.1389747,0.17271385,0.9448165,-0.6757366,-0.23358546,0.0974002,21.851276,5.074972,-38.168655,
31185740,0.5850952,-0.07581702,3.8810742,-1.6613717,0.80837536,0.050661765,23.85091,4.9637036,-37.730717,
31185760,-1.3297904,-1.8248158,10.73364,-1.3318057,0.7846733,0.29727027,24.001268,6.387271,-36.35058,53.0
31185780,-0.9225591,-2.0550814,12.817107,-0.12805806,-0.084936805,0.49616385,23.46214,6.895032,-36.36987,
31185800,1.064191,-0.84386736,5.522876,1.0747576,-0.7758046,0.5488056,23.079702,6.4986677,-37.845055,110.0
31185820,3.4953022,-0.124325484,-3.1607342,0.9744897,-0.63732034,0.37303713,24.002653,5.5005,-36.49504,
31185840,2.6098735,-0.8318899,1.4059463,-0.31794125,0.013688829,0.11351231,22.387354,6.4893203,-37.784786,
31185860,1.1318632,-2.0682564,9.775449,-0.3741339,0.4761464,0.2189734,23.541735,5.5579357,-37.126232,148.0
31185880,2.635026,-3.137538,11.119911,0.5843369,0.35191002,0.36491454,24.771816,5.5847197,-36.554268,
31185900,3.00902,0.10923371,8.248631,1.034677,0.0878578,0.2164434,23.619017,4.1070175,-35.63724,196.0
31185920,5.9374924,-1.9071603,3.4942045,0.3603653,0.3531084,-0.20167252,26.004028,4.4252825,-36.43281,
31185940,0.0026944578,-1.4080025,11.1741085,-1.27548,1.395735,-0.6932916,24.540827,5.005479,-35.624718,
31185960,-3.5495005,-3.118075,23.026937,-1.3094352,1.5699056,-0.5750474,25.693453,5.110591,-34.66868,222.0
31185980,-2.9863067,-2.1994088,22.043676,0.18033573,0.009960413,-0.2695831,26.076189,5.285841,-33.190926,
31186000,2.017891,-2.9174535,11.801724,0.5712874,-1.6506522,-0.44921315,25.538237,5.05424,-33.35639,244.0
31186020,0.26050794,-3.360018,9.309529,-1.0586989,-1.6268169,-0.95840913,25.310173,4.580715,-35.213753,
31186040,-4.674178,-1.981121,18.842934,-1.8473934,0.20876524,-0.32990363,23.385927,5.4371457,-35.194157,
31186060,-3.1012468,-0.5609014,22.654438,-0.56574816,0.68786746,0.4128514,23.152262,7.064409,-34.59975,269.0
31186080,1.8028966,0.9242952,12.294295,0.5888643,-0.2442381,0.29527292,23.537188,5.763252,-33.25961,
31186100,3.422839,2.2274354,1.9170816,-0.19703385,-0.1757949,-0.37371257,22.69118,6.183374,-33.904575,288.0
31186120,-0.022158548,1.7432495,6.8844056,-1.2575036,0.90118647,-0.5899611,23.152985,5.535144,-33.343906,
31186140,-0.77224267,0.71678686,10.65399,-0.8529699,1.0129061,-0.3830336,22.9185,6.449682,-31.11625,
31186160,-0.042220663,0.2856008,9.11819,-0.055886436,0.6275469,-0.4088663,22.303751,6.5047836,-31.751232,257.0
31186180,-1.3327849,0.40297925,7.127846,0.6249501,0.51422954,-0.4376284,22.533009,6.1664,-29.961823,
31186200,-1.3528469,0.20086072,4.675774,1.0927339,0.13393046,-0.25480255,22.226171,5.427002,-29.806126,218.0
31186220,-0.9459149,-0.037489373,2.0140984,1.0567813,-0.3189397,-0.028034572,22.920204,4.3284655,-30.008286,
31186240,-0.9309432,-0.08809386,2.4695387,0.7929954,0.28426576,0.3009987,23.45863,4.3366365,-29.994991,
31186260,-0.16289291,-1.2463077,5.766316,0.8016507,0.60717374,0.57570356,21.150503,3.7305112,-28.807262,192.0
31186280,0.79499906,-2.2000077,7.5826874,1.2409387,0.10330413,0.616583,20.383533,1.663218,-28.260727,
31186300,1.2992474,-1.9514767,5.692954,1.384483,-0.26940495,0.48821872,21.308336,0.49563694,-28.378967,151.0
31186320,-0.1086952,1.2207357,7.3635006,0.97795177,0.20224048,0.34747082,20.23097,-0.020423412,-27.31644,
31186340,-0.8384179,-0.24978866,10.576736,0.5806085,0.048043594,0.044669654,19.309488,-1.7192116,-26.62325,
31186360,-4.592432,1.1937865,13.083902,0.019614112,-0.2847181,0.065708615,18.924614,-1.1423597,-27.103798,37.0
31186380,-3.9193025,0.6039001,14.597547,-0.29929915,-0.039973814,0.32829607,18.84656,-1.562592,-25.553226,
31186400,-2.723959,-0.5597037,17.09633,-0.46135235,-0.30802074,0.34320977,18.926563,-3.1945057,-26.306168,15.0
31186420,-1.2929599,-1.6083245,18.914797,-0.2937065,-0.9003073,0.18035759,17.23157,-1.735673,-25.668777,
31186440,0.14821987,-2.6356854,16.775637,-0.079322234,-1.3774122,0.0069859643,16.07796,-1.6829515,-25.93023,
31186460,1.2737954,-2.6868887,12.8251915,-0.6264682,-1.1835343,-0.15413515,14.463258,-2.0045996,-26.12143,15.0
31186480,0.44555867,-2.5392673,13.9869995,-1.1284738,0.009028316,-0.03815458,15.463439,-1.9203525,-26.407055,
31186500,0.8030838,-2.0517874,14.890992,-0.7680151,0.48094004,0.07822546,12.693209,-1.2230139,-26.329273,13.0
31186520,1.9322525,-0.81003124,10.712679,-0.1307212,0.08732518,-0.0938146,14.000299,-0.7621007,-26.379478,
31186540,2.207433,-0.0349228,5.4389052,-0.010612739,-0.053156454,-0.37118262,14.155966,-1.7248735,-26.828754,
31186560,1.4399816,-0.17373222,3.0597248,-0.3628155,0.32274842,-0.48236945,14.228408,-0.072095394,-24.834156,12.0
31186580,0.59797096,-1.0555677,4.929695,-0.5423124,0.83008015,-0.42564416,12.769359,-1.2839694,-25.552853,
31186600,-0.56892645,-0.88518935,7.108382,0.0094941035,1.3499289,-0.17424199,13.53881,-1.7824378,-25.14103,11.0
31186620,-0.2128985,-0.32764173,6.5319705,0.820426,1.0599107,-0.011522989,12.233487,-2.4116063,-26.481709,
31186640,1.5241228,-0.84087294,2.0512283,0.89446175,-0.13238543,-0.16518724,11.848264,-3.2050295,-24.93446,
31186660,1.1321627,-1.2097768,1.6035731,0.05916202,-0.7116224,-0.42471206,10.390095,-4.935152,-25.801899,
31186680,-0.16678555,-2.0952055,7.2107887,-0.104622245,0.29798102,-0.19474831,9.696213,-3.2597184,-26.457619,
31186700,0.43807274,-3.1773632,11.922695,0.6506496,0.7235538,0.12110232,9.850461,-4.058869,-25.825466,10.0
31186720,1.330688,-3.1414309,12.121521,1.1706313,-0.2594181,0.07023598,10.312211,-4.4169135,-25.57769,
31186740,0.23325932,2.1468875,10.751007,1.6169767,-0.37353444,0.16118285,9.0814905,-4.724618,-25.217823,
31186760,3.5294378,0.6721711,5.381542,1.1577151,-0.12146647,-0.24774517,9.391878,-5.769184,-26.358746,
31186780,-0.4051357,2.0989778,9.801499,-0.108616985,-0.36394706,-0.67691326,9.392018,-6.060528,-26.123219,
31186800,-0.0655766,-1.0196357,14.817931,-0.61714715,-0.852903,-0.7605364,10.314514,-4.6646643,-27.354553,11.0
31186820,-0.5901864,-1.9637536,19.007622,-0.917152,-1.1336,-0.7211216,9.929242,-4.7337823,-26.666893,
31186840,-1.1351577,-2.2688777,20.023605,-0.4251334,-0.44317606,-0.6281774,10.15842,-4.2027674,-25.893524,
31186860,-2.99884,-1.3981211,17.97757,0.007763058,-0.45942134,-0.29727995,10.082061,-4.8626432,-25.57825,12.0
31186880,-2.0379539,0.38980412,14.29901,0.36742264,-0.7257372,0.11111546,11.081744,-3.9757524,-26.414864,
31186900,1.3255975,1.7411535,7.788099,0.29982278,-0.42191517,0.24777992,11.31372,-4.929252,-26.320667,17.0
31186920,2.4972858,2.1507807,5.91783,-0.46308345,0.0019709356,-0.0251051,10.773353,-3.391944,-26.506676,
31186940,1.2402587,1.6911479,9.169094,-1.1074346,0.40437424,-0.31432414,11.619938,-4.1091995,-26.013023,
31186960,0.10090916,1.3396114,12.261955,-0.9372589,0.56882423,-0.428041,12.464484,-2.7731524,-26.239632,35.0
31186980,-0.796497,1.1362951,10.793826,-0.14084122,0.45084634,-0.5180558,14.3854475,-1.4149728,-26.052814,
31187000,-1.3845869,0.6104876,7.5910716,0.42521322,0.1648231,-0.52910787,14.924272,-2.1357403,-25.489388,72.0
31187020,-1.6253325,-0.0815063,6.338236,0.693127,-0.33864707,-0.41632313,13.92355,-1.1997042,-25.989414,
31187040,-1.4181236,-0.12043283,4.5491138,0.8506528,-0.51920927,-0.19647935,14.692904,-1.1903477,-26.125145,
31187060,-1.7597789,0.04126199,4.832978,0.8358723,0.1606952,0.06530914,14.691719,0.48980093,-27.1506,98.0
31187080,-1.8112816,-0.21146102,6.5295753,0.9004539,0.5951896,0.33428818,16.000725,-0.4496727,-27.184544,
31187100,-1.2601932,-0.7148965,7.0079436,1.1377413,0.5768137,0.5187119,16.23167,0.34720707,-28.348759,120.0
31187120,-1.2474457,-0.8297938,8.075558,1.2475966,0.36735633,0.6492067,16.000004,0.13880634,-27.26876,
31187140,-2.1017334,0.9763969,9.305036,1.4456025,0.1974468,0.74667835,16.305649,0.31520557,-25.638176,
31187160,-0.22337873,0.45418257,5.7782936,1.3108467,0.0062319897,0.73509353,16.310017,-0.7560353,-28.256653,142.0
31187180,-0.011977792,-0.5626981,6.673004,-0.38731658,-0.19097492,0.43775192,15.541988,-1.3619771,-28.578266,
31187200,-2.3939817,0.40657246,21.555511,-1.0654899,0.79679066,0.42496872,15.84738,1.0610437,-29.52732,167.0
31187220,-0.8977059,-0.49322912,25.07447,0.76263535,0.9343428,0.56158876,16.462992,0.12612152,-28.572598,
31187240,0.74080133,-0.010839686,13.94388,1.8179121,-0.354626,0.21045129,16.694946,-0.24816465,-29.18155,
31187260,0.25362095,2.0277123,4.431435,0.6035117,-0.9453147,-0.13189778,15.621268,-1.4646258,-30.587048,188.0
31187280,-0.37459332,1.4785491,5.866327,-1.2576368,0.32660997,-0.10859513,15.696867,0.0013661385,-31.221203,
31187300,-1.5534681,-0.5339523,14.974834,-1.837939,1.0022534,0.016040703,15.771762,0.6083846,-30.143017,200.0
31187320,-0.6848078,-1.44633,16.999613,-0.8071635,0.28533104,0.14027706,17.769054,2.3374124,-29.881214,
31187340,1.6942017,-1.0666467,10.040448,9.720018E-4,-0.67780036,0.036014393,14.926172,2.0360484,-32.424667,
31187360,2.87667,-0.38633093,3.3157415,-0.29676914,-0.51335025,-0.20393622,16.4626,3.0982068,-31.93446,
31187380,1.2079198,-0.5848562,4.112238,-1.2187548,0.23686154,-0.28156728,15.771555,3.071487,-33.034687,
31187400,0.2449373,-1.0962908,9.241556,-1.4105022,0.53779846,-0.049339842,16.00105,3.308842,-32.180523,
31187420,0.61264324,-0.51389015,10.92947,-0.7017025,0.3066363,0.10272652,16.231918,4.541,-33.814075,
31187440,0.6075528,-0.06773232,8.267795,0.1731452,-0.12972227,0.030288607,15.461864,4.1067886,-32.512703,
31187460,0.0865363,-0.13181135,4.299984,0.583538,-0.41561234,-0.021110361,16.540817,3.5886686,-33.717983,152.0
31187480,-0.38118088,-0.51029694,2.6512957,0.4391948,-0.40282917,0.07409757,16.464134,4.1632395,-34.65513,
31187500,0.25032714,-0.90974295,4.482639,0.20763311,-0.30708864,0.24693656,15.5413885,3.6390913,-34.2851,127.0
31187520,1.6187443,-1.5113074,7.1688685,0.36981952,-0.19789913,0.25652394,15.6951275,4.1492505,-34.82886,
31187540,1.8301454,-1.6355729,9.084653,0.69299376,-0.15129386,0.27995974,15.467623,3.017018,-36.36905,
31187560,1.6058686,0.8039224,9.398758,1.0538518,0.033662524,0.42150664,16.159557,2.0188231,-34.792637,51.0
31187580,3.537223,0.14007547,4.4850345,0.693127,0.1214136,0.2021955,15.083793,2.2050638,-36.05967,
31187600,0.052101284,1.3488936,9.813776,-0.8321972,-0.01254328,-0.24588096,15.624206,2.2591443,-37.904022,13.0
31187620,-1.0213726,-0.978613,20.090977,-0.9713473,-0.24050967,-0.27051517,16.470438,2.4873073,-38.272533,
31187640,1.0845525,-1.9769288,19.498995,0.11069413,-0.8234751,-0.14947462,14.472473,1.5632386,-38.930584,
31187660,1.5959016,-0.25325355,12.276284,0.062224634,-0.78299516,-0.34907836,14.933245,1.7971463,-38.53492,
31187680,-1.7463043,1.6489275,11.587328,-0.9156873,0.023409363,-0.16798355,14.469318,3.5590513,-38.56686,
31187700,-1.3768016,2.7206044,16.97955,-1.1050379,-0.025060117,0.3589224,14.239718,2.9612806,-38.87518,
31187720,2.8042068,3.1329262,17.197838,-0.27120283,-0.88126564,0.28874817,14.700646,4.2062054,-39.8841,
31187740,4.4106746,3.5781858,10.224602,0.1848631,-1.2049726,-0.27384412,13.473023,3.5677805,-41.91918,
31187760,3.0542345,3.3712764,4.705418,-0.39970022,-0.5297287,-0.69009584,11.779046,3.7829025,-40.648308,
31187780,-0.36830518,2.3508024,6.454118,-1.0625604,0.38107157,-0.7546775,12.857959,3.9165416,-42.634964,
31187800,-2.2236035,1.3767412,10.44738,-0.97654045,0.41888848,-0.36612257,12.472989,5.0012174,-43.663063,
31187820,-0.07216415,0.99196744,10.909409,-0.3653455,0.47681215,-0.041350365,12.471963,5.376689,-43.203148,
31187840,0.7958973,0.6353407,10.523736,0.3321358,0.9531181,-0.06651722,12.858632,4.48649,-43.95704,
31187860,-1.0459262,0.0062281042,11.464262,1.1739602,0.61582905,-0.10406776,13.167567,4.6914263,-45.344604,15.0
31187880,-2.2134225,0.74972475,7.5503483,1.6942084,-0.43638498,0.10871862,14.629948,2.964384,-43.97274,
31187900,-1.9418353,0.13588339,5.024616,1.1935346,-0.55995554,0.230425,13.173761,0.8460512,-46.151123,
31187920,-1.6259315,-0.8244041,8.961285,0.8144339,0.2528405,0.50259984,13.328682,0.61684847,-46.841064,
31187940,-0.9021974,-2.2338436,13.948072,1.1270888,0.41928795,0.79554725,13.25576,-1.2466202,-48.136787,
31187960,-0.98124826,-0.8926752,16.866661,2.136692,0.32301477,0.9413552,13.33482,-2.9383416,-47.960472,
31187980,-0.20032223,0.5188606,12.853937,3.1309822,-0.06420855,0.9556031,13.183649,-4.640514,-48.25405,
31188000,2.101433,0.93537426,4.6125937,2.1681175,-0.44637182,0.54694146,13.26539,-7.670496,-48.835983,
31188020,1.0977278,3.4461353,6.33105,0.3951639,0.18031381,0.22043814,13.497551,-9.1329775,-48.2716,
31188040,0.31470564,2.3355312,13.90735,-0.47466815,0.671489,0.094737045,13.958358,-8.175922,-48.812897,
31188060,-0.61084735,1.4162667,16.515125,-0.33831444,0.3022421,-0.12697092,13.650307,-8.464987,-48.120773,
31188080,-1.1115024,1.7064191,14.301406,0.08086677,-0.17060176,-0.15799673,14.497795,-8.4706745,-49.337738,
31188100,0.25811243,1.4396225,10.65429,0.14984259,-0.24650179,-0.1549341,13.96046,-8.276264,-50.591476,
31188120,0.6018635,0.6610921,8.083044,-0.2026265,-0.15502226,-0.3577336,14.036831,-9.063842,-49.11019,
31188140,-0.5698248,-0.17373224,7.6773086,-0.59024924,0.050040953,-0.3884931,13.884864,-9.308136,-50.504013,
31188160,-1.0794628,-0.47915575,8.515727,-0.879202,-0.095234364,-0.19155252,14.189594,-7.96173,-49.506073,16.0
31188180,0.7222364,-0.4746642,8.830731,-0.929003,-0.41015285,0.019369654,13.804957,-6.80914,-50.92186,
31188200,2.0017214,-0.52167547,8.282167,-0.7700125,-0.4112181,-0.02457247,13.726442,-5.7035823,-50.859238,
31188220,1.6667393,-0.19952641,7.50415,-0.52633345,-0.30615652,-0.07996617,12.882261,-5.3077817,-53.12889,21.0
31188240,1.0635921,0.17091724,6.4124966,-0.27399915,-0.111080155,0.0011270121,12.187345,-4.1251173,-52.231293,
31188260,1.064191,0.07659528,6.2867336,0.10523467,0.41382843,0.19034444,12.957371,-4.920719,-51.97078,47.0
31188280,0.912078,-0.045873556,6.5891623,0.47701162,0.44219106,0.14720127,15.418607,-4.5920215,-52.145515,
31188300,0.59288055,-0.23841015,6.2247505,0.7463901,-0.2182723,0.022032812,12.880747,-4.636334,-52.59504,
31188320,0.07755325,0.09665741,4.5458198,0.76183647,-0.68112934,0.00924965,12.266042,-5.7396584,-51.82373,97.0
31188340,0.57820827,-0.6240822,5.6480393,0.38393423,-0.18524912,0.39620662,12.037196,-6.202759,-52.984787,
31188360,2.155032,-1.3058951,11.2843,0.14105415,0.41356212,0.71338886,13.4981785,-6.0296974,-52.718307,148.0
31188380,2.2733088,1.2410973,17.226887,1.1152376,0.7884017,0.7240415,13.039279,-7.446352,-53.332375,
31188400,5.036493,0.9865777,10.375815,2.22684,-0.17632754,0.34826976,14.039799,-8.234977,-52.83406,
31188420,3.7609007,3.066751,3.8244812,1.162775,-0.55023503,-0.53802943,13.195656,-9.865843,-52.604027,200.0
31188440,-0.4784972,2.5247743,6.9484844,-0.42673132,0.21249364,-0.87744904,14.0411825,-9.12175,-52.978523,
31188460,-3.4096646,2.2666614,12.2239275,-1.3146285,0.3943874,-0.47171685,14.346386,-7.9987726,-52.13273,233.0
31188480,-1.1558188,0.20595112,16.40224,-1.640599,-0.24290651,0.023763862,14.962518,-7.565736,-53.360542,
31188500,0.7494851,-0.61509913,19.688536,-1.2099663,-0.5595561,0.11311284,14.422859,-6.1102405,-54.08725,
31188520,1.0692813,0.99436295,17.511944,-0.30901968,-0.5630182,0.08674757,14.420792,-4.345965,-54.417274,312.0
31188540,0.32608417,3.2461126,11.454079,0.042250965,-0.11800437,0.019769125,13.497963,-4.434835,-54.51657,
31188560,0.6931912,3.6758018,8.260908,-0.4327234,0.38626474,0.032818604,14.422128,-5.4492164,-54.249695,334.0
31188580,1.6774336,2.492136,9.812579,-0.87281036,0.62554955,-0.11804934,13.651898,-4.5062046,-54.511917,
31188600,0.7590669,1.7743908,10.957916,-0.6055624,0.4417916,-0.47184998,14.112693,-3.476602,-55.13144,
31188620,-1.0944346,1.9085376,7.9791393,-0.08904276,0.3579021,-0.52950734,16.03402,-2.1956015,-55.175865,
31188640,-1.962197,2.0007634,5.570485,0.058363073,0.5053079,-0.09314881,16.108925,-2.095251,-53.472755,
31188660,-0.28176856,1.039877,6.7328916,0.23599577,0.77082485,0.39753821,16.801224,-2.736504,-52.674286,355.0
31188680,1.8166707,0.35806403,7.5311847,0.7603717,0.5461874,0.3278966,17.033249,-3.0394025,-53.438828,
31188700,2.0385518,0.47454417,3.8580184,1.0613086,0.12607414,-0.22311094,17.881027,-4.568566,-53.013115,
31188720,-1.3594344,1.1934872,2.531821,0.7618364,0.55404377,-0.45413998,18.881535,-5.284646,-52.593033,326.0
31188740,-4.0396757,1.1707301,5.6378584,0.6361354,1.1757581,0.16571023,20.111933,-5.117402,-52.486984,
31188760,-2.5299253,0.048747834,8.3243885,0.8384023,0.7654985,0.74787676,20.188995,-5.407578,-52.249557,282.0
31188780,-0.27120277,-0.17043842,7.9548426,1.1936677,0.3750795,0.863591,20.654373,-7.984865,-52.51767,
31188800,-1.1459374,2.4409325,6.339134,1.2430692,0.58533585,0.7042009,21.11597,-9.353927,-50.86531,
31188820,-1.8241574,2.5262716,5.7779937,0.3983153,-0.24730071,0.65892726,22.425098,-10.512197,-50.741943,238.0
31188840,-1.7618748,2.851757,11.183091,-0.5718734,-0.45116556,0.7453467,21.963335,-10.081606,-51.067947,
31188860,-0.9656776,2.4382377,16.213896,-0.14896384,0.3459179,0.6733084,20.886753,-10.608089,-50.70172,194.0
31188880,-0.9450165,2.6580229,12.663796,0.17234626,-0.046764858,0.31311607,22.57765,-10.130916,-50.046127,
31188900,-0.8363218,2.8361864,9.6257305,-0.62473714,-0.9859278,0.0135107,22.65671,-10.44773,-51.588127,
31188920,-0.48418644,2.0202267,12.002645,-1.59932,-0.87074625,-0.12244356,21.11522,-9.054476,-50.559258,55.0
31188940,-1.1064119,0.9790918,15.807264,-1.8391376,-0.18298544,-0.04521195,20.423107,-8.488085,-51.434242,
31188960,-1.4441746,0.30925614,17.460743,-1.3367326,0.07334359,0.014975441,21.266146,-6.0464697,-51.6737,22.0
31188980,-0.7863163,0.07509811,15.720129,-0.48319027,-0.040772766,0.07649441,21.727121,-5.5258512,-51.82303,
31189000,0.35363212,0.96352124,11.038165,-0.25775388,-0.30988497,-0.07637091,22.727535,-5.299986,-52.497192,
31189020,-0.10480254,1.3348205,8.050705,-0.6184788,-0.23425125,-0.17597306,22.801777,-3.5264354,-52.283737,
31189040,-0.6809152,0.93028396,8.53489,-1.0528399,0.118350975,0.01950281,24.64504,-1.7248783,-51.94922,
31189060,-0.24673466,0.5203577,10.942645,-0.95962936,0.21382523,0.21351393,24.108248,-2.5507488,-52.417305,19.0
31189080,0.7740387,0.2367929,10.874075,-0.4124834,0.114622556,0.25971976,25.72217,-1.7845573,-52.076508,
31189100,1.0237671,0.08138624,9.550572,0.24092261,0.24751419,0.24200971,25.95125,-1.1798372,-51.303986,
31189120,0.78062624,0.21403588,6.960162,0.6826075,0.1797368,0.20632339,26.103716,-0.36327887,-51.07749,17.0
31189140,0.43028742,0.37273633,4.120322,0.7410194,0.17818327,0.18315391,27.182322,-1.8175526,-50.801674,
31189160,-0.106898606,0.27512056,3.75621,0.5778122,0.33699632,0.26185024,27.796564,-1.9382515,-49.624275,15.0
31189180,-0.1515144,-0.046472427,5.7908697,0.44611898,0.31835422,0.43761873,28.79608,-1.5557122,-49.68122,
31189200,0.9947221,-1.0510762,8.697184,0.5594364,0.050440423,0.6537341,30.412718,-3.213663,-48.770607,
31189220,1.6534786,0.14306985,11.692131,1.0746244,-0.15648702,0.66558516,31.338163,-4.100324,-49.82067,
31189240,3.3168392,1.2171425,9.111602,1.8181784,-0.37033868,0.5111219,32.56906,-4.735724,-49.163643,
31189260,5.0613465,0.45358375,5.4800563,1.0684991,-0.7481078,-0.03575772,31.878815,-6.220319,-49.16362,14.0
31189280,1.3741059,1.0686228,12.394605,-0.21088228,0.2404568,-0.64895004,33.41752,-7.5765133,-47.71675,
31189300,-1.8603888,-0.9235171,18.779753,-0.20382492,0.7906654,-0.72951055,33.184494,-6.1024494,-47.507477,
31189320,-2.222406,-0.24080563,16.05849,0.78527224,0.20610207,-0.24974254,34.18404,-5.8650026,-47.40798,
31189340,0.8680183,0.7846731,11.2174835,0.5899296,-0.7632878,-0.0738409,35.646046,-6.0674133,-47.601425,
31189360,0.7830218,2.1304188,10.635126,-0.29636967,-0.6551635,-0.2707815,33.799118,-5.504633,-47.576492,13.0
31189380,0.011977032,1.8285885,13.744758,-0.8995752,0.017284118,-0.21312411,34.490913,-4.8365774,-47.953934,
31189400,-0.09372348,1.5453231,16.982845,-0.45642555,0.42501372,0.01843755,35.258068,-4.219055,-46.858665,
31189420,0.30781862,2.9802146,14.849671,0.29831368,-0.61042243,-0.1542683,34.87417,-4.668277,-46.940384,
31189440,3.0590258,2.9745255,7.9096694,0.22853892,-1.0475799,-0.34148836,35.48874,-3.3461542,-47.868996,
31189460,2.8119922,2.805644,6.508016,-0.7889209,-0.11507487,-0.70208,35.565613,-3.9955883,-47.00836,
31189480,0.90459216,1.3273345,10.883956,-1.3112996,0.74951965,-0.82312065,35.40706,-1.5471425,-45.802544,
31189500,-0.99741775,0.5122729,12.503,-0.76015884,0.8465917,-0.8763838,36.71221,0.8933697,-46.57216,
31189520,-3.644721,1.1431822,9.392172,-0.027124329,0.4753474,-0.7797111,37.480293,1.2091255,-45.937653,15.0
31189540,-4.11124,1.8573341,6.3322477,0.14518204,0.24245417,-0.3795715,36.939236,1.8149118,-44.33309,
