Date created: 2021-10-22-21-42-26-503000000
Timestamp,acc_x,acc_y,acc_z,gyro_x,gyro_y,gyro_z,mag_x,mag_y,mag_z,light
31169890,-0.5976723,1.351489,10.695613,0.17341153,-0.20096177,0.21537814,4.4941998,-4.9476223,-50.323814,
31169900,-0.12696072,1.2381029,10.593803,0.26608944,-0.17060176,0.28462029,2.802002,-4.973303,-50.36561,
31169910,0.69289184,1.0488601,9.916482,0.34012526,-0.099761724,0.28568554,2.6498146,-5.431761,-51.292656,
31169920,1.4576483,0.98777544,8.6055565,0.30097684,0.018216202,0.2012634,2.3402386,-4.5427113,-50.691597,313.0
31169930,1.6367102,1.2159448,7.921648,0.16062836,0.21635522,0.07289915,3.10952,-5.9796505,-48.953423,
31169940,1.1935468,1.3057753,8.239648,0.0011051595,0.3748132,-0.05067142,2.8050327,-6.3161983,-51.43331,
31169950,0.4539428,1.4698656,8.824742,-0.12832436,0.37907422,-0.1257725,4.1888084,-5.995735,-51.093086,
31169960,-0.41980797,1.7255828,9.336777,-0.23272018,0.2898584,-0.13642514,0.95651245,-6.021599,-49.62554,
31169970,-1.0935363,1.9387804,10.172798,-0.25349283,0.26935208,-0.070645116,4.188286,-5.9887867,-50.628883,
31169980,-1.2678074,1.8639219,11.08308,-0.13977593,0.32767525,0.0420065,2.9553986,-5.399296,-49.42826,
31169990,-1.021672,1.7177975,11.523251,0.0538357,0.38839528,0.1325539,4.0360966,-6.4472466,-51.555946,
31170000,-0.7569716,1.6129954,11.56517,0.2282726,0.3380616,0.18182233,4.4934406,-5.5164127,-48.924355,
31170010,-0.5629378,1.830385,11.438808,0.37155053,0.21901837,0.20392655,4.3404446,-5.385235,-49.85827,
31170020,-0.23715273,1.8830856,11.0423565,0.50231165,0.10263834,0.19700234,3.2629719,-6.6958294,-47.703194,
31170030,-0.057491854,1.9196166,10.175195,0.58007586,-0.051292237,0.1527939,4.034935,-6.721218,-50.15992,
31170040,0.24254183,1.995673,8.818156,0.52628005,-0.1714007,0.09686757,2.650547,-7.467695,-49.41189,
31170050,0.34554738,2.1968932,7.7348003,0.33906,-0.19084176,0.017771758,4.0355377,-7.1634445,-50.154793,
31170060,0.07425946,2.3777518,7.4868684,0.09138624,-0.11387647,-0.04747563,5.5748158,-8.310106,-49.48417,
31170070,0.07126511,2.2969046,8.4468565,-0.062011704,0.143651,-0.055731423,2.6500053,-6.4474106,-50.197548,291.0
31170080,0.14432721,1.8285884,9.987148,-0.08784434,0.38972688,-0.07650407,3.2669544,-8.485586,-49.075233,
31170090,0.010180423,1.853142,11.382515,-0.0050201034,0.41156477,-0.15480092,4.187315,-7.278408,-48.13775,
31170100,-0.23116404,2.1453905,11.313046,0.09085361,0.33939317,-0.1912862,2.64682,-6.115532,-47.725243,
31170110,-0.30422613,1.8016392,11.171714,0.12973574,0.18599522,-0.22857043,2.3414917,-6.5855923,-49.275032,
31170120,-1.342666,2.5813675,10.671058,0.145981,-0.086712256,-0.28076833,5.2654934,-7.85865,-48.568504,
31170130,-1.4420784,2.900565,10.178188,0.18006943,-0.23265335,-0.23256516,3.1103249,-6.5692863,-48.94657,
31170140,-1.242056,2.9077516,9.88594,0.10337046,-0.38685024,-0.1422841,5.2634716,-7.2528,-47.49221,
31170150,-0.9108811,2.1855147,10.300957,0.013622007,-0.4656797,-0.05226932,4.340418,-7.989956,-46.578056,
31170160,-1.1312652,1.9519556,10.064404,-0.011411686,-0.56128716,-0.00752825,3.2660465,-6.447338,-50.801277,
31170170,-0.6246214,1.448905,10.303951,-0.00794958,-0.58339137,0.084084414,3.2660465,-6.447338,-50.801277,263.0
31170180,-0.113186724,1.4692665,10.067397,-0.066006444,-0.67580295,0.12802653,3.2647934,-7.154272,-48.781197,
31170190,0.21918593,1.5710745,8.937331,-0.14856437,-0.67234087,0.13068968,1.1100807,-6.449911,-48.84295,
31170200,0.8659651,1.2686453,8.53489,-0.35416022,-0.5186766,0.12110231,2.1895046,-7.1914597,-50.200386,
31170210,1.0510159,1.421357,8.592981,-0.6335256,-0.29816705,0.065974936,1.5734024,-7.7695885,-48.81614,
31170220,1.679829,0.95363986,10.27221,-0.7507045,0.21555626,-0.02830089,1.8778515,-5.406374,-48.83593,243.0
31170230,1.0785638,0.44220522,12.696435,-0.7397856,0.5873332,-0.1492083,3.263668,-6.7050953,-48.32212,
31170240,0.8515923,0.254759,14.172648,-0.6044972,0.53753215,-0.23389676,2.956808,-6.43116,-49.416283,
31170250,0.90189725,0.0026348792,14.226546,-0.38079178,0.25337315,-0.29488307,3.4175568,-4.2431326,-51.442085,
31170260,0.9971176,-0.3255457,14.196604,-0.15229279,0.0072972514,-0.34148836,2.9575253,-7.45376,-48.785362,
31170270,1.3223038,-0.5644946,14.284637,0.055433597,-0.24064282,-0.37158203,2.801939,-5.5513573,-49.58509,221.0
31170280,1.6217387,-0.52976024,13.54204,0.24478418,-0.4715387,-0.40700206,4.645975,-5.062585,-48.306755,
31170290,1.640503,-0.28063047,12.654315,0.42614532,-0.4797945,-0.41818732,2.9559212,-5.406246,-49.892464,
31170300,1.3276936,0.100849494,11.971204,0.5465201,-0.30988494,-0.36625573,3.8805122,-7.2946587,-48.919014,
31170310,0.96777296,0.86860037,11.292685,0.5888643,-0.05954803,-0.28795886,2.956461,-6.426529,-49.106804,
31170320,0.55275625,2.0070515,11.333408,0.5808748,0.21821943,-0.17157884,3.4183998,-6.859436,-48.93554,201.0
31170330,1.2234902,2.4340456,11.9598255,0.60244644,0.30850053,-0.075438805,3.8804474,-7.872713,-48.138496,
31170340,2.7452178,1.9633342,10.101534,0.5672927,0.060294114,-0.13456093,3.8801632,-7.2900257,-48.609535,
31170350,2.2972634,2.9921918,7.170066,0.2700842,-0.1394428,-0.275442,5.111229,-7.421076,-48.73217,
31170360,2.69132,3.134124,6.568801,-0.24284019,-0.0068174917,-0.28156728,4.188835,-8.890644,-47.499977,
31170370,3.6614885,1.8663172,8.117477,-0.82101196,0.055234108,-0.32284623,5.2631607,-6.5250206,-48.119713,178.0
31170380,3.585432,1.3656621,9.894923,-1.2055721,0.07440886,-0.4530747,4.9591217,-8.314812,-49.189903,
31170390,2.6919186,1.3243402,11.697521,-1.4156953,0.08080044,-0.55427474,3.7247715,-6.4032745,-48.31414,
31170400,1.8427215,0.98777544,12.949757,-1.4918616,0.106899396,-0.55667156,6.0285587,-4.8710012,-46.726936,
31170410,1.1899536,0.6134819,13.992988,-1.4138311,0.19371836,-0.49941367,4.1817284,-3.4411402,-47.872795,
31170420,0.78811204,0.72666824,14.602038,-1.226611,0.24351943,-0.40274101,4.644409,-5.0417385,-46.91416,123.0
31170430,1.1306655,0.544013,13.928908,-0.9831984,0.22860575,-0.311661,6.026142,-3.1020918,-46.74749,
31170440,1.1300666,0.49790007,12.775486,-0.7842604,0.21369207,-0.2908883,6.4904613,-3.2772427,-49.055367,
31170450,1.0162814,0.44519952,12.024504,-0.64178133,0.22594258,-0.29781252,6.488182,-2.233797,-48.293694,
31170460,0.6881009,0.29667988,11.893352,-0.55150026,0.18972363,-0.30606836,5.2581253,-2.8397932,-48.162514,
31170470,0.8312307,0.05413767,11.940661,-0.37999287,0.08266464,-0.31006306,5.5684795,-4.1733875,-48.91317,
31170480,1.1935468,0.3332109,10.436302,-0.17120123,-0.12879017,-0.3795715,6.6435184,-2.8303633,-48.901985,
31170490,1.1025186,0.7392446,8.430088,-0.079588555,-0.36181653,-0.50127786,7.567259,-2.9707146,-49.341667,
31170500,0.27128756,1.2345097,7.203603,-0.10116014,-0.5202745,-0.57664526,7.565832,-3.675332,-47.166847,
31170510,-0.56772876,1.7537297,6.1843266,-0.14137384,-0.58019555,-0.55560637,7.7191525,-2.7978077,-47.792244,
31170520,-1.4486661,2.1633563,5.1955934,-0.24417177,-0.5311935,-0.4530747,7.2592945,-3.2609377,-48.72692,134.0
31170530,-1.8493097,1.9980686,4.9153223,-0.39543918,-0.36874074,-0.2682515,6.4877777,-1.9389791,-48.29711,
31170540,-1.7690613,1.3991988,5.07522,-0.5059602,-0.11281121,-0.053334583,5.4113293,-2.2501392,-48.32029,
31170550,-1.3043383,0.71229535,5.493232,-0.56774557,0.10796466,0.14480442,8.334681,-1.9225454,-49.025185,
31170560,-0.6635479,-0.15426898,5.9244175,-0.62553614,0.23180154,0.28808236,7.257023,-1.3492508,-49.05863,
31170570,-0.10600029,-0.83398604,7.001185,-0.62953085,0.20383836,0.35732448,7.5640907,-0.90235424,-49.056175,149.0
31170580,0.110191636,-1.2394205,7.5766993,-0.5773329,-0.037976444,0.36318344,7.261078,-1.6927109,-52.30462,
31170590,0.017366856,-1.01724,8.666043,-0.50036764,-0.23904493,0.35945505,6.3351345,-1.8124361,-49.540504,
31170600,-0.05210202,-0.93818927,9.699691,-0.2851844,-0.31654283,0.36584663,5.718525,-0.6471329,-49.878853,
31170610,-0.1826556,-0.84416676,10.520741,0.07514097,-0.21773966,0.3772982,5.4122066,-1.3934803,-50.187355,
31170620,-0.24254255,-0.7441555,10.784245,0.53373694,-0.005485909,0.41484874,5.256119,-0.49746323,-49.273033,171.0
31170630,-0.031740457,-0.9064492,9.846415,1.004317,0.18892469,0.4428119,6.7978306,-1.6765518,-50.768684,
31170640,0.15331027,-1.1358162,7.927636,1.3068519,0.23073629,0.42310452,7.2593384,-1.669548,-50.757286,
31170650,-0.27847475,-0.88968086,6.0537734,1.3792897,0.18359837,0.3757003,7.415674,-3.8714008,-50.263603,
31170660,-1.3097283,-0.26266435,5.154271,1.2613119,0.16628784,0.35652554,7.5699406,-4.308978,-50.099922,
31170670,-2.519445,0.40028432,5.9028583,1.0759561,0.16389099,0.4161803,6.4943886,-4.7768126,-50.740334,190.0
31170680,-2.7751622,0.6146797,6.9395013,0.928417,0.0054330397,0.56611615,6.8021164,-5.0623283,-50.419838,
31170690,-1.3504514,-0.04287923,7.5485516,0.8040476,-0.19616808,0.7117909,8.342445,-5.3546467,-51.77102,
31170700,0.20660964,-1.0873078,7.8461895,0.659438,-0.23531651,0.73309624,7.72591,-5.4928646,-50.546623,
31170710,0.73960364,-1.4891493,8.415715,0.4610327,-0.04596592,0.65906036,6.6500645,-6.246252,-50.56466,
31170720,0.56653035,-1.541251,10.238075,0.24265365,0.2744121,0.59114987,6.189453,-6.4099293,-51.19329,203.0
31170730,0.23236103,-1.1316242,12.606006,0.17261258,0.60144794,0.54134876,9.419334,-7.364971,-49.244713,
31170740,-0.36171764,-0.49562463,14.487654,0.30284107,0.7788143,0.47397086,7.270096,-7.167694,-53.633858,
31170750,-1.2684063,0.296081,15.217676,0.5350685,0.71037114,0.42363715,7.8821354,-7.1143456,-50.678734,
31170760,-1.3420672,0.6242615,14.666717,0.8024496,0.4645616,0.41857716,8.805702,-7.2523785,-50.963707,
31170770,-0.8120675,0.60749316,12.647926,0.9611739,0.12101413,0.3911466,8.651024,-7.3882256,-50.037376,
31170780,-0.1491189,0.42304134,10.048233,0.8197602,-0.23558283,0.33122554,7.5774956,-8.46191,-51.754066,
31170790,0.49646255,0.15055567,8.288156,0.3792737,-0.38179022,0.26890764,8.344917,-7.413742,-51.437584,
31170800,0.92405546,0.20086074,8.682811,-0.20156123,-0.2875144,0.20605707,7.732712,-9.346346,-51.894722,
31170810,1.1043153,0.20385507,10.138064,-0.7461772,-0.14876385,0.120569676,7.5767994,-8.452646,-51.135124,
31170820,1.1198859,-0.023715392,12.37065,-1.1563036,-0.010013279,0.026027549,7.4232807,-8.31452,-51.604836,222.0
31170830,0.650971,-0.24769261,15.286547,-1.34379,0.085327804,-0.09221671,7.7329216,-8.625513,-52.986412,
31170840,-0.17786464,-0.32434794,18.041348,-1.2545742,0.074941486,-0.18542726,8.040001,-7.310377,-54.07737,
31170850,-0.8491975,-0.5866528,19.64991,-0.9091625,-0.06860277,-0.20992832,10.959497,-6.7867336,-51.53457,
31170860,-1.0911409,-0.9098428,19.460669,-0.41061917,-0.26940495,-0.17051359,8.342913,-5.071411,-52.54812,
31170870,-0.8911183,-1.2220534,17.977268,0.070080966,-0.45769027,-0.09541249,7.574602,-5.0946655,-53.340782,
31170880,-0.27787587,-1.6173074,14.919439,0.3827358,-0.6347903,-0.03469247,8.804043,-4.9146814,-52.38369,
31170890,0.4329824,-1.9227309,11.344188,0.4213516,-0.68512404,-0.010724042,8.956984,-4.7556734,-51.762672,
31170900,1.5720323,-2.1287425,8.475602,0.24052313,-0.5815272,-0.018447202,8.651527,-6.3818417,-51.751442,
31170910,2.405659,-2.1323354,6.720315,-0.036179066,-0.30349338,-0.11458724,8.651527,-6.3818417,-51.751442,
31170920,1.973275,-1.8867987,6.5400553,-0.27905914,-0.0038880147,-0.2578652,8.95603,-4.308813,-51.458336,254.0
31170930,0.48508403,-1.3034998,6.8736258,-0.41301602,0.16868466,-0.34068942,8.648359,-4.3134823,-51.465935,
31170940,-1.0318527,-0.54233646,7.181445,-0.4950413,0.20516995,-0.2903557,9.418758,-4.3180237,-52.530083,
31170950,-1.784033,-0.19559097,7.789896,-0.48731816,0.17827204,-0.14334935,9.722237,-3.2444305,-50.058723,
31170960,-1.6217394,-0.23331976,8.349241,-0.32486546,0.016085675,0.025228603,11.261578,-3.813036,-50.168617,
31170970,-0.925254,-0.15187347,7.4766874,-0.18425068,-0.2907102,0.12749389,9.876513,-2.8137655,-50.988472,
31170980,-0.052102,-0.0015571937,6.111265,-0.15309173,-0.48964816,0.1629139,9.5692425,-3.1132526,-50.992638,
31170990,1.0767672,-0.17103732,4.8171077,-0.1842507,-0.44943446,0.14746758,10.186033,-3.41263,-51.902412,
31171000,1.789422,-0.28542143,4.1481705,-0.2846518,-0.28751442,0.060115986,10.64463,-1.7748623,-51.2909,
31171010,1.3881794,-0.043478083,4.5104856,-0.39623815,-0.15329123,-0.023240887,10.800928,-1.9500484,-53.296944,
31171020,0.5832986,0.023595318,5.567491,-0.42366865,-0.04809645,-0.010724042,12.027884,-1.4474506,-50.486473,238.0
31171030,-0.023356289,-0.0470713,6.8107443,-0.32726234,0.017949887,0.087013885,10.796871,-1.6065874,-50.050957,
31171040,-0.32398885,0.06491733,7.900687,-0.09237172,0.104236245,0.22869393,11.720734,-1.4590693,-50.958275,
31171050,-0.33117527,0.20804718,8.408529,0.25303996,0.21608892,0.37649927,11.873413,-0.8624649,-50.651863,
31171060,-0.06288168,0.32722223,8.389964,0.6554433,0.24884576,0.48329192,13.4126,-2.44209,-49.35717,
31171070,0.4329824,0.25356126,7.43297,0.9904686,0.10290465,0.50965714,12.796112,-0.98891926,-50.163155,207.0
31171080,1.3390721,-0.28542143,6.367581,1.1673024,-0.26088282,0.45479614,14.183052,-2.7368155,-50.10842,
31171090,2.6044836,-0.898065,4.8943615,1.1127076,-0.79804194,0.28994662,14.17992,-2.6951218,-47.323204,
31171100,3.4896128,-1.0837145,3.7481253,0.80484647,-1.1764768,0.032419134,12.4889145,-2.5919247,-48.60459,
31171110,3.338099,-0.8633306,3.8750858,0.38912737,-1.1304042,-0.21285778,13.106739,-3.7734394,-49.349358,
31171120,2.423625,-0.6375567,5.618994,0.029867277,-0.71042407,-0.32763994,14.030058,-2.6056385,-51.04232,189.0
31171130,0.99412334,-0.7088222,8.602563,-0.11314435,-0.10775119,-0.28263253,13.108763,-4.3792896,-50.425636,
31171140,-0.44795483,-0.16205426,11.92629,0.06848308,0.42461425,-0.13322935,13.260008,-2.60573,-50.28765,
31171150,-1.1378527,0.10144837,13.581564,0.36835477,0.514629,0.038278077,14.335642,-2.5731745,-49.177925,
31171160,-0.3766893,-0.11474357,13.485744,0.5526453,0.1873268,0.17383286,14.026863,-3.1420012,-47.476616,
31171170,2.0074105,-1.145997,12.28082,0.52920955,-0.3104176,0.20392655,14.797371,-3.7269115,-47.914955,164.0
31171180,4.9742107,-2.3149905,10.857905,0.24957787,-0.6222735,0.061713874,15.41321,-3.5794306,-48.52041,
31171190,7.4373617,-3.1288545,10.651894,-0.15575488,-0.56128716,-0.2666536,14.028273,-4.1738644,-47.464622,
31171200,8.113485,-3.355826,11.537024,-0.50223184,-0.1682049,-0.69728637,15.103039,-4.1297264,-45.58123,
31171210,5.9928875,-2.964764,13.416876,-0.6825277,0.35776895,-1.0317792,14.028622,-4.1784973,-47.7741,
31171220,2.4469807,-2.2604935,15.839901,-0.6894519,0.6808101,-1.1265876,14.177641,-1.6516781,-46.561516,142.0
31171230,-0.9785533,-1.2046862,18.964804,-0.5536308,0.76416695,-1.0759876,15.100283,-1.4879436,-46.385704,
31171240,-2.614665,-0.49023485,18.90851,-0.11500856,0.43633214,-0.8528148,17.099682,-1.7408314,-45.559227,
31171250,-2.509863,-0.17702603,14.972141,0.28659576,-0.118670166,-0.564661,16.792831,-1.466896,-46.65339,
31171260,-1.6750388,0.2882957,10.992052,0.27913892,-0.47526708,-0.33616203,16.63815,-1.6027431,-45.72706,
31171270,-0.06467831,-0.40399757,8.564235,-0.09556751,-0.51175237,-0.14334935,16.48399,-1.7455378,-45.26496,110.0
31171280,1.0743717,-0.7369691,8.975658,-0.6907835,-0.32666284,-0.009392461,17.713299,-0.84009075,-45.09011,
31171290,1.3845861,-0.011737987,11.886763,-1.1930552,0.004900407,0.038011767,17.713593,-0.5545368,-45.712456,
31171300,1.463637,0.018205494,14.710433,-1.3965206,0.25257418,0.03641387,17.712685,-1.2661028,-44.00184,
31171310,1.2803829,0.24996805,16.898104,-1.3078374,0.3636279,0.0071191224,18.173431,0.9219246,-46.02764,
31171320,1.3570383,0.53562886,18.222204,-0.96322465,0.37428057,-0.005397723,19.092926,2.1406841,-44.31649,69.0
31171330,1.408541,0.74343663,18.280294,-0.46042025,0.28639632,-0.038953524,18.476418,1.8573742,-42.935646,
31171340,1.5043602,0.6560016,16.67293,0.10310414,0.04884253,-0.11192408,18.173832,0.6271057,-46.024223,
31171350,1.4762132,0.77218235,13.119238,0.55610746,-0.33971232,-0.24161991,17.096169,0.33216095,-44.964256,
31171360,1.0162814,0.82128966,9.028359,0.7300117,-0.5815271,-0.39448524,19.70673,2.025776,-42.752235,
31171370,0.08384138,0.95064545,6.0100555,0.62215376,-0.476865,-0.51432735,19.251228,-0.37683296,-45.211967,18.0
31171380,-1.1953442,1.0368828,4.394904,0.34305474,-0.106685944,-0.5340347,18.78928,-0.81216717,-44.28985,
31171390,-1.9487221,0.7620016,4.3212433,-0.020732746,0.2829342,-0.42404628,18.632442,0.3833027,-43.069466,
31171400,-2.1361685,0.37992275,5.661514,-0.36507916,0.4922585,-0.24295148,18.635826,-0.095986366,-45.540062,
31171410,-2.0511289,0.42603573,7.1694674,-0.53711927,0.5646964,-0.023507204,19.247036,0.69209003,-42.748222,
31171420,-1.2149072,0.4731468,8.1340475,-0.5211403,0.6650975,0.23268867,17.862564,0.38089466,-42.469536,16.0
31171430,0.022157818,0.2385895,9.294856,-0.34963286,0.83074594,0.4113866,20.01691,0.69449806,-43.348167,
31171440,0.9066882,0.024194188,10.441092,-0.03484749,0.8919986,0.48009613,20.78696,0.6945896,-44.10282,
31171450,1.0917389,0.07090603,11.311849,0.3899263,0.896526,0.4763677,20.479313,0.5448284,-43.953987,
31171460,0.5425755,0.21223927,11.392097,0.8948613,0.7790806,0.40339714,20.171837,-0.47549057,-42.866463,
31171470,0.034734074,0.3990866,9.887736,1.3555877,0.5915942,0.35332978,21.403252,-0.61117077,-43.29856,
31171480,0.3988468,0.28829566,7.400631,1.6645141,0.4477837,0.3370845,19.250671,-1.0930309,-43.810814,
31171490,0.8444059,0.10683819,5.0824065,1.7348216,0.37268266,0.27636448,20.942425,-1.4956818,-42.835487,
31171500,0.7174455,0.016408883,3.5570858,1.5870163,0.36229634,0.19061077,18.9449,-1.9914207,-44.42707,
31171510,-0.016169861,-0.015331212,2.9815722,1.2977972,0.44698477,0.13814652,19.869144,-3.8752003,-43.144157,
31171520,-1.0049036,-0.33991852,4.557797,0.9822128,0.6720217,0.16344653,20.177635,-3.5919266,-44.22312,
31171530,-2.243366,-0.6950482,7.937817,0.8527833,0.87522066,0.2686413,21.406994,-2.9766655,-43.735374,
31171540,-3.6028001,-0.70762444,10.9692955,1.0189644,0.87761754,0.4390835,18.793915,-4.2025747,-44.250465,
31171550,-3.763896,-0.3902236,12.235305,1.3286898,0.6211554,0.6670499,19.257729,-5.3841095,-44.84429,
31171560,-2.2769027,-0.16444974,11.828074,1.6432089,0.2610963,0.83908993,18.640766,-5.0824137,-43.779793,
31171570,0.3299768,-0.75373745,9.57872,1.8296299,-0.04676487,0.84388363,19.71951,-6.8280334,-43.268456,
31171580,2.3433764,-1.6442565,6.402315,1.6578562,-0.20229334,0.6563972,16.954739,-8.374256,-45.33126,
31171590,3.0452516,-1.7316916,5.404,1.0626402,-0.099761724,0.37783086,16.954445,-8.659813,-44.7089,
31171600,1.4977726,-0.9483701,8.442664,0.39365476,0.29065734,0.11018337,16.953384,-7.632578,-45.030342,
31171610,-1.0647905,0.17151612,13.844468,0.161161,0.7476554,0.006320175,16.954445,-8.659813,-44.7089,
31171620,-2.4122472,0.6595949,16.994522,0.40910107,0.83820283,0.07236651,17.571922,-9.836693,-45.144203,
31171630,-1.6259314,0.64881516,16.48249,0.8200265,0.5369995,0.16744128,16.032948,-10.286053,-44.093925,
31171640,0.025751024,0.4631656,12.785666,1.0192307,0.12367729,0.15013075,16.032948,-10.286053,-44.093925,
31171650,1.4444731,-0.07342157,9.065489,0.77848125,-0.14210595,0.0041896477,17.721539,-8.620344,-42.83309,
31171660,1.6696482,-0.06563625,7.812054,0.13506205,-0.2470344,-0.2011399,15.570059,-9.406288,-43.96087,
31171670,1.5870042,-0.10336504,9.011591,-0.54617393,-0.17539543,-0.39208835,15.263199,-9.132349,-45.055016,
31171680,0.3754909,-0.057850935,11.378324,-1.0369941,0.0054330416,-0.5577369,16.033104,-9.275036,-45.498512,
31171690,-1.2702029,0.10863481,14.061857,-1.2694879,0.14285204,-0.6157937,16.031557,-7.5177097,-46.292717,
31171700,-2.8649926,0.45717692,16.21659,-1.2393942,0.17853837,-0.5604,16.032656,-7.8217907,-46.90824,
31171710,-3.5309358,0.55299604,17.075369,-0.9693499,0.21369205,-0.40034416,14.495392,-8.149221,-47.56173,
31171720,-3.0967553,0.15474777,16.087234,-0.5994371,0.24511734,-0.19421569,15.4163685,-6.5160294,-47.7125,18.0
31171730,-2.0139987,0.07449925,14.519394,-0.3190065,0.18226679,-0.047209315,14.647846,-7.2601166,-47.413475,
31171740,-0.30602282,0.004431486,12.474255,-0.15761909,-0.029188024,0.0318865,15.259182,-5.3159304,-46.18267,
31171750,1.5025635,-0.2423028,10.099138,-0.122998044,-0.1682049,-0.015784042,15.260471,-6.635662,-45.703056,
31171760,1.766665,-0.18780565,9.119986,-0.23165491,-0.1780586,-0.20060727,15.260481,-5.7674217,-46.796455,
31171770,1.1276711,-0.00515043,9.293059,-0.357356,-0.2856502,-0.36838627,14.336834,-5.194109,-46.980843,26.0
31171780,0.22577348,0.0032337345,8.892415,-0.42739707,-0.59377766,-0.4690537,14.339268,-5.2265368,-49.147102,
31171790,-0.73421454,0.24338049,8.328879,-0.47054026,-0.8406525,-0.46372736,13.723549,-5.08615,-49.009285,
31171800,-1.4666321,0.32602447,7.786303,-0.47879606,-0.8318641,-0.3468147,14.7997055,-5.060543,-48.363747,
31171810,-1.8888352,0.3589623,7.7479753,-0.46894234,-0.6129525,-0.16518724,13.107298,-5.8070545,-47.31385,
31171820,-2.1319761,0.1912788,8.583399,-0.39890128,-0.3658113,0.034017026,13.724014,-4.8029137,-49.78637,47.0
31171830,-1.7876261,-0.17283392,9.68472,-0.20369175,-0.22759335,0.24200973,13.722853,-5.076885,-48.390343,
31171840,-0.2335595,-0.52437043,9.712867,0.10949573,-0.31441233,0.38289082,13.414173,-4.344509,-48.4065,
31171850,1.3426653,-0.68726295,7.9000874,0.4096337,-0.5708746,0.37916243,13.720032,-3.0131578,-48.414314,
31171860,2.3900883,-0.43334225,6.3376374,0.6011148,-0.7064293,0.26198342,12.4910755,-3.9232388,-48.89863,
31171870,2.2780995,-0.032698434,4.929096,0.7643665,-0.6228061,0.10485704,12.340031,-5.844206,-49.03492,81.0
31171880,1.2522359,0.40507528,3.4522839,0.8844749,-0.34503865,0.0103149135,12.3393345,-5.834942,-48.415977,
31171890,-0.04311899,0.72307503,2.1078215,0.8921981,-0.043835394,0.049995974,10.648237,-6.1647053,-49.073296,
31171900,-0.676723,0.98597884,1.5712342,0.7507844,0.1473794,0.20552444,11.110586,-6.024189,-49.991997,
31171910,0.1760673,0.86201286,1.4778105,0.53586745,0.17507625,0.3772982,10.957722,-7.486717,-49.050285,
31171920,1.9415349,0.18469124,1.2700027,0.22054945,0.05017411,0.43029505,12.800835,-6.6961784,-47.31118,102.0
31171930,2.930269,-0.07761365,2.5982957,-0.14670014,0.0019709363,0.33601925,12.033825,-7.170925,-48.717644,
31171940,3.191376,-0.45250598,5.209367,-0.37200338,0.097045705,0.19327392,12.341999,-6.159872,-50.42408,
31171950,2.9530258,-1.1064717,8.215094,-0.3669434,0.22381207,0.06304546,10.95112,-3.7806444,-47.700478,
31171960,1.8834445,-1.2585845,10.767477,-0.1371128,0.27627632,-7.1406364E-5,11.262575,-5.4183216,-49.066658,
31171970,0.5347902,-0.24709377,12.700627,0.23546311,0.28000474,0.05851809,12.028917,-5.079403,-46.884804,138.0
31171980,0.42120466,0.8955495,14.1938095,0.7345391,0.2629605,0.16344653,13.57049,-5.5330276,-49.16268,
31171990,1.6307216,0.19127882,13.374355,1.2440014,0.16309205,0.16664234,10.804573,-8.366558,-48.579613,
31172000,2.634427,-0.085398965,9.617646,1.484751,0.1974468,0.029223338,13.108606,-5.3903065,-49.021065,
31172010,3.30576,0.14157264,6.037604,1.2477298,0.2243447,-0.21365675,12.954992,-6.553383,-47.773293,
31172020,3.0937603,0.45657808,4.5452204,0.59312534,0.10157308,-0.5153926,12.187275,-7.887104,-47.467415,170.0
31172030,1.6870154,0.5224538,5.426158,-0.1930391,-0.0030890654,-0.73244005,12.33852,-6.1135464,-47.329414,
31172040,0.17966051,0.1816969,7.7683372,-0.7994404,0.13805835,-0.7375001,10.803236,-8.638212,-47.028862,
31172050,-0.9396268,-0.3051841,11.619069,-1.1738805,0.2565689,-0.5987495,13.569468,-6.532463,-46.98443,
31172060,-1.6876149,-0.28122932,16.45554,-1.1954521,0.22833943,-0.4141926,13.107178,-6.094925,-46.84623,
31172070,-1.6373099,-0.23152316,20.183502,-0.7690804,0.17028257,-0.23442939,12.9537735,-6.5371685,-46.690163,193.0
31172080,-1.3396719,0.36016005,21.353096,-0.07985485,0.13246572,-0.14814305,12.950743,-5.194273,-45.62243,
31172090,-0.50305086,1.1758205,20.113436,0.5638306,-0.14823122,-0.19954202,13.413303,-4.3329277,-47.632835,
31172100,0.283265,1.8770968,16.049505,0.8349402,-0.6355893,-0.3710494,11.716566,-3.2850513,-44.90142,
31172110,0.62162626,2.7041357,12.180809,0.64479065,-1.0893916,-0.56306314,13.2588825,-4.9063683,-46.39193,
31172120,0.3066209,3.3682818,9.498471,0.123344146,-1.29046,-0.67172,12.796686,-4.0358667,-46.8778,207.0
31172130,-0.42639554,3.6377735,8.524709,-0.46734446,-0.97993565,-0.59475476,13.260099,-4.9225826,-47.47506,
31172140,-1.209717,3.9677505,9.506856,-0.95283836,-0.36874077,-0.35187468,12.023434,-2.6907454,-44.900673,
31172150,-1.2576265,4.1647787,12.195182,-1.2255459,0.1188836,-0.0669167,11.257631,-4.0499477,-46.296867,
31172160,-0.50364965,4.09531,14.995496,-1.2053058,0.29411948,0.117906526,12.025539,-3.7318745,-45.50762,
31172170,0.64019126,4.0192537,16.771742,-0.8947815,0.2829342,0.19087708,11.404564,-1.4953318,-43.2275,
31172180,2.3319979,3.8797166,16.525007,-0.39330864,0.19478363,0.120836005,12.018929,-0.89404297,-43.064415,
31172190,3.568065,3.3036044,13.857643,-0.0044874717,0.031265683,-0.115918815,10.942022,-0.62019825,-43.403908,
31172200,3.774675,2.7011414,10.66507,0.0873915,-0.18445018,-0.4059368,10.786051,0.5636873,-42.95719,
31172210,4.1633415,1.9052438,8.081546,-0.054022226,-0.2973681,-0.6533443,11.401451,0.28284168,-42.629112,
31172220,3.9842794,1.168634,7.11497,-0.27639598,-0.2134786,-0.9044801,13.708441,0.46990108,-42.264366,229.0
31172230,2.3763144,1.0656285,7.626405,-0.4076897,0.0027698837,-1.1146035,12.478249,0.58936787,-42.915398,
31172240,0.19044013,1.0512556,8.3480425,-0.36800867,0.2563026,-1.177454,11.2428,2.8049908,-41.42414,
31172250,-1.6109596,0.6733689,8.37619,-0.2028928,0.4925248,-1.1391045,11.243963,3.0789628,-42.820168,
31172260,-3.1458626,0.33860072,7.8641562,-0.016205372,0.6445911,-1.012338,10.931089,4.8802624,-40.37258,
31172270,-4.12202,-0.21235931,7.4862695,0.12467572,0.6102364,-0.8187264,12.778614,3.4411354,-39.845665,206.0
31172280,-4.506494,-0.8232063,7.273671,0.25304,0.30929947,-0.5928905,12.009838,3.134645,-39.861237,
31172290,-4.5202684,-1.0399971,6.0681458,0.31083053,-0.11707226,-0.3486789,12.010708,3.1230636,-40.634903,
31172300,-3.8501332,-0.8723137,5.273446,0.29778105,-0.35995233,-0.11192408,13.393473,4.18057,-40.30323,
31172310,-2.5823262,-0.48185065,5.0536613,0.32148317,-0.32826072,0.063578084,12.928907,5.6615553,-39.40335,
31172320,-1.4959767,-0.016528942,4.5272546,0.405639,-0.04170487,0.1679739,12.1616955,5.3342175,-40.811516,171.0
31172330,-0.84859866,0.073900364,4.28052,0.4344011,0.24458471,0.21537814,12.929365,5.0765514,-39.08703,
31172340,-0.74439526,0.13378733,4.9548473,0.3992474,0.2866626,0.23109077,12.161074,4.039964,-38.629845,
31172350,-1.0629939,0.13378733,6.0118523,0.39072528,0.22833943,0.2579887,12.1594715,6.0874767,-39.736954,
31172360,-1.3875813,0.172115,6.776609,0.4514453,0.17853835,0.3357529,12.469231,6.0643506,-41.586143,
31172370,-1.7121687,0.39429563,7.0461,0.5382643,0.22860576,0.45452982,12.005672,6.80829,-40.677704,144.0
31172380,-1.7864285,0.59491694,6.8987784,0.60457695,0.38040578,0.624972,12.005672,6.80829,-40.677704,
31172390,-1.508553,0.89375293,7.1982136,0.58753276,0.5716206,0.8271057,15.238792,5.2311845,-40.888557,
31172400,-1.5672421,1.623775,9.171488,0.5116327,0.72581744,0.985031,14.465263,5.2774186,-37.039215,
31172410,-1.8313438,2.3424184,12.164041,0.5435906,0.6946585,1.0428216,15.698826,5.6919966,-40.108627,
31172420,-1.5648468,2.4394352,13.757632,0.76889384,0.38253635,1.0422889,15.388617,7.168367,-39.669144,121.0
31172430,-0.6737287,1.7483399,13.436638,1.0964624,-0.044368025,0.9346973,14.773659,7.8775434,-40.930763,
31172440,-0.7282258,0.934476,11.294481,1.2549202,-0.56528187,0.6979425,15.083574,6.11562,-40.747887,
31172450,-2.1307786,1.1099448,9.651781,1.0189644,-0.91255784,0.5048635,15.8532295,4.5289564,-39.162727,
31172460,-3.63454,2.4723732,10.992052,0.5593032,-0.81002617,0.5352235,13.7002945,5.9333024,-41.70878,
31172470,-3.8351614,3.4503272,13.30309,0.25596946,-0.3892471,0.725373,15.392601,5.3786116,-41.041206,88.0
31172480,-2.6128688,3.0317173,14.212174,0.20883155,0.045380425,0.9022068,16.776722,5.694441,-41.01043,
31172490,-0.87135565,2.4801583,14.072039,0.22560944,0.24857944,0.96026367,16.004677,6.155107,-39.023026,
31172500,0.7581686,1.8645207,13.370163,0.18379787,0.14817835,0.8366931,14.776588,5.233445,-40.28102,
31172510,1.885241,0.6410299,12.093973,0.031731486,-0.10748489,0.5658498,15.855299,5.514494,-42.26937,
31172520,1.8493091,-0.1554667,11.165724,-0.27719492,-0.32133654,0.24334131,14.626156,3.73849,-41.50556,30.0
31172530,1.0887446,-0.562698,11.586729,-0.7179477,-0.42573234,-0.008060882,16.004831,7.166124,-40.427612,
31172540,0.13454568,-1.2020912,13.173335,-1.1328678,-0.36767548,-0.11911461,16.624191,5.2406144,-41.62803,
31172550,-1.0504177,-1.5029234,15.217676,-1.3310069,-0.15222596,-0.069579855,15.240686,6.2190385,-43.84046,
31172560,-1.7858297,-1.4160873,17.173586,-1.2287416,0.13246572,0.14800021,16.468006,5.7036695,-40.08963,
31172570,-1.0474234,-1.4370477,17.591595,-0.9022383,0.31755525,0.41245186,17.69888,6.5882707,-41.307365,15.0
31172580,0.45454168,-1.5526296,15.992613,-0.5243361,0.34951317,0.56877935,16.31364,7.589857,-41.97248,
31172590,1.8696706,-1.4915447,13.723497,-0.2665423,0.30264157,0.59541094,16.770927,8.810878,-39.653786,
31172600,3.423737,-1.3082907,11.3789215,-0.110214874,0.26242787,0.5160488,16.005783,6.719264,-40.73194,
31172610,4.7723913,-1.0609576,8.689399,-0.068935916,0.22248049,0.31524658,17.54301,9.0733595,-42.578148,
31172620,4.7646065,-0.57527435,6.810745,-0.15522227,0.18732679,0.026293864,17.080162,8.794701,-41.03878,13.0
31172630,3.6614885,-0.0746193,6.0753326,-0.2969023,0.1372594,-0.23229885,18.162731,6.1298842,-42.838173,
31172640,2.1768909,0.09545967,5.7273893,-0.39144444,0.091186754,-0.3670547,19.848091,9.285899,-40.511322,
31172650,0.63719696,0.17510933,5.463288,-0.42686445,0.13992256,-0.35373887,16.772549,8.4998455,-40.73349,
31172660,-0.20361604,0.06431845,5.5848584,-0.392776,0.28027105,-0.2077978,16.46534,8.778414,-41.51818,
31172670,-0.49706215,-0.19079998,5.7046323,-0.28225493,0.4200869,-0.014452463,18.156723,8.52549,-40.38983,11.0
31172680,-0.44436163,-0.47765854,5.723796,-0.13658015,0.43926162,0.17409918,18.001652,9.552702,-40.56034,
31172690,-0.4964633,-0.20277742,5.664508,0.002170423,0.3300721,0.3384161,19.232426,9.136101,-40.060616,
31172700,-0.22577423,0.29488325,5.29261,0.16036206,0.20836574,0.51471716,19.69381,8.855235,-39.581596,
31172710,1.4786087,0.34878153,4.3931074,0.29298735,0.10237202,0.66145724,22.155907,7.8699903,-38.889877,
31172720,3.2045512,0.25116578,2.9264765,0.33826107,0.008096202,0.6489403,20.158726,7.3696184,-40.79094,10.0
31172730,3.7680874,0.64282656,2.0227818,0.26076314,-0.012942754,0.5147172,18.619644,7.5006304,-40.366447,
31172740,3.4962006,0.9213009,2.6641712,0.111892566,-0.02492697,0.36637926,20.930077,6.918217,-42.1594,
31172750,2.814687,0.8560241,4.249379,0.02826938,-0.07206488,0.24360763,20.160007,7.931459,-42.654594,
31172760,2.1439528,0.5841373,5.611808,0.06821676,-0.15116069,0.17756128,20.931194,5.600801,-41.525063,
31172770,1.6690493,0.20445393,6.5849705,0.1209473,-0.2923081,0.14347285,22.621578,6.953163,-41.49868,
31172780,1.9355463,-1.1573756,7.162281,0.11535467,-0.42013973,0.12989074,20.775265,7.5078354,-42.015312,
31172790,2.6523933,-2.153296,7.84619,0.023209378,-0.35808814,0.118705474,22.009197,5.022874,-41.801094,
31172800,3.434517,-2.3688889,10.079973,-0.054288544,-0.084315404,0.088611774,20.93013,6.6280317,-41.84652,
31172810,3.0877714,-1.8790137,13.485744,0.02826938,0.23313314,-0.0024682488,21.088589,5.1215315,-44.146584,
31172820,0.78392,1.2626567,17.677834,0.49059373,0.5412606,-0.059992477,21.086273,5.4418287,-42.44796,
31172830,0.9432193,1.5608937,19.381617,1.3627783,0.48853004,-0.050937742,19.70123,5.4277663,-42.017952,
31172840,1.6325183,0.66618246,15.4171,2.1228437,-0.14024174,-0.184362,20.473118,3.9560838,-42.60076,
31172850,1.587603,0.79434055,9.614652,2.225908,-1.0545042,-0.4264431,23.397411,2.9685774,-42.516594,
31172860,1.1049141,1.7812777,4.6745768,1.478093,-1.9125738,-0.64642,21.707752,1.4618578,-43.00547,
31172870,2.552382,0.7901485,3.9481478,0.22534314,-2.0342803,-0.7361685,24.321133,1.0917463,-40.76947,
31172880,3.3955903,-0.77110463,7.4096136,-0.93872356,-1.3136295,-0.7968885,21.092667,1.014924,-42.706062,
31172890,2.1235914,-1.3867426,13.449214,-1.5757512,-0.086712226,-0.758539,21.246738,1.5929976,-43.637505,
31172900,0.4054344,-1.1891156,19.437311,-1.5906649,0.9500555,-0.5398936,20.477097,2.1663284,-43.972816,
31172910,0.023954421,-0.7675114,22.869434,-1.1134268,1.3436704,-0.25493568,20.015621,2.0142317,-43.827766,
31172920,0.9450159,-0.32674342,22.625694,-0.46361604,1.069365,-0.08049881,22.628983,2.6574535,-42.84162,
31172930,2.414043,0.4098662,19.287594,0.06581992,0.48054057,-0.094879866,20.93826,2.1779642,-43.651955,
31172940,3.6285508,1.4620802,15.617123,0.2788726,-0.10215857,-0.29248625,22.322262,2.205925,-43.153557,
31172950,3.8579178,2.3963168,12.580254,0.19471681,-0.59617454,-0.5923579,21.705593,2.793171,-42.711403,
31172960,3.1746075,3.3018074,10.446482,-0.07133276,-0.82067883,-0.87891376,22.016521,1.1624432,-43.613365,
31172970,2.4439867,3.5742934,9.391872,-0.38425392,-0.6768682,-1.0458939,21.401558,1.0033798,-43.781593,
31172980,1.3450608,3.4365532,8.513929,-0.6795982,-0.293906,-1.1201961,22.476944,2.3417702,-44.079872,
31172990,0.2904514,3.175446,7.7749248,-0.97627413,0.168951,-1.1018202,22.018494,0.84677887,-45.002556,
31173000,-0.30781937,2.7598305,7.0197496,-1.3022448,0.52022165,-1.0520191,22.479156,0.72027016,-44.061028,
31173010,-1.140847,2.4550061,7.8318167,-1.6183617,0.68959856,-1.0235233,22.786774,1.0151253,-44.366325,
31173020,-2.026575,2.1148481,9.45116,-1.7461933,0.6504501,-0.98730433,22.78239,3.099699,-42.997704,
31173030,-3.0326762,2.114249,11.438809,-1.6732228,0.3769437,-0.91886115,24.168293,2.2339401,-43.107964,
31173040,-3.285399,2.1932998,13.086898,-1.3709543,0.0017046221,-0.7734527,23.397633,4.5576487,-44.701683,
31173050,-2.3607445,2.0166335,12.965926,-0.86308986,-0.37433338,-0.5904937,22.781391,4.7049847,-44.099663,
31173060,-0.60006773,1.7693003,10.95612,-0.3738676,-0.61215353,-0.4765105,22.780437,5.1518445,-43.79534,
31173070,1.2486428,1.3920125,7.8449926,-0.0585496,-0.5519661,-0.4884947,22.785225,2.7724528,-45.160545,
31173080,1.8151734,1.2177414,5.236316,0.03652517,-0.14157332,-0.61100006,22.012451,5.26905,-45.053917,
31173090,0.9234566,1.2614589,4.43982,-0.033249587,0.3535079,-0.7263148,22.321133,4.536674,-45.037758,
31173100,-0.37489274,1.2852141,4.7492356,-0.11687277,0.71782804,-0.7505495,21.24725,3.4676218,-46.444954,
31173110,-1.5091518,1.3171538,5.3015933,-0.12086752,0.93780494,-0.667459,22.322594,3.2146254,-44.712883,
31173120,-2.2403717,1.2093573,5.9765186,-0.018602215,0.9947965,-0.53217053,22.322594,3.2146254,-44.712883,
31173130,-2.3990722,0.7871541,6.308293,0.14651363,0.85071963,-0.39421892,23.550434,5.4421215,-44.862892,14.0
31173140,-2.2469592,0.2625443,6.235231,0.31109685,0.4459195,-0.29275256,23.093552,3.9262834,-47.17817,
31173150,-2.2092304,0.15714325,5.251887,0.3941874,0.0043677837,-0.22590728,23.556442,3.046516,-47.31124,
31173160,-2.3547559,0.44879276,4.6422377,0.3877958,-0.24144176,-0.16864936,23.558666,2.2932568,-48.38581,
31173170,-2.7907326,0.7991315,4.8165092,0.3859316,-0.21081544,-0.08262933,21.558762,1.5397596,-47.498238,
31173180,-3.45967,1.1392894,6.280745,0.50151265,0.010759361,0.055322297,23.560566,1.3995371,-48.99447,22.0
31173190,-3.901636,0.77577555,7.7395916,0.78913385,0.28107,0.2782287,22.171051,3.037086,-46.57177,
31173200,-3.7105966,-0.0764159,8.410925,1.1329477,0.44245744,0.5168477,23.407154,0.0890522,-47.744987,
31173210,-3.309354,-0.5087998,8.013274,1.3755614,0.48160583,0.695812,22.024597,-0.24762535,-49.168373,
31173220,-3.0751958,-0.57287884,6.753253,1.3989973,0.52901006,0.82870364,23.10191,-0.81628704,-48.825462,
31173230,-2.7847443,-0.11055149,6.3532076,1.1681013,0.5167595,0.91525626,22.48544,-0.37644863,-48.3816,35.0
31173240,-3.0003371,0.91052127,7.520405,0.83973384,0.34898055,0.9456163,22.49104,-2.4772358,-50.83335,
31173250,-2.5901117,1.5578995,9.116392,0.6008485,0.08239833,0.93150157,23.10419,-1.8597307,-49.587135,
31173260,-1.8876375,0.82847613,9.414631,0.27328,-0.28272074,0.82390994,22.492699,-4.8149347,-49.413353,
31173270,-1.9433323,0.3966911,10.4740305,-0.13844436,-0.4196071,0.7384225,20.799736,-3.527831,-50.398964,
31173280,-2.4631515,0.5428153,13.120436,-0.38052547,-0.15355752,0.6936815,21.723518,-4.8266077,-49.43235,52.0
31173290,-3.7387433,1.8124188,16.480692,-0.27346653,0.38972688,0.6657183,21.260784,-2.9358234,-50.70388,
31173300,-4.192687,1.7130065,18.31443,0.037324116,0.6584395,0.6824962,22.80091,-5.8305473,-48.62011,
31173310,-4.0812964,1.219538,17.216105,0.2937863,0.56895745,0.69474673,21.723152,-3.8086424,-50.37275,
31173320,-3.712992,1.7962494,15.338649,0.37341475,0.18972364,0.6936815,21.726246,-4.5734835,-52.220985,
31173330,-2.142756,1.4093797,12.998265,0.22241364,-0.4214713,0.63748884,21.724564,-4.8405056,-50.360756,98.0
31173340,-0.21259905,0.36974198,10.615963,-0.20156123,-1.0715483,0.46198666,22.493046,-4.8195677,-49.722816,
31173350,1.2282813,-0.2105627,9.916482,-0.7930488,-1.4350696,0.2167097,20.185223,-4.2718983,-50.250862,
31173360,1.4690269,-1.1998954,11.154346,-1.3608342,-1.3881979,-0.010990355,20.189316,-6.642025,-50.99714,
31173370,0.41860947,-1.9227309,13.910343,-1.6804132,-0.9580978,-0.11192408,20.954468,-3.68217,-51.012383,
31173380,-1.04922,-2.2191715,16.715448,-1.6508522,-0.3873829,-0.030431414,19.108124,-2.9824047,-51.685463,139.0
31173390,-1.655875,-2.5012393,18.014997,-1.3435237,0.08772465,0.18235496,19.262592,-3.5673914,-51.52009,
31173400,-1.0737736,-2.6276007,17.578419,-0.9283373,0.31995213,0.39700556,18.648727,-3.1622982,-53.39721,
31173410,0.53239477,-2.6449678,15.583586,-0.5640171,0.31808788,0.50779295,18.0322,-2.4322748,-53.266243,
31173420,2.6817377,-2.400629,12.6994295,-0.32752866,0.22061628,0.47370455,19.722202,-1.7984276,-51.99343,
31173430,4.7652054,-2.0772393,9.568539,-0.26893914,0.13246572,0.2752992,18.800045,-2.692256,-51.696495,189.0
31173440,5.513194,-1.582573,7.651557,-0.32619703,0.097045705,-0.041350372,17.87706,-2.8513575,-51.562843,
31173450,4.814912,-0.8806977,6.7748127,-0.3861181,0.098110974,-0.32124835,17.105873,-0.52069855,-52.69236,
31173460,3.375229,-0.27823496,6.171152,-0.3975697,0.1002415,-0.4512105,18.027752,-0.92575645,-51.11709,
31173470,2.0792751,0.13199073,5.202181,-0.39091182,0.0935836,-0.48902732,18.18203,-0.49509144,-52.046837,
31173480,1.2731965,0.23978725,4.3182487,-0.41195077,0.10849729,-0.44029152,18.182377,-0.4997244,-52.356316,210.0
31173490,0.7114567,0.124205425,3.5690632,-0.46228445,0.18839204,-0.33669466,18.180096,0.5437193,-51.594627,
31173500,0.25631583,0.16432968,3.4720464,-0.5307276,0.34125736,-0.204602,18.179398,0.5529852,-50.975685,
31173510,0.041920505,0.1739116,4.1355944,-0.5618866,0.5074384,-0.083960906,17.721382,-1.381917,-51.738503,
31173520,-0.18744656,0.1068382,5.6321697,-0.49157923,0.5891974,0.0017928057,18.028446,-0.9350214,-51.73603,
31173530,-0.11378559,-0.11773792,6.703547,-0.26041704,0.5058406,0.06011598,17.410595,0.39158726,-51.147697,233.0
31173540,0.25392038,-0.46568117,6.647852,0.079668336,0.22647524,0.098199144,17.562492,0.5644932,-49.598274,
31173550,0.52460945,-0.6896584,5.2758417,0.35370737,-0.2659428,0.097666524,18.024532,1.4327888,-51.144493,
31173560,0.7006771,-0.7273872,3.5732555,0.41975373,-0.7823293,0.08008967,18.179348,0.8431711,-51.28858,
31173570,0.87914026,-1.0286187,2.8701825,0.27301365,-1.0233452,0.08088862,17.409378,0.40780067,-50.064583,
31173580,1.1300666,-1.5424488,3.529538,0.0019041076,-0.87900203,0.11258021,17.104656,-0.50448513,-51.609245,
31173590,1.3708122,-2.4383578,5.119537,-0.25375915,-0.41081864,0.16184863,16.640202,0.3961277,-50.08358,
31173600,1.6259305,-3.993622,8.139037,-0.4257992,0.17401099,0.21031813,16.027647,-1.5318432,-50.23124,
31173610,1.2857726,-4.783531,12.311961,-0.44310975,0.55351114,0.24680342,15.257185,0.6444559,-51.82325,
31173620,0.6461799,-4.403249,15.997404,-0.19170754,0.6051764,0.3200403,17.409515,-0.3176632,-49.282356,
31173630,-0.5144294,-1.2298387,17.900013,0.34438634,0.40863532,0.45532876,17.104713,-0.7946701,-51.29635,184.0
31173640,2.0523257,-1.1507881,16.46093,1.0216277,0.028069891,0.62603724,18.025665,-0.8979616,-49.260307,
31173650,4.947262,-1.5622115,11.394492,1.4248298,-0.47766393,0.55919194,17.412354,-0.6449089,-51.445183,
31173660,6.221457,-1.1525847,7.4185967,1.3334835,-0.6137514,0.2164434,16.794514,-1.1998739,-48.51362,
31173670,5.1556683,-0.1165402,6.3651853,0.60830534,-0.56927663,-0.29008937,16.333378,-1.3566027,-48.678032,
31173680,3.2368898,-0.20457402,8.899004,-0.32513177,-0.40362814,-0.72764635,15.105089,-2.1308556,-49.93772,155.0
31173690,1.6001793,-2.2880414,13.231226,-0.95576775,-0.10695225,-0.9215243,14.797646,-2.4280272,-49.787178,
31173700,-0.21918663,-2.983329,17.54728,-1.0830667,0.22887208,-0.86533165,17.565662,-1.5038652,-49.88378,
31173710,-1.2127115,-2.671318,20.35478,-0.79517937,0.42115214,-0.63789797,15.102058,-0.7879591,-48.870003,
31173720,-0.6455818,-2.3395443,20.750034,-0.3035602,0.34072474,-0.40007785,18.486023,-0.29668808,-48.94628,
31173730,0.53718567,-1.88081,18.686329,0.13692626,0.02860252,-0.290622,15.407972,0.2532053,-48.564934,128.0
31173740,1.3187106,-1.0633531,15.535078,0.37368107,-0.23265335,-0.32337886,15.87067,0.38908768,-49.7931,
31173750,1.6265296,-0.47166985,12.31735,0.33692947,-0.40575865,-0.41445893,14.639799,-0.49551296,-48.57537,
31173760,1.348654,-0.15007688,9.967386,0.016018845,-0.52773136,-0.49408734,15.71472,0.5596409,-48.096535,
31173770,0.30123103,0.7446344,9.640403,-0.44151184,-0.5178777,-0.48396736,16.94455,1.4581404,-48.385887,
31173780,-0.09462177,1.3860238,10.758493,-0.7570962,-0.36261547,-0.37397888,14.478401,2.7868452,-45.83161,98.0
31173790,-0.013774373,1.7040235,11.299871,-0.8622909,-0.16101438,-0.2799694,15.559502,1.4440775,-47.95588,
31173800,0.41801062,1.8130178,11.28969,-0.81382143,-0.0030890652,-0.23655991,14.479427,3.7862806,-48.00988,
31173810,0.6300104,1.8052325,10.596199,-0.723274,-0.02945434,-0.2778389,14.02092,2.5814734,-49.245445,
31173820,0.59168285,1.8621252,9.373907,-0.67054343,-0.13491543,-0.36492413,13.095505,3.3230414,-48.038933,
31173830,0.3419542,1.8357749,7.96297,-0.69637614,-0.2198702,-0.44615048,12.938475,5.5341597,-47.91369,48.0
31173840,0.107796155,1.6141931,7.117366,-0.8116909,-0.21214703,-0.48822838,14.013506,6.008943,-46.80909,
31173850,-0.015570987,1.2812215,7.24732,-0.9168857,-0.095234364,-0.5028758,14.013506,6.008943,-46.80909,
31173860,-0.33716395,0.90752697,7.7617493,-0.92514145,0.04751095,-0.51246315,14.474236,6.46049,-46.64808,
31173870,-0.71025974,0.72666824,8.419908,-0.8383225,0.14844467,-0.5167242,13.551651,6.006572,-46.511024,
31173880,-0.9198642,0.6068943,8.807375,-0.6681466,0.13912362,-0.5137948,12.167015,6.5659313,-47.170998,16.0
31173890,-0.9809488,0.6074932,8.976855,-0.47080654,-0.03185118,-0.47890735,13.242056,7.908955,-47.159813,
31173900,-0.60006773,0.4362165,9.285274,-0.25109598,-0.28165546,-0.41738838,12.318251,7.471251,-45.939598,
31173910,-0.39285886,0.21403585,9.321206,0.049042013,-0.42386815,-0.34947783,12.166475,7.5862136,-47.956657,
31173920,-0.32698315,0.18409237,8.991829,0.4112316,-0.3764639,-0.23602727,11.701094,8.788594,-45.970207,
31173930,-0.026350625,0.22541438,8.150415,0.7587738,-0.2403765,-0.13029988,11.85783,6.2919235,-45.473106,
31173940,0.22218028,0.31704146,6.9706426,0.9995234,-0.100826986,-0.07650407,11.087992,7.012663,-45.810127,
31173950,0.17247409,0.62306386,5.9244175,1.1225615,0.065354116,-0.073308274,11.243889,7.132295,-47.819572,
31173960,-0.10719803,0.6571994,5.3177624,1.1659708,0.22967103,-0.09168407,10.938898,5.789363,-48.585426,
31173970,-0.5503616,0.5547927,5.227932,1.1507908,0.34072474,-0.100472495,12.9399395,4.2121105,-47.588814,
31173980,-0.9228585,0.4404086,5.5621014,1.0977939,0.33193633,-0.07650407,10.629139,5.8124895,-46.73623,
31173990,-1.1671972,0.06970829,5.8040442,1.0485255,0.25044367,7.2754174E-4,11.091682,4.9373546,-46.559822,
31174000,-1.619344,-0.33812195,6.2298408,0.9726255,0.23979102,0.13361916,10.7879925,3.1429305,-47.93949,
31174010,-2.008609,-0.46388453,7.3940434,0.91403604,0.37428054,0.32456768,12.172571,2.873756,-47.5924,
31174020,-2.211027,-0.6165963,8.341455,0.9172318,0.5769469,0.52750033,11.093439,3.9008589,-46.857307,
31174030,-2.4086542,-0.5177828,9.194246,0.8850075,0.70903957,0.69900775,12.174887,2.5534582,-49.29104,
31174040,-2.2044394,0.0200021,11.02499,0.87808335,0.78893435,0.8247088,13.2523365,1.2593336,-48.165886,
31174050,-1.6133552,-0.13570401,12.5874405,0.98620754,0.68693537,0.8449489,11.712795,1.9753494,-48.057716,
31174060,-0.35153684,-0.5609014,13.3659725,1.0786192,0.27814052,0.7498741,13.406509,0.3887949,-47.37815,
31174070,0.73660934,-1.522686,12.798841,0.92495495,-0.48485452,0.52803296,13.098434,0.67894363,-47.389183,
31174080,0.2647,-1.1244377,12.485034,0.5907285,-0.8819314,0.32616556,11.101257,0.1785717,-49.29023,15.0
31174090,-1.651084,0.30925614,13.686965,0.40910107,-0.40788922,0.2803592,10.794088,-1.5695267,-47.575233,
31174100,-3.2506647,1.3488939,15.133835,0.44425476,0.4272774,0.3788961,12.332771,-1.4057207,-48.00315,
31174110,-3.6321445,0.50628424,14.740377,0.49725163,0.9639039,0.5072603,11.409243,-0.54453945,-48.65516,
31174120,-3.1266987,-0.2902124,13.997779,0.38140425,1.0176997,0.58395934,12.019964,0.97363377,-46.336082,
31174130,-2.0511289,-0.58246076,13.742062,0.17740628,0.5987848,0.5666488,13.409019,-0.94715214,-47.98168,
31174140,-1.2588242,-0.49981675,13.772005,-0.04949486,-0.15355752,0.4659814,11.871693,-1.8526363,-47.854683,
31174150,-0.09222628,-0.78068656,13.909744,-0.28198862,-0.95010835,0.35812345,13.408058,-1.3685322,-46.583946,
31174160,0.668937,-0.59623474,14.0391,-0.47639924,-1.4768811,0.21511182,11.870182,-2.121975,-46.149178,
31174170,0.79350185,-0.4537038,13.772005,-0.58265924,-1.4957895,0.1293581,12.484062,-0.7905865,-46.458855,
31174180,0.7300217,-0.67708206,13.079711,-0.6465751,-1.1013758,0.14959812,9.409044,-1.5835896,-47.145226,14.0
31174190,0.8905188,-0.9124379,12.527554,-0.70729506,-0.5349219,0.24920025,12.024157,-0.09528923,-48.799812,
31174200,1.5995803,-1.095692,12.247283,-0.7640204,-0.07446172,0.33735085,10.176897,-0.97533226,-46.66886,
31174210,2.3451731,-1.4118952,11.9598255,-0.7935814,0.16335836,0.3251003,10.791515,-0.811635,-46.191185,
31174220,2.6158621,-1.4184827,11.622663,-0.7560309,0.22061628,0.2313571,10.9464245,-0.96829224,-46.959343,
31174230,2.5675533,-1.1006826,11.137179,-0.6542982,0.15696678,0.12003705,10.791216,0.7843847,-47.912086,
31174240,2.5769358,-0.7735001,10.35186,-0.5056939,0.09970886,-0.0037998278,11.253813,-0.38093472,-47.422783,
31174250,2.2056365,-0.23152314,9.363726,-0.3238002,0.12128045,-0.12603882,9.865389,0.95253086,-45.61561,
31174260,1.6025747,0.29667985,8.245636,-0.10994856,0.18120152,-0.20966202,10.943806,0.94802666,-46.98159,
31174270,1.1474338,0.29129001,6.752654,0.04957465,0.1473794,-0.2464136,12.48138,0.54767513,-45.7006,
31174280,0.68570536,0.08587777,5.2686553,0.10656625,0.030999366,-0.24028833,11.710012,2.0124092,-45.581993,20.0
31174290,0.2611068,0.023595322,4.3278303,0.09857677,-0.070999615,-0.18169886,12.175236,-0.20098877,-46.16384,
31174300,-0.053299766,-0.06264191,3.9116168,0.098310456,-0.08538067,-0.0754388,12.3293915,-0.058192253,-46.625954,
31174310,-0.30123177,0.0337761,3.85712,0.13612731,-0.023062758,0.07449704,12.789949,0.39566994,-46.310234,
31174320,0.07845156,0.3356064,3.7229729,0.21415786,0.053369902,0.24121079,12.325253,0.72054577,-43.84931,
31174330,1.4235127,0.20385507,2.9180923,0.28632948,0.09917623,0.31790975,10.330494,-1.5487347,-45.72982,36.0
31174340,2.635026,-0.29320675,2.7474144,0.27248102,-0.008948019,0.2635813,12.331663,-1.9698782,-46.294243,
31174350,2.8266644,-0.37525183,2.9192898,0.22640839,-0.16927019,0.13601601,11.252844,-1.6705561,-44.93165,
31174360,2.2337832,-0.5016134,3.2402837,0.18672733,-0.21188071,0.04733282,11.098108,-1.5162153,-44.31823,
31174370,1.4295014,-0.8238052,3.695425,0.11482204,-0.13278489,0.02789176,10.791185,-1.8203363,-44.631874,
31174380,1.0192758,-1.5095109,4.5769606,0.0050998973,-0.018801704,0.08621494,10.792789,-3.8678493,-43.524773,62.0
31174390,1.170191,-2.4575214,6.0435925,-0.15655385,0.06588675,0.17037076,10.792305,-3.1377525,-43.997536,
31174400,1.7912188,-3.4588315,8.449251,-0.2747981,0.14684677,0.25878763,9.871138,-3.755293,-44.94187,
31174410,2.6493988,-4.903904,11.16872,-0.2987665,0.22594258,0.32137185,9.718273,-5.21782,-44.00016,
31174420,3.273421,-5.505768,14.068445,-0.21434438,0.33673,0.35412872,10.949747,-4.775448,-45.21276,
31174430,3.4147544,-5.059011,16.566929,0.06422202,0.5513806,0.3605203,8.946812,-4.1860495,-43.25747,98.0
31174440,1.8930266,-1.4154885,18.74981,0.60830534,0.95138705,0.41245192,9.870205,-4.321767,-43.387703,
31174450,3.2201216,0.07988907,19.13189,1.3790236,1.2501934,0.43961614,9.412302,-5.9687996,-44.618126,
31174460,5.4203687,-0.99208754,15.4859705,1.9995394,1.190006,0.15465811,9.102434,-5.365305,-43.394707,
31174470,5.072425,-0.23451751,10.686029,2.0136542,0.57801217,-0.36092943,8.797443,-6.7082367,-44.16056,
31174480,2.8392406,1.7495377,7.1005974,1.2751603,-0.50775766,-0.83497167,8.491106,-9.191063,-42.282265,129.0
31174490,2.8961332,0.5458096,6.5694,0.21815261,-1.3999158,-1.1417676,9.106508,-9.471912,-41.95417,
31174500,2.7883368,-1.2178614,9.056505,-0.6295308,-1.6097728,-1.3119434,7.874628,-9.619467,-40.744987,
31174510,1.0719763,-1.0459857,13.518084,-1.039391,-1.1868632,-1.2363098,6.8010273,-9.389631,-44.024406,
31174520,-0.50305086,-0.41777164,17.765268,-0.9238099,-0.37167022,-0.9556128,8.028301,-8.746576,-41.679863,
31174530,-0.9312427,-0.11833678,19.9194,-0.47400236,0.38360155,-0.6405611,6.181772,-8.912735,-41.104805,153.0
31174540,-0.40303966,-0.4117829,19.076794,-0.0620117,0.692528,-0.417921,6.488035,-7.8762016,-41.1092,
31174550,0.56114054,-0.25967002,16.981947,0.161161,0.60917115,-0.34255362,5.71805,-7.2982407,-41.135048,
31174560,1.614552,0.11222802,14.527779,0.18140101,0.14950995,-0.43656313,3.8697262,-7.1510487,-39.325546,
31174570,2.1906648,0.41226172,12.377836,0.031465173,-0.50935555,-0.62804425,4.024746,-7.888075,-39.46792,
31174580,1.6001793,1.6363512,10.850719,-0.13950962,-0.9117589,-0.840298,3.4071026,-5.8406353,-39.971283,180.0
31174590,0.51023656,2.3957179,9.440381,-0.2244644,-0.92347676,-0.97478753,3.4071026,-5.8406353,-39.971283,
31174600,-1.1989374,2.7634237,8.359422,-0.3083539,-0.73039776,-1.0405675,2.327732,-5.3892727,-38.300957,
31174610,-2.8554106,3.041898,7.9923143,-0.42153814,-0.3793934,-0.9942286,3.8617897,-3.71663,-36.424988,
31174620,-4.0166187,3.6653214,7.2964277,-0.49424237,-0.09869647,-0.7777138,1.4025555,-4.071965,-38.029694,
31174630,-3.1865857,3.7874908,6.3603945,-0.6255361,-0.004953277,-0.40353996,1.3999271,-3.0238876,-36.95854,193.0
31174640,-0.7066665,3.4371521,5.862734,-0.8638888,-0.062477507,-0.05839459,1.5502949,-2.106987,-34.953484,
31174650,2.359546,3.1748471,6.1543837,-1.129672,-0.11414279,0.085149676,1.5502377,-1.816802,-35.266373,
31174660,5.004154,2.3244522,6.8059535,-1.3421922,-0.07126593,-0.014452467,2.1627636,0.25626373,-35.275146,
31174670,6.319272,1.4572893,8.039625,-1.4266143,0.110361494,-0.32391152,2.006546,2.745985,-36.236443,
31174680,5.553318,0.94405794,10.013499,-1.3355343,0.33965948,-0.7263148,1.0811863,3.1973677,-34.71704,210.0
31174690,3.290788,0.73984337,11.929882,-1.0311351,0.4829374,-1.0823792,2.0033607,3.0778642,-33.764145,
31174700,0.53179586,0.9362726,12.689248,-0.5064929,0.5359342,-1.2602782,2.6146412,5.312236,-32.846222,
31174710,-1.4630388,1.1021595,12.449101,0.13293152,0.5332711,-1.2072814,1.8484898,3.9576674,-33.932938,
31174720,-2.5577726,0.8003292,11.090865,0.79765594,0.41476056,-1.0323117,2.7688503,5.164845,-32.995445,
31174730,-3.0260887,0.66917676,8.370201,1.3830183,0.1423194,-0.81739485,3.072733,5.94362,-30.520676,184.0
31174740,-2.591309,0.760205,4.5080905,1.711652,-0.28724808,-0.60807055,2.612379,5.3423476,-30.834686,
31174750,-2.284089,0.85183203,0.8394156,1.6477363,-0.7194788,-0.49994633,3.690487,6.0656233,-32.828186,
31174760,-2.0457392,1.012928,-0.49486598,1.2514582,-0.84810936,-0.43842733,3.996399,7.1067886,-32.5231,
31174770,-1.7115698,0.79374164,0.5028508,0.7909981,-0.6228061,-0.4008768,5.3817196,5.6699233,-31.388657,
31174780,-2.2469592,0.59970796,2.9300694,0.46209794,-0.24117544,-0.39049047,5.5347347,7.2752275,-32.641556,158.0
31174790,-3.0394633,0.25036728,5.1141467,0.30976528,0.069881484,-0.34042308,3.8428478,6.5217667,-32.055855,
31174800,-4.2681446,0.1385783,7.045501,0.37155056,0.35803527,-0.18542726,3.8398151,7.864662,-30.988129,
31174810,-5.3970137,0.23739177,8.490573,0.63999695,0.7234206,0.125896,5.6892548,6.4000564,-32.163284,
31174820,-4.8298836,-0.17822374,8.443862,0.934276,0.99373126,0.53229403,7.5340157,6.7344713,-31.34745,
31174830,-3.2344952,-0.6357601,8.364212,1.0288181,1.0118407,0.8430847,6.304508,5.9764323,-31.524017,130.0
31174840,-2.18827,0.29129004,9.442177,1.0064476,0.80784273,0.95041,9.3809185,6.7509046,-32.075523,
31174850,-0.80787545,0.4775385,9.623035,0.94705915,0.32900685,0.8795699,7.689848,6.276048,-32.576378,
31174860,-0.17187595,1.1937866,9.537398,0.71962535,-0.24809965,0.6747731,8.767359,5.5599775,-32.23175,
31174870,0.31081295,1.0614364,9.585906,0.4032421,-0.6054956,0.40206558,9.84153,6.9145827,-31.4469,
31174880,-1.0588019,0.51167405,9.507454,-0.097964354,-0.59590816,0.18555075,8.460491,4.965672,-32.232506,108.0
31174890,-3.2225177,1.0416737,11.738843,-0.6007687,-0.032916434,0.20366023,9.535322,5.5878644,-31.129631,
31174900,-4.483737,1.247086,15.930331,-0.82553935,0.6741522,0.36850977,8.613241,6.1403303,-32.706604,
31174910,-4.669986,0.65959483,19.842148,-0.68252766,1.0320808,0.50193405,9.383217,4.694127,-31.587349,
31174920,-4.19628,-0.41837046,21.30758,-0.27826017,0.83074594,0.56398565,12.306549,6.0350537,-33.542107,
31174930,-3.060823,-0.70463014,19.217525,0.14917678,0.12500888,0.5453435,9.384956,4.6709642,-33.13468,76.0
31174940,-1.39357,-0.5297602,15.3542185,0.3142926,-0.76741564,0.41804457,9.384701,5.108558,-33.449287,
31174950,-0.24793237,-0.49203146,11.877181,0.12094731,-1.4100358,0.17276758,10.921165,6.893864,-33.896034,
31174960,-0.5395819,-0.8902797,9.43559,-0.32220232,-1.5314759,-0.06531879,10.003157,3.339723,-34.03248,
31174970,-1.6169484,-1.7382791,8.637897,-0.9379246,-1.1996464,-0.11272303,12.0014515,5.272493,-34.933746,
31174980,-2.748213,-2.365296,10.311136,-1.5254174,-0.5948429,0.025761232,10.7722645,4.654915,-35.576225,32.0
31174990,-3.317738,-2.8114538,13.419869,-1.8423333,-0.03904171,0.29074553,10.771257,5.39196,-35.584785,
31175000,-3.346484,-2.942606,15.859066,-1.7794828,0.32953948,0.58635616,10.157038,4.9334455,-36.059044,
31175010,-2.7643824,-2.71803,16.854984,-1.4013143,0.5987848,0.9043373,9.538261,6.561821,-35.00994,
31175020,-0.607853,-2.690482,16.868162,-0.8532362,0.7348722,1.1658595,11.231382,6.2857347,-35.428925,
31175030,2.0924501,-2.529386,14.840988,-0.21487701,0.6999848,1.2247152,10.310745,3.7796702,-34.494217,14.0
31175040,4.8436575,-2.4994426,10.855511,0.2181526,0.2930542,1.0353646,11.079414,4.666533,-35.10443,
31175050,6.321069,-2.2682788,5.816621,0.24611577,-0.23957755,0.65186983,13.387594,4.982472,-35.979256,
31175060,5.344312,-1.210675,3.0085213,-0.025792744,-0.32852703,0.24520552,12.15613,5.4083385,-35.86006,
31175070,3.1518505,-0.5920427,2.711482,-0.37466654,-0.07526067,0.01191281,10.924873,6.555037,-36.832542,
31175080,0.8384171,-0.45430267,2.866589,-0.6995719,0.2813363,-0.0043324595,12.470156,3.0127697,-38.61026,11.0
31175090,-0.9635816,-0.22912763,4.0110292,-0.9903889,0.61795956,0.15598969,11.237528,3.1646652,-37.09504,
31175100,-1.595988,-0.35548916,6.1418066,-1.173348,0.8182291,0.4113866,14.618935,6.1503096,-37.97409,
31175110,-1.7373213,-0.5243704,8.912178,-1.1323352,0.874688,0.66465306,13.543684,4.086455,-36.893585,
31175120,-1.3247001,-0.15426895,11.587328,-0.8114246,0.78174376,0.91126156,14.620234,5.6988173,-38.58789,
31175130,0.7419991,-0.48604274,12.218537,-0.2747981,0.37321526,1.0582678,14.3153,4.0656996,-39.040848,
31175140,3.076393,-0.6848674,10.729149,0.24212104,-0.1799228,0.98769414,13.239336,3.0244427,-38.591263,
31175150,4.623274,-0.75074303,8.646279,0.65118223,-0.5327914,0.7474773,14.159,4.2408853,-37.034836,
31175160,4.518471,-0.8765057,5.91244,0.8586423,-0.548504,0.46385086,12.930307,3.7614512,-38.29796,
31175170,3.7070026,-0.8022458,4.1966786,0.7896665,-0.2749976,0.27982658,14.31497,3.0569987,-37.481537,
31175180,3.2812064,-1.0459858,4.667989,0.58726645,0.11488887,0.2100518,12.469404,3.3122206,-38.304214,10.0
31175190,2.5960994,-1.6670136,6.5963497,0.48926216,0.5388638,0.18581706,12.932396,3.733656,-40.154755,
31175200,1.8289475,-2.2760642,9.309228,0.5499822,0.78680384,0.21884024,15.855392,3.1976423,-39.456787,
31175210,1.7546877,-3.213894,11.243578,0.78673697,0.7191596,0.2768971,13.547062,2.738926,-38.270775,
31175220,2.0505295,-3.934334,11.535227,1.0940655,0.48027426,0.31657818,12.472782,1.9646921,-39.68141,
31175230,2.346371,-4.187057,11.462165,1.2930034,0.18812576,0.35279715,15.089462,0.6823311,-39.291946,
31175240,1.8906311,-2.767137,11.317838,1.3702351,-0.024660653,0.40366346,12.935408,0.65427876,-39.035667,
31175250,2.7254553,-0.45550033,10.456663,1.4341509,-9.585391E-4,0.47050875,13.091787,0.043815613,-40.572357,
31175260,5.6653066,-1.3651834,7.605445,1.2599804,0.080534115,0.3488024,14.168283,-0.80345154,-39.14289,
31175270,5.730583,-0.650133,6.1076713,0.8261517,0.52181953,-0.044812478,13.4018135,-2.29848,-39.763695,
31175280,2.6050825,0.6793575,8.833127,0.28739473,0.90664595,-0.48157054,13.70879,-2.284546,-39.13717,
31175290,0.3772875,0.52484924,12.691046,-0.042038012,0.7212901,-0.7867685,14.169237,-1.25031,-39.44722,
31175300,-0.7174462,-1.2597823,14.651146,-0.17732647,0.0038351417,-0.997957,16.475533,-1.0539837,-38.46354,
31175310,-1.9882475,-1.53646,15.656648,-0.13311803,-0.6576935,-1.0229907,14.166719,-0.7826042,-37.75029,
31175320,-2.5224392,-0.50939864,14.499632,0.014420953,-0.87340933,-0.81020427,14.475498,-0.21377754,-39.451607,
31175330,-1.6055698,0.34219396,12.546719,0.032796748,-0.5727387,-0.5071368,14.324125,-0.3936329,-41.465218,
31175340,-0.23835048,0.17510934,11.634639,-0.09929592,-0.14636701,-0.30047572,14.324125,-0.3936329,-41.465218,
31175350,0.20241757,0.16732402,10.638919,-0.40822232,-0.109615415,-0.21898307,14.476305,-0.80341434,-39.444756,
31175360,0.017366853,0.68534625,11.478933,-0.8537688,-0.3927092,-0.16358936,15.248177,-1.2617636,-41.277428,
31175370,0.2664966,1.0746115,13.739067,-1.1363299,-0.7511704,-0.08822197,13.397373,0.076280594,-38.707962,
31175380,0.63839465,1.8735037,15.535078,-1.1067688,-0.8505062,-0.0637209,14.322908,-0.37741852,-40.382095,12.0
31175390,1.2851739,2.3022943,15.788998,-0.8511057,-0.65662825,-0.11858198,13.710567,-1.5845604,-41.621468,
31175400,1.642699,2.000464,14.335541,-0.5954424,-0.3642134,-0.24481569,13.399862,-0.24633408,-40.561333,
31175410,1.0881457,1.899854,12.355678,-0.47187185,-0.14077437,-0.38622943,14.479399,-1.5682554,-41.29299,
31175420,0.30841747,1.771097,10.557274,-0.5078245,-0.07605962,-0.49834839,14.62755,0.9701462,-39.30677,
31175430,-0.3916611,1.6435378,9.554765,-0.5797298,-0.014806966,-0.5598674,12.785793,-0.5620718,-41.34678,25.0
31175440,-1.1887565,1.5075943,8.492969,-0.58265924,0.01661831,-0.5793084,14.476524,0.7856579,-41.62986,
31175450,-2.4817162,1.6369503,6.689174,-0.6790656,0.01794989,-0.4866305,14.166819,0.51859856,-39.467766,
31175460,-3.0901675,2.1070628,6.494541,-0.835393,0.07174569,-0.24215254,15.091494,0.9447212,-41.46163,
31175470,-2.377513,1.8285882,7.0407104,-0.84711087,0.21821943,0.016173858,15.859777,1.1130695,-40.825417,
31175480,-1.2989486,1.5471196,7.011965,-0.74138355,0.44458795,0.21378025,14.0166645,0.3225298,-42.56452,58.0
31175490,0.42519706,1.302182,6.5178976,-0.6337919,0.6541785,0.31604555,15.7073765,-0.066223145,-40.66079,
31175500,1.8433204,1.2369051,6.4496264,-0.520075,0.7878691,0.2499992,14.321846,0.6498108,-40.703545,
31175510,2.33619,1.1901934,6.8287106,-0.35469288,0.7386007,0.08381809,16.785797,-0.07072735,-42.026787,
31175520,1.9792638,1.01712,7.032925,-0.16880438,0.5015795,-0.108195655,15.551216,2.1333141,-41.309196,
31175530,0.9150724,1.2309165,7.113773,0.065287285,0.2461826,-0.23709255,16.783085,1.4126291,-41.42498,93.0
31175540,-0.28685892,1.2488827,6.48436,0.31988528,0.07840359,-0.25067464,16.628475,1.8548384,-41.279182,
31175550,-1.2582254,0.8769845,5.0297065,0.45171162,-0.059015397,-0.16012725,16.935741,2.1543255,-41.275,
31175560,-1.7780442,0.6829508,4.0319896,0.39738318,-0.15595438,-0.017914569,18.16769,0.99836254,-40.921455,
31175570,-1.7726544,0.55718815,4.601515,0.29804736,-0.10641962,0.13814653,15.705273,0.9749069,-40.05384,
31175580,-1.6552761,0.38231823,6.6065297,0.3742137,0.08399623,0.24360761,16.320683,1.5622997,-40.81916,120.0
31175590,-1.5947902,0.18409237,8.1695795,0.61309904,0.15696678,0.2737013,18.784336,0.5562086,-41.520042,
31175600,-1.6247337,-0.0051504187,8.711557,0.89139915,0.095980436,0.2779624,16.784908,0.95418835,-42.502983,
31175610,-1.9798633,0.26014882,8.833127,1.2045866,0.057364635,0.2699729,18.016857,-0.20177555,-42.14942,
31175620,-2.3098407,0.011617929,8.180958,1.4855499,0.09970887,0.29553923,15.400455,-0.3703413,-40.974434,
31175630,-2.753603,-0.71960187,7.5210037,1.6290941,0.18146783,0.38768452,17.55872,-2.4245472,-42.444603,144.0
31175640,-3.4015799,-0.9088447,7.7216253,1.6397468,0.1521731,0.57304037,18.47639,-0.74734783,-39.655434,
31175650,-3.9818845,0.29727876,7.9917154,1.5523951,0.017417256,0.78955513,17.405663,-2.8714247,-42.598,
31175660,-2.697309,1.0488601,7.876134,1.3673055,-0.2081523,0.96132886,19.251614,-2.4081316,-43.021736,
31175670,0.036530674,1.4375266,6.528677,0.96969604,-0.3442397,0.9338984,17.406548,-3.8963404,-42.12182,
31175680,2.575139,0.6434254,5.4896383,0.39978004,-0.19110806,0.6364235,19.096783,-3.5549936,-40.69084,159.0
31175690,1.5181342,0.91291666,6.099287,-0.3373823,0.19158784,0.25692344,18.94519,-4.455682,-41.61277,
31175700,-1.5834116,1.4650745,10.085363,-0.94165313,0.5252816,0.04919703,17.40599,-4.6125383,-40.720657,
31175710,-4.448404,1.3141593,15.748873,-1.1278079,0.61742693,0.056920193,18.174538,-4.013546,-40.863243,
31175720,-5.450313,0.6721711,19.70381,-0.9797362,0.5393964,0.17676233,19.713963,-5.0174303,-40.50379,
31175730,-4.8921666,0.41765156,20.291899,-0.59650767,0.089322545,0.35332978,20.943684,-3.53856,-41.418922,170.0
31175740,-2.991953,0.07689471,18.672554,-0.21754017,-0.43931448,0.51072246,19.71558,-5.3284626,-41.583504,
31175750,0.35453048,-1.279545,15.968061,0.02560622,-0.7706114,0.6180477,18.175407,-4.0251274,-41.63691,
31175760,3.2392855,-1.5999402,13.93969,-0.06467486,-0.98872423,0.5290983,18.172169,-3.4030628,-39.477493,
31175770,4.9652276,-1.4717821,13.123429,-0.43884864,-1.1266758,0.21164972,20.328846,-4.423089,-40.80491,
31175780,5.555713,-2.3473296,13.095881,-0.93206567,-1.1391926,-0.19155252,19.403042,-2.5184612,-40.69523,
31175790,4.007635,-3.0216568,14.780501,-1.3941238,-0.89151883,-0.55720425,17.560131,-3.4564104,-42.432625,
31175800,1.1330609,-3.1025043,17.256828,-1.6037143,-0.40389442,-0.7140643,19.713524,-2.6959457,-43.00692,
31175810,-1.0090957,-2.872538,18.903719,-1.4623005,0.14977627,-0.5814389,19.712708,-2.9745512,-41.920357,
31175820,-1.214508,-2.7096457,18.528229,-1.0319341,0.56922376,-0.27570832,19.098957,-3.149828,-43.171715,
31175830,-0.5731186,-2.570708,16.42919,-0.5192761,0.8115712,0.017771758,20.789024,-1.9379263,-42.67942,152.0
31175840,0.1982255,-1.8209232,14.5349655,-0.022863269,0.9908018,0.2215034,20.170162,0.12572765,-42.099648,
31175850,1.4558518,-1.3597935,10.879465,0.37820846,0.71782804,0.28834867,21.093395,-1.0210066,-40.825294,
31175860,2.7194667,-1.0633531,6.160372,0.476479,0.02514042,0.2113834,21.094723,-1.6175928,-41.282646,
31175870,3.6572964,-0.5968336,3.0552332,0.26715472,-0.51841027,0.05638756,22.325943,-0.7376251,-42.809853,
31175880,3.8189914,-0.13809946,1.2310762,-0.07319696,-0.62067556,-0.13296303,21.095207,-2.3476887,-40.809883,123.0
31175890,2.5925064,0.2739228,1.2238897,-0.45243078,-0.33012494,-0.32471043,20.940807,-1.1846485,-41.755775,
31175900,0.8096714,0.6278547,3.3558657,-0.7528351,0.094915174,-0.4046052,23.24953,-1.8889914,-41.844963,
31175910,-0.7094612,0.76699215,5.28742,-0.8063646,0.40464056,-0.3758431,22.323227,-0.122509,-41.11463,
31175920,-1.6385076,0.4086685,6.9071627,-0.6468414,0.5066395,-0.26292518,21.552517,0.60981274,-40.677994,
31175930,-2.0026205,-0.025511995,7.8845177,-0.31314757,0.48240483,-0.09248302,22.17112,-1.0162458,-41.572365,95.0
31175940,-1.4456716,-0.36087897,7.558134,0.13159995,0.40171108,0.058518086,23.707352,0.19332123,-41.083855,
31175950,-0.34734476,-1.0334096,5.522576,0.45304322,0.13299835,0.12003705,23.396526,1.2436781,-39.556107,
31175960,0.33297113,-1.348415,4.1667347,0.5025779,-0.2435723,0.10645494,23.244995,0.052804947,-40.165154,
31175970,0.7096602,-1.3921324,3.3187358,0.41496003,-0.5554282,0.07689388,23.400719,0.17475414,-42.01986,
31175980,1.2929591,-1.674799,3.1618319,0.2599642,-0.57833135,0.06863809,23.863583,-0.55991936,-42.309364,23.0
31175990,1.7037836,-1.9448891,4.0469613,0.14145362,-0.31121653,0.06970335,24.322598,-0.23030281,-40.444595,
31176000,1.5941906,-2.588674,5.6219883,0.15476942,0.0666857,0.09553599,24.167728,0.64950085,-40.613403,
31176010,1.2719988,-3.4157133,7.5269923,0.28286737,0.28240156,0.15146232,23.398613,1.2158833,-41.41291,
31176020,1.3570383,-3.8995996,8.467217,0.451179,0.20596889,0.21857393,23.553173,1.063859,-41.871605,
31176030,2.3511617,-4.184662,8.749286,0.563298,0.07840359,0.2617171,25.091873,0.21433258,-41.04966,12.0
31176040,3.0015342,-4.268503,10.11411,0.6437254,0.10130675,0.22789496,25.091873,0.21433258,-41.04966,
31176050,1.3977615,-2.0568779,12.265249,0.7904655,0.15377098,0.18421917,24.167381,0.65413284,-40.303932,
31176060,0.24493732,1.9465656,14.164864,1.1870098,0.17267942,0.24067816,25.55513,-1.6834002,-40.24234,
31176070,2.64341,0.35297358,11.133984,1.6655793,-0.11574068,0.20419288,25.55513,-1.6834002,-40.24234,
31176080,3.3782234,-0.4926303,5.7471523,1.6932762,-0.4331892,-0.059726164,24.785892,-1.4048882,-40.574234,
31176090,1.6810267,0.11462352,3.029482,1.0165676,-0.72134304,-0.3601305,25.557007,-2.4320269,-41.007454,
31176100,-0.74020326,1.1979787,5.5710845,-0.06733803,-0.89471465,-0.5822379,23.094166,-1.1473312,-41.39312,
31176110,-1.7253438,-0.7735002,10.200945,-0.8889225,-0.84757674,-0.6453548,23.248913,-2.3150043,-40.75669,
31176120,-3.2818058,-2.0550814,14.506818,-1.2812059,-0.6417146,-0.53669786,24.630737,0.05760193,-41.21409,
31176130,-3.635139,-2.331759,18.524036,-1.3051742,-0.52959555,-0.22084728,22.783386,1.4944134,-41.89573,
31176140,-1.9038069,-2.5503464,20.230215,-1.0540383,-0.6044303,0.10672125,23.555641,-0.9952345,-41.53817,
31176150,-0.1886443,-1.9508779,19.794836,-0.6444445,-0.6638188,0.24307498,23.399307,1.2066174,-42.031837,
31176160,0.5509597,-0.7184042,17.363426,-0.2905107,-0.664884,0.25505918,23.551868,1.5153513,-41.257805,
31176170,1.1636033,0.26733527,14.407406,-0.13205278,-0.60522926,0.23215604,23.857716,1.1102219,-39.078804,
31176180,1.9768682,1.0997641,11.347781,-0.1557549,-0.44890183,0.15412548,21.705921,1.0520582,-40.83407,
31176190,1.3097275,2.436441,9.659568,-0.3501655,-0.25821966,-0.037888266,23.401241,0.16780567,-42.484062,
31176200,-0.28206795,4.1947227,8.457037,-0.7352582,-0.3527618,-0.18729147,23.552685,1.7939558,-42.344368,
31176210,-0.4928701,4.6618404,8.276777,-1.2513783,-0.5013661,-0.15826306,21.39655,1.7936993,-40.231293,
31176220,0.68570536,3.9186435,9.709273,-1.6394007,-0.30136284,-0.058927216,22.62783,3.2517228,-42.53901,
31176230,1.9217722,2.4094918,12.04187,-1.8753566,0.06908254,-6.040381E-4,22.009045,4.0118575,-40.3965,14.0
31176240,2.7368338,1.1362951,15.368591,-1.8745575,0.4808069,-0.0048650918,23.08781,4.002721,-42.071968,
31176250,3.0189016,0.2152336,17.701189,-1.5030469,0.80704385,-0.0754388,22.625202,4.2998,-41.467857,
31176260,2.8248677,-0.3902236,18.3306,-0.85989416,0.9729587,-0.17131253,23.392628,5.347969,-41.151375,
31176270,2.3224163,-0.58605397,16.377087,-0.19543596,0.8033154,-0.29088834,22.467705,6.2276807,-40.565514,
31176280,1.6025748,-0.7429578,12.932988,0.25517052,0.47308373,-0.39262098,21.698524,6.2160077,-40.58451,15.0
31176290,0.7964962,-1.0016694,9.442777,0.4740821,0.24405208,-0.42164943,24.159718,5.3874373,-39.27559,
31176300,-0.1730737,-0.79925156,6.830507,0.5103011,0.27254787,-0.33935782,23.390484,5.66595,-39.607468,
31176310,-0.9234573,-0.5938393,5.7016377,0.49405587,0.52847743,-0.17504096,23.392506,5.0600996,-40.68376,
31176320,-1.200734,-0.5165851,5.095582,0.5063064,0.80065227,-0.009126145,21.695896,7.2640853,-39.513367,
31176330,-1.3450615,-0.121331125,5.5016155,0.61309904,0.9394028,0.112846516,21.696346,5.810841,-38.103645,
31176340,-0.97436124,-0.20277742,4.9356833,0.852517,0.6600375,0.17729495,24.311802,4.5446944,-36.63105,
31176350,-0.5258079,-0.38603148,2.7132788,0.9409339,0.07068043,0.18555075,23.696838,4.38563,-36.79927,
31176360,-0.47310737,-0.18600906,2.2102282,0.74892014,-0.42866182,0.17063706,23.695084,5.4221263,-36.501785,
31176370,-0.865367,-0.014133468,3.7852552,0.5862012,-0.4395808,0.22283499,22.312817,5.3710036,-38.547516,
31176380,-0.9731635,-0.3267434,5.9298077,0.6575738,-0.010013275,0.34161186,25.082176,4.685246,-37.85163,17.0
31176390,-0.9030958,-0.33392984,7.111377,0.8336086,0.3732153,0.45239928,25.697758,5.270323,-38.771675,
31176400,-0.27847472,-0.062043034,7.585083,1.0144371,0.51196575,0.4950098,24.313232,5.2493114,-38.80587,
31176410,-0.06168393,-0.04467582,7.1838403,1.0956634,0.40970054,0.405794,23.390976,3.0542798,-36.79146,
31176420,-1.0432312,0.07210375,7.032925,1.0485256,0.33246893,0.27876133,24.31443,3.4966168,-37.7022,
31176430,-2.0098069,-0.039884873,7.86236,0.9771528,0.34791526,0.29580554,23.081146,4.3809247,-36.504997,20.0
31176440,-2.4906993,-0.9609463,9.506856,0.85491383,0.23606262,0.45053506,23.541962,5.265434,-36.96807,
31176450,-4.007636,0.13558392,12.684458,0.8088412,0.23712787,0.69900775,23.08012,3.3814898,-34.326744,
31176460,-4.1118393,1.081798,15.32727,1.1257571,0.39425427,1.0271089,24.466213,3.3816543,-35.68515,
31176470,-3.4187477,1.4409202,14.456512,1.5004635,0.30051106,1.259869,23.391983,2.317235,-36.782898,
31176480,-0.5036497,0.87758344,11.959226,1.6085879,-0.017203804,1.3011479,23.851086,2.2115736,-34.44879,23.0
31176490,3.0242913,0.6021034,7.022744,1.1979287,-0.26620913,1.0167226,24.314625,2.4809675,-36.60708,
31176500,4.2274203,1.039877,5.416576,0.36302844,-0.10908279,0.47982982,24.160057,1.7647505,-35.054985,
31176510,2.2924726,1.1776171,9.015183,-0.40822238,0.08799097,-0.044812486,23.238579,1.8749895,-36.626823,
31176520,-0.9420223,0.8476399,14.6541395,-0.7211435,0.07733834,-0.33456415,23.390415,2.3380814,-35.390297,
31176530,-3.0823822,-0.19559097,18.862396,-0.61115503,-0.33545128,-0.36705467,22.776253,1.5893812,-35.551674,36.0
31176540,-4.2573643,-0.539941,20.137989,-0.26254755,-0.77274203,-0.2466799,22.312508,3.34897,-35.738342,
31176550,-4.3459973,0.112228036,19.250465,0.18699364,-0.90962833,-0.02324089,23.696629,3.6647987,-35.707573,
31176560,-3.2746196,-0.07701479,15.722523,0.4375969,-0.8491746,0.1812897,22.003265,3.3651476,-34.35334,
31176570,-1.0114911,-0.7848787,11.036966,0.25064313,-0.7431809,0.28462029,20.77201,4.511845,-35.325836,
31176580,2.460156,-2.088618,6.655038,-0.3805255,-0.5730051,0.20712236,22.002918,3.36978,-34.043884,85.0
31176590,4.0285954,-2.8078604,5.676485,-1.2572373,-0.27473125,-0.073574595,21.078869,4.2379103,-34.231674,
31176600,3.0057263,-2.8689451,9.143341,-1.868166,0.102904655,-0.3308357,21.234646,4.069673,-35.7735,
31176610,1.1917503,-3.1851482,13.476763,-1.9304838,0.36282897,-0.4176547,23.847862,4.5701184,-34.47618,
31176620,-0.26829398,-3.222877,16.219585,-1.5829417,0.37188372,-0.36066312,20.768322,6.5871534,-34.57614,
31176630,-0.7623614,-3.1791594,16.18545,-1.0322005,0.2610963,-0.22058094,20.764633,8.662462,-33.82644,165.0
31176640,-0.9965194,-2.7359958,14.148095,-0.52699924,0.19931099,-0.041084055,20.917992,7.513319,-31.95214,
31176650,-0.75996596,-2.1131716,11.402278,-0.19144121,0.18546258,0.16557705,20.456024,8.091319,-32.27986,
31176660,0.57251894,-1.7077367,8.188744,-0.04336959,0.15962994,0.29207712,20.764889,8.224867,-33.511833,
31176670,1.8648796,-0.99208754,4.890169,-0.08598013,0.1553689,0.28115815,21.071861,8.238802,-32.885307,
31176680,2.9356587,-0.22433668,2.1677084,-0.3104844,0.22567627,0.14187495,21.53106,8.566103,-31.175262,
31176690,3.1129239,0.022397578,1.2825791,-0.647374,0.27893946,-0.12204409,20.148628,9.385536,-34.159668,243.0
31176700,1.4277048,0.3889058,2.2299907,-0.94564784,0.27574366,-0.3659894,20.144169,10.023814,-30.917114,
31176710,-0.6934914,0.30386633,3.9709048,-1.0883931,0.2778742,-0.4157905,21.376453,9.876552,-32.12287,
31176720,-2.2954676,-0.19439322,5.4099884,-1.0907899,0.29518473,-0.29275256,21.06615,10.91996,-31.059326,
31176730,-3.4985967,-0.27284518,6.9586654,-0.98026884,0.3399258,-0.033360887,19.99179,10.581004,-32.939293,
31176740,-3.6381335,-0.30338752,8.419908,-0.7017025,0.43073952,0.29101184,21.525066,12.698189,-30.913734,290.0
31176750,-2.753004,-0.39920664,9.184065,-0.31634337,0.45657218,0.5559962,20.755451,12.258186,-29.999199,
31176760,-0.7455931,-0.40759087,8.725331,0.025339901,0.2997121,0.7205794,19.98627,12.246513,-30.018196,
31176770,1.8097835,-0.70103693,8.086336,0.2586326,0.06482148,0.70220363,20.909256,12.405614,-30.151848,
31176780,3.9315789,-1.2100761,8.093524,0.45544004,-0.16421017,0.51738036,21.061417,13.009166,-29.381226,
31176790,4.8520412,-1.7394768,8.263602,0.67381907,-0.29577023,0.25026554,21.368168,13.315602,-28.91285,321.0
31176800,4.7969456,-2.3515217,7.8587666,0.8810128,-0.33145654,0.016972812,21.21592,13.147328,-30.15281,
31176810,3.93098,-3.045013,7.180247,0.9832781,-0.3026944,-0.102603026,21.678776,11.544414,-29.348907,
31176820,2.5805287,-3.5564475,6.975434,0.97209287,-0.15195964,-0.055198796,21.678776,11.544414,-29.348907,
31176830,1.37201,-3.2180862,7.7940884,0.9446623,0.0650878,0.065442294,20.138916,12.119969,-28.774818,
31176840,0.92944527,-2.7958832,9.597284,0.97741914,0.31888682,0.22523183,19.828682,13.741432,-28.491783,
31176850,1.0701797,-2.6252053,11.195068,1.1390729,0.49145955,0.4177782,19.058632,13.741341,-27.737114,
31176860,0.17367181,0.4050753,11.801126,1.3896761,0.3883953,0.55546355,21.983078,13.764852,-29.057518,
31176870,2.7853422,1.5782609,10.244663,1.7236363,0.08372991,0.6524025,22.44411,12.6203785,-27.175629,
31176880,7.330164,-0.34650612,5.392022,1.7156467,-0.61002296,0.47343826,20.138977,12.698025,-29.555336,
31176890,7.862558,-0.59683365,2.3192225,1.0746244,-1.142122,-0.09088511,21.213951,13.462994,-28.763634,
31176900,4.151364,1.081798,4.117029,0.0069641173,-1.0936525,-0.7055422,21.368443,14.614489,-30.785057,
31176910,1.6953995,-0.6860652,9.455952,-0.9701488,-0.56980926,-0.9958265,21.984695,13.453819,-30.13723,
31176920,-1.0611973,-2.0472958,16.027946,-1.5331407,-0.0028227419,-1.0445623,21.364193,15.9735985,-28.634201,
31176930,-3.5722578,-1.320867,22.131626,-1.4580395,0.4810732,-0.906078,21.05814,15.657896,-29.721504,
31176940,-3.9920657,-0.61899173,24.178562,-0.75656354,0.65284693,-0.65893686,21.056454,15.390873,-27.86129,290.0
31176950,-2.0918522,-1.3825506,20.939877,0.13825783,0.36815527,-0.45227575,21.052383,16.747667,-25.865158,
31176960,0.21858709,-2.5581317,15.084727,0.65278006,-0.3237334,-0.4312368,22.744621,18.364735,-27.853737,
31176970,1.3827896,-1.8712282,9.656573,0.5518464,-1.083,-0.56545997,22.129704,19.79706,-30.052315,
31176980,0.7917053,0.42124474,7.1910267,0.0064314827,-1.337598,-0.74602216,19.976711,18.74178,-29.474594,
31176990,-0.90788674,1.7663059,7.3892527,-0.66282034,-0.9817999,-0.82431906,21.512554,19.23283,-27.73967,228.0
31177000,-2.8973317,2.9005647,9.563748,-1.2095668,-0.2702039,-0.69062847,21.664062,21.437035,-28.380478,
31177010,-3.612382,3.6611292,12.693441,-1.4929268,0.38067213,-0.37823993,24.121567,22.683773,-26.321854,
31177020,-2.3230157,3.5503385,14.672106,-1.4921279,0.6009153,-0.06052512,23.200493,22.499195,-27.890274,
31177030,-0.37728822,3.1009867,15.429077,-1.2926574,0.458969,0.09580231,23.813267,23.266424,-26.491035,
31177040,1.6744392,2.740068,15.008072,-0.96162677,0.15989625,0.04546861,25.81065,24.487627,-25.681671,179.0
31177050,3.4967995,2.3543959,13.116842,-0.62953085,-0.14423648,-0.18489462,24.271236,23.60994,-23.69786,
31177060,4.2130475,1.9561476,10.428515,-0.39863497,-0.2925744,-0.51912105,24.11678,25.063166,-24.95665,
31177070,4.0285954,1.4548938,8.734314,-0.311816,-0.33332074,-0.850418,25.040955,25.351143,-26.329872,
31177080,2.8997264,0.8398546,8.113287,-0.28944546,-0.4193408,-1.1236582,28.881908,28.659456,-25.80835,
31177090,1.0534112,0.3302166,7.507829,-0.24710125,-0.46488076,-1.2680013,26.881004,29.511244,-26.02275,57.0
31177100,-0.9420223,-0.51898056,6.5747895,-0.25269386,-0.37326813,-1.2208635,29.187511,30.428404,-26.130768,
31177110,-3.1889813,-0.4237603,6.5316715,-0.3235339,-0.113610156,-0.9585422,30.10949,31.324547,-26.272972,
31177120,-4.44541,0.24757257,8.157003,-0.34803498,0.2344647,-0.49302208,30.417175,32.197456,-27.35878,
31177130,-3.937568,0.63324463,10.100934,-0.18638122,0.53540164,0.005787544,30.567944,32.819542,-25.350296,
31177140,-1.921773,0.5637757,10.78125,0.18912418,0.6760164,0.34853607,33.95318,33.00441,-26.196823,17.0
31177150,0.32279035,0.2541601,10.064404,0.60883796,0.56150055,0.4694435,35.95261,32.60643,-25.21389,
31177160,1.7978063,0.24877033,8.885828,1.005116,0.30583736,0.3735698,37.337135,32.62744,-25.179695,
31177170,2.744619,-0.026110858,6.7736144,1.3015256,-0.032916445,0.15652233,38.262558,32.75412,-27.479614,
31177180,2.3619413,0.0948608,4.7290735,1.391274,-0.3279944,-0.10739671,41.647427,31.20714,-25.829857,
31177190,0.8366205,0.49610347,3.7589047,1.3220319,-0.39963338,-0.29381782,43.49402,31.951353,-27.185425,15.0
31177200,-0.8348246,0.37153858,3.451685,1.1819497,-0.17459649,-0.30766624,45.496475,32.960293,-30.706886,
31177210,-2.0361571,-0.08420121,4.0679216,1.0232255,0.2698847,-0.15213777,47.34222,32.702755,-30.038925,
31177220,-2.6919193,-0.54173756,5.5944405,0.84958756,0.6275469,0.1024602,50.41999,30.853975,-28.548088,
31177230,-2.6775465,-0.92980504,7.788698,0.7174949,0.8073101,0.37277085,53.192482,30.126526,-30.637398,
31177240,-2.1732984,-1.2130705,10.085962,0.70204854,0.9069123,0.6180477,54.574646,31.626259,-30.31086,
31177250,-1.3917733,-1.2759517,11.914311,0.80937386,0.98227966,0.781832,56.27321,27.370129,-30.683617,
31177260,-1.6181461,-0.023116529,13.485744,0.98327804,1.0302165,0.8228447,59.96621,25.242819,-28.709953,
31177270,-1.6259314,1.0859901,14.4104,1.2615782,0.9042491,0.7567983,62.277,22.7742,-28.469124,
31177280,-1.5319089,1.775888,13.044977,1.493273,0.51036793,0.6457446,63.361404,18.63761,-30.096657,
31177290,-0.8348246,0.7302615,10.525534,1.4884794,-0.03185118,0.46624774,66.59424,17.64319,-30.77855,14.0
31177300,-2.1954565,1.3716509,8.734314,1.076755,-0.5921798,0.29766977,67.82765,15.165178,-30.100113,
31177310,-3.2075462,1.8549386,8.67263,0.4834032,-0.69311357,0.34587294,67.681114,10.579265,-30.97924,
31177320,-3.4081674,1.8184077,10.681837,-0.11687277,-0.41454712,0.47903088,68.75924,10.289207,-31.722885,
31177330,-2.7967215,0.89554954,13.704932,-0.5485708,-0.08564699,0.593014,68.61399,6.1200423,-34.30922,
31177340,-1.6169484,-0.14828026,16.038727,-0.7933151,0.018216206,0.6345594,68.312195,2.5636578,-35.204132,
31177350,-0.46831644,-0.6896584,17.991642,-0.8460456,-0.09976173,0.5804972,69.69642,1.4308758,-33.45417,
31177360,0.623423,-1.2208558,19.186983,-0.677734,-0.37060496,0.44547507,69.23996,-1.393115,-34.516167,
31177370,0.65097094,-0.96933055,18.821075,-0.3589539,-0.6361219,0.26597816,67.70661,-4.9565935,-34.66781,
31177380,0.37429315,-0.2387096,17.01728,-0.03910854,-0.71761453,0.17836022,68.93848,-4.809038,-35.877,
31177390,1.3558406,-0.18660793,14.037904,0.12014836,-0.63345873,0.16557707,64.78943,-7.68211,-36.565987,13.0
31177400,2.303252,-0.31955698,10.572245,0.01974727,-0.41241655,0.09180757,65.25841,-11.392759,-38.678047,
31177410,2.4302125,-0.23571521,8.430088,-0.31794128,-0.05209119,-0.0019356171,62.951134,-10.997133,-39.51384,
31177420,2.4128454,-0.5195794,8.352235,-0.7214098,0.27041733,-0.08662407,61.87616,-11.762102,-40.305542,
31177430,2.2523484,-1.0795226,9.561354,-1.0108953,0.37374792,-0.1926178,60.033966,-13.722649,-41.412025,
31177440,1.9798627,-1.3478161,10.9142,-1.0785394,0.21315943,-0.30313885,59.109543,-14.586369,-39.103546,
31177450,1.7984052,-1.581974,11.847239,-0.9286036,-0.116273314,-0.40007785,57.264763,-14.775688,-40.07582,
31177460,1.2648122,-1.352607,11.859215,-0.6258024,-0.45582607,-0.47011894,56.959976,-15.397791,-41.933372,
31177470,0.7120556,-0.9591497,10.906414,-0.22899176,-0.6289314,-0.44375366,54.960793,-14.42407,-43.85154,
31177480,1.0013096,-1.0232286,8.844505,0.13958941,-0.61827874,-0.33696097,52.960136,-14.8781185,-42.657936,
31177490,1.3947669,-0.7818843,6.144202,0.38486636,-0.39563864,-0.2378915,49.270203,-16.12037,-43.199623,
31177500,1.495976,-0.6136019,3.7002156,0.40643793,-0.12905648,-0.19075358,47.11503,-14.831007,-43.57769,
31177510,1.6576707,-0.66750026,2.0790758,0.21176101,0.073876224,-0.20273781,45.885532,-14.720804,-44.847664,
31177520,1.551072,-0.6884606,1.6532793,-0.09343697,0.19318575,-0.2733115,45.425545,-16.340042,-44.221306,
31177530,0.6120444,-0.64115,2.9528265,-0.36667705,0.21742049,-0.3641252,43.887917,-15.649506,-45.815193,
31177540,-0.6012655,-0.8232063,5.158463,-0.4681434,0.11968256,-0.3979473,40.808804,-14.07238,-45.755272,15.0
31177550,-2.1595242,-0.9040537,6.7418747,-0.34457284,-0.0086817015,-0.31459045,40.4966,-12.135254,-44.08306,
31177560,-3.208145,-0.5159862,7.431173,-0.07239803,-0.10029436,-0.07490616,40.4966,-12.135254,-44.08306,
31177570,-2.77636,-0.39980552,7.232349,0.2264084,-0.19190702,0.21697605,38.34481,-12.193417,-45.838326,
31177580,-1.3450615,-0.49562466,6.2879314,0.47354954,-0.28325337,0.45479614,37.267002,-11.7628975,-45.5606,
31177590,0.63759613,-0.93858844,5.364075,0.62881166,-0.30881965,0.5781004,37.42358,-13.389011,-46.00216,23.0
31177600,3.0482461,-1.7993639,4.420057,0.6170938,-0.32559758,0.5402835,35.577377,-12.546471,-46.986427,
31177610,5.3143687,-2.8144479,3.5888262,0.44904846,-0.16847122,0.3237687,32.805676,-11.395325,-46.140114,
31177620,5.8623343,-3.034832,4.673978,0.29591686,0.2075668,0.025228601,34.037453,-12.548969,-45.63183,
31177630,4.397499,-2.8839169,6.6526423,0.29032418,0.6025132,-0.18063357,33.42286,-12.857761,-45.953056,
31177640,2.2739077,-2.8437927,8.924754,0.46050006,0.88081336,-0.17717147,32.497185,-11.678598,-45.06115,42.0
31177650,0.5108354,-2.8324142,10.368031,0.7334738,0.92475545,0.0036570132,33.877327,-9.573011,-43.658318,
31177660,-1.641502,-0.93160176,10.412945,0.9680981,0.7961248,0.3104529,32.95879,-11.23863,-45.673836,
31177670,-0.8048812,0.7045101,9.013986,1.0519876,0.44139212,0.63935304,32.8031,-10.637434,-44.756065,
31177680,2.382902,-1.9580642,7.0035806,0.6099033,-0.3911113,0.65506566,31.728931,-11.992037,-45.540916,
31177690,3.6099856,-2.0496914,7.267083,-0.0803875,-0.99884415,0.39540768,31.11245,-12.420441,-44.003654,69.0
31177700,2.4966872,-0.57707095,9.844618,-0.6966424,-1.0888588,0.02709281,31.421959,-12.00597,-46.167458,
31177710,0.7348126,0.21283811,13.559406,-1.104372,-0.78073144,-0.24241886,28.804901,-10.573885,-46.403893,
31177720,-0.7821241,-0.67408776,16.840612,-1.1744131,-0.22439754,-0.30047572,29.111221,-9.827538,-46.09539,
31177730,-2.5302246,-1.0753305,18.67495,-0.9424521,0.4925248,-0.119913556,29.879997,-9.521048,-46.07981,
31177740,-2.684733,-0.11174923,18.89893,-0.56268555,0.9127712,0.18208866,29.415806,-8.189787,-45.332954,113.0
31177750,0.0784516,0.059527498,16.453745,-0.2902444,0.8254196,0.2904792,29.109142,-8.931501,-45.331993,
31177760,3.2374887,8.382723E-4,13.498322,-0.27959177,0.41982055,0.05532229,28.953224,-8.037802,-44.572395,
31177770,4.79455,-0.8196131,11.007622,-0.51847714,0.039787784,-0.37664205,28.953629,-8.332619,-44.568977,
31177780,3.5608785,-1.164562,10.623149,-0.9349951,-0.27845967,-0.74389166,28.026546,-6.1215935,-43.689064,
31177790,0.632406,0.14816022,11.280707,-1.3009131,-0.40282917,-0.8136664,28.336796,-6.874815,-45.065514,167.0
31177800,-1.7972081,1.5980235,11.828672,-1.508107,-0.14263858,-0.5686558,28.02771,-5.847622,-45.08509,
31177810,-2.2553434,2.2430062,12.331125,-1.6335416,0.26402575,-0.18809041,27.872032,-4.3781824,-45.260735,
31177820,-1.1665984,1.8866788,12.830582,-1.7014523,0.61130166,0.10006336,26.17886,-3.8119106,-45.154655,
31177830,0.15929894,1.2261256,13.985202,-1.6979901,0.71436584,0.20073077,27.409828,-4.3759212,-44.65319,
31177840,1.5582584,0.34099624,16.14772,-1.5331407,0.5473859,0.13122232,26.636932,-2.1671934,-44.078957,204.0
31177850,2.2751052,-0.09378312,18.334793,-1.0734794,0.22620893,-0.09780934,26.02127,-2.3169909,-43.628227,
31177860,2.120597,0.40208092,17.592194,-0.46654552,-0.21987018,-0.397681,25.559479,-1.7413073,-44.11068,
31177870,1.7463034,0.73265696,14.50023,-0.0148737915,-0.5463734,-0.67997587,25.556446,-0.39841175,-43.04296,
31177880,0.9977165,0.6494141,11.144165,0.18033576,-0.73013145,-0.9428296,25.097755,-2.469142,-43.030388,
31177890,-1.1192877,0.23619403,7.334756,0.09271783,-0.59803873,-1.0578781,25.866901,-0.4308033,-45.511086,230.0
31177900,-3.7423365,-0.10456279,5.5716834,-0.22952439,-0.21667439,-0.86320114,24.632359,-0.25342846,-42.2938,
31177910,-5.476663,-0.5932404,6.559818,-0.52540135,0.19105522,-0.41499156,23.096004,0.1307087,-44.65792,
31177920,-6.2605834,-0.3111728,9.256529,-0.525934,0.5252816,0.14054339,23.555542,0.45337677,-43.257362,
31177930,-5.2928104,0.5691656,11.51247,-0.199697,0.67122275,0.69501305,24.170769,0.1748457,-42.77453,
31177940,-2.0714903,0.81230664,10.7980175,0.27780735,0.6440585,1.0462836,23.553383,1.7846909,-42.963295,250.0
31177950,2.041546,0.7350524,8.642687,0.56915694,0.5369995,1.09715,23.245365,1.7846546,-42.66143,
31177960,5.2227416,0.5044876,7.314394,0.7526486,0.41529316,0.9237783,23.55655,-0.28366852,-43.248802,
31177970,6.0048656,0.20086071,6.6119194,0.9654349,0.2901247,0.49500984,24.169899,0.18642712,-42.000862,
31177980,4.249578,0.09725629,5.899265,1.1438665,0.18013626,0.03135386,23.709969,-1.7229967,-41.061607,
31177990,1.316315,0.25835222,5.9968805,1.2794213,0.13512887,-0.22830412,22.326855,-2.7758713,-41.08381,
31178000,-1.2157058,0.4877193,5.749548,1.4762288,0.1353952,-0.20886306,23.709911,-1.4328117,-41.374504,
31178010,-2.2924733,0.38231823,3.9433568,1.6527963,0.19371837,0.008450698,23.249126,-1.5941734,-41.84838,
31178020,-2.0768802,-0.083003476,3.2061484,1.5883478,0.2800047,0.25106448,23.40612,-4.5284386,-41.036674,
31178030,-1.73792,-0.53275454,4.3859215,1.3569193,0.3345995,0.3775645,23.556583,-2.3103352,-40.749092,
31178040,-1.9894452,-1.2621777,6.205287,1.2165709,0.41928792,0.44494244,24.325802,-4.325329,-38.230392,210.0
31178050,-1.3552424,-1.9083581,7.6821,1.1926024,0.4102332,0.5674478,23.09549,-4.4937305,-38.41381,
31178060,-0.55994344,-2.165872,7.4042244,1.1728951,0.14098781,0.6500057,21.55835,-4.533291,-39.534935,
31178070,-1.6085643,0.14935794,7.341942,1.0333455,0.03020042,0.64521194,22.636612,-5.548811,-39.496353,
31178080,-2.6607783,1.3692554,7.4341674,0.90311706,0.30956578,0.71818256,23.096817,-5.090317,-38.871162,
31178090,-2.9392524,1.2249278,8.390562,0.6666286,0.6350038,0.87504256,22.176403,-6.007309,-40.12155,184.0
31178100,-3.4997945,1.5423287,9.648189,0.34651685,0.7117027,1.010331,22.482391,-6.269661,-38.25373,
31178110,-2.944642,1.931594,11.211239,0.025872536,0.68027747,1.1421573,23.559708,-5.970083,-39.004227,
31178120,-1.5672421,1.5680802,13.326446,-0.18744648,0.66642904,1.1429563,22.792404,-6.730383,-39.78833,
31178130,-0.68510723,0.6380356,15.069755,-0.23458439,0.5292764,0.9448173,23.40453,-7.1123123,-36.36386,
31178140,1.0043039,-0.8166188,14.061857,-0.20955071,-0.023062758,0.6563973,21.714325,-7.598751,-37.63839,151.0
31178150,2.163516,-1.7833939,12.579257,-0.4260655,-0.95676625,0.21431288,22.637104,-8.1604805,-36.680344,
31178160,1.6630605,-2.4066176,13.009046,-0.86388886,-1.6707591,-0.27490938,21.713116,-6.7142963,-37.64866,
31178170,-1.3564401,-2.3203804,15.675812,-1.2306058,-1.7815465,-0.5329695,21.40498,-7.002203,-36.879166,
31178180,-4.711308,-1.6999514,19.150454,-1.2340679,-1.2513115,-0.36013046,20.944065,-5.5698605,-39.228683,
31178190,-6.3234644,-1.3627878,20.669188,-0.83326244,-0.45742393,0.16371286,22.634037,-4.7909203,-38.112312,69.0
31178200,-5.4263577,-1.238223,20.109243,-0.32939285,0.14950995,0.7703804,20.94522,-6.1641293,-39.531296,
31178210,-2.8182807,-1.0010707,17.407145,0.08339677,0.43633217,1.1860995,20.480541,-4.1027727,-39.257202,
31178220,1.2702022,-1.0370028,12.279621,0.27967158,0.49545425,1.3038111,19.405567,-4.8677416,-40.048904,
31178230,4.9023466,-0.8070369,6.744869,0.06368939,0.45950162,1.0729153,22.327831,-6.1176395,-37.795044,
31178240,5.7293854,-0.13091305,4.568577,-0.46761078,0.41982055,0.56584984,21.71408,-6.2929153,-39.046394,15.0
31178250,3.6956239,0.37333518,5.3620787,-1.0135584,0.35989952,0.07636125,20.483208,-7.177517,-37.82865,
31178260,0.953999,0.29907534,8.268393,-1.2625637,0.2829342,-0.1657199,21.405258,-5.7033157,-38.751373,
31178270,-1.301943,0.46017128,9.84342,-1.1640267,-0.070733294,-0.14814305,23.404572,-5.5209255,-38.394226,
31178280,-1.7906206,0.6158774,9.803895,-1.0218141,-0.5548956,0.055322297,20.021233,-4.717944,-40.49962,
31178290,-0.6527682,0.17271386,9.982358,-0.8476435,-0.7093588,0.27876133,20.021233,-4.717944,-40.49962,13.0
31178300,0.08563799,-0.053658865,9.527816,-0.5499024,-0.5200082,0.44387716,20.173473,-4.5496693,-39.259666,
31178310,1.408541,-0.67408776,8.337862,-0.25402546,-0.18631437,0.5831604,18.636765,-5.0291395,-40.220924,
31178320,3.3704379,-1.2549913,7.1832414,-0.012476949,0.11408992,0.6132541,20.787785,-3.6581936,-39.409477,
31178330,4.932889,-1.3711721,5.7944627,0.16195995,0.09837728,0.41085398,20.942307,-4.5333643,-38.9312,
31178340,5.268255,-1.0028673,4.0541477,0.21682101,-0.20122808,0.07769283,21.248447,-3.7847004,-38.467964,12.0
31178350,4.469364,0.09665741,2.9150977,0.23413154,-0.34503865,-0.24454936,20.94381,-5.132266,-39.54328,
31178360,3.2937827,0.81350434,1.553867,0.2602305,-0.21907124,-0.50101155,21.710106,-3.634921,-38.76774,
31178370,1.7804391,0.5182616,0.43338194,0.145981,-0.08937541,-0.68956316,21.09673,-3.9599237,-40.17212,
31178380,-0.12336749,0.16672516,0.5992688,-0.124063306,-0.045965925,-0.75907165,22.022537,-5.8645496,-40.28179,
31178390,-1.0881464,-0.97472036,2.5132563,-0.3685413,-0.0137417,-0.62990844,22.32734,-3.5059671,-40.611053,
31178400,-1.4690275,-1.6604261,5.6675024,-0.4287287,0.10769834,-0.40353996,22.790085,-3.6602716,-41.526344,
31178410,-1.2192988,-1.5705956,9.391274,-0.18052226,0.24831313,-0.14974093,20.328308,-3.4028063,-41.59057,
31178420,0.50065464,-2.0616686,11.240583,0.3537074,0.24192154,0.035348605,20.325874,-3.3703785,-39.4243,
31178430,2.8122914,-2.777318,9.718256,0.9507876,0.062158324,0.044669658,20.1706,-2.1957579,-39.59652,
31178440,4.8023353,-3.1246624,6.675999,1.2543876,-0.17725965,-0.0887546,22.328262,-3.8077354,-41.07183,
31178450,6.3432274,-3.2743797,4.409876,1.1334803,-0.2811228,-0.30926412,20.94205,-4.095769,-39.245804,
31178460,5.781487,-2.7132387,5.3824406,0.72681594,-0.16793859,-0.5721179,20.943459,-5.127633,-39.233818,
31178470,2.8110938,0.17451045,8.993624,0.3675558,0.03978779,-0.69169366,20.942516,-3.8125324,-40.022896,
31178480,3.212935,-0.5483252,11.48612,0.23306629,0.089322545,-0.65201265,22.02026,-4.821105,-39.52011,
31178490,3.5776467,-1.2184602,11.039362,0.20190734,0.2525742,-0.66852427,22.48085,-3.6440945,-40.14135,
31178500,2.9811726,-0.8393758,10.904617,0.102038875,0.5670932,-0.7473538,21.556335,-3.0592003,-39.552055,
31178510,1.5067557,0.4344199,12.322142,-0.1022254,0.7497859,-0.90314853,23.709755,-2.4438276,-39.969917,
31178520,0.9731628,-0.093184255,13.913338,-0.21301281,0.6070405,-1.1140707,23.556046,-1.2900524,-41.534737,
31178530,0.33416888,-1.927522,13.969033,-0.26387915,0.10689939,-1.3028888,22.786396,-1.5849628,-40.77665,
31178540,-0.0017969795,-3.1102896,13.301892,-0.35495916,-0.5040292,-1.3180687,22.3233,-1.4260283,-39.551888,14.0
31178550,-0.38327694,-2.9000864,12.586243,-0.64764035,-1.0715483,-1.2597455,22.784798,0.46255016,-41.88375,
31178560,-0.41621473,-2.728211,13.27135,-1.0172868,-1.26516,-1.1897044,21.092506,0.00390625,-41.301476,
31178570,-0.4796949,-4.0020065,14.443338,-1.3144953,-1.0675536,-1.1002223,20.477192,-0.15052414,-41.160225,
31178580,-1.9996262,-4.2265825,16.61424,-1.5176942,-0.68512404,-0.9636023,20.935555,0.91150665,-39.61348,
31178590,-3.5530937,-3.6516676,18.647404,-1.572289,-0.41641128,-0.6943569,20.473969,2.2080212,-41.187614,15.0
31178600,-4.12741,-3.0228543,20.037378,-1.466828,-0.30162913,-0.34122205,20.320042,1.7727251,-40.567345,
31178610,-3.6333425,-1.4388444,21.06564,-1.18693,-0.29949862,0.007119119,21.241676,2.6735024,-40.400085,
31178620,-1.8307449,-0.2566757,20.176914,-0.72274137,-0.41321552,0.2547929,20.164421,2.9519787,-40.430107,
31178630,0.2215814,0.94645345,17.296951,-0.2684065,-0.5501019,0.32563293,20.315914,3.4197035,-38.88411,
31178640,2.1283822,1.9663284,12.994672,8.388441E-4,-0.56075454,0.23402025,19.856293,3.5323129,-40.75403,27.0
31178650,3.430924,2.587955,8.8696575,-0.026591694,-0.40895444,-0.0035335124,18.932697,3.8154402,-40.62551,
31178660,3.3273194,2.946079,6.261581,-0.29796758,-0.15755227,-0.31405783,19.08353,5.0155773,-39.397545,
31178670,2.0732863,2.878407,4.865017,-0.65802664,0.18785942,-0.5779768,17.547077,4.098512,-40.044197,
31178680,0.34494853,2.5843618,5.103367,-1.0252762,0.51755846,-0.718858,19.237057,5.7456923,-40.02124,
31178690,-1.2869711,2.0669384,7.028733,-1.2676237,0.7252848,-0.7375001,19.08348,5.305763,-39.710434,53.0
31178700,-2.7188685,1.3908147,9.055307,-1.2545742,0.80038595,-0.64562106,19.699368,5.1630597,-40.00299,
31178710,-3.1073353,0.61448,11.004628,-1.0092974,0.7029143,-0.47198313,20.773075,6.2344284,-38.441048,
31178720,-3.1129246,0.2391884,12.390413,-0.5507014,0.4568385,-0.30127466,19.848877,6.959782,-38.317665,
31178730,-2.5619648,0.08827324,12.610198,0.094582036,0.27281418,-0.13589251,18.156971,7.219655,-38.98182,
31178740,-1.8403268,0.27571943,11.098051,0.71935904,0.11568782,-0.030431416,19.386066,7.404271,-37.71527,105.0
31178750,-1.1564176,0.6577983,8.700777,1.1968634,-0.07552698,-0.0059303558,20.000168,7.574916,-36.773384,
31178760,-0.6030621,0.8811766,5.8687224,1.4855499,-0.31015128,-0.05599774,20.000221,7.2847304,-36.460495,
31178770,-0.55515254,0.6302503,2.5527816,1.4903436,-0.537585,-0.11671776,18.925419,6.517445,-37.40693,
31178780,-1.0869488,0.636239,-0.018165797,1.1547856,-0.5911145,-0.09328197,18.773579,6.054353,-38.643463,
31178790,-1.6684512,0.28410363,-0.22956678,0.670357,-0.34051126,0.0822202,19.080044,6.9434767,-38.646133,137.0
31178800,-1.6900104,-0.5992291,1.7101719,0.25783366,0.14498256,0.37330347,18.771667,6.0798326,-36.94139,
31178810,-1.2630165,-1.4136918,5.8830957,0.055167284,0.51569426,0.6390867,19.233612,6.5151653,-37.863533,
31178820,-0.48867798,-1.5981436,10.911204,0.2602305,0.6696248,0.79834366,19.078396,7.399602,-37.72287,
31178830,0.78811216,-1.6376691,14.3702755,0.99872446,0.7428617,0.80153936,19.079403,6.6625566,-37.71431,
31178840,1.6217386,-1.816731,14.588264,1.9555973,0.60597533,0.644413,18.923607,7.8441267,-37.422333,174.0
31178850,1.5313094,-1.8047537,11.317837,2.7098038,0.13140047,0.41165292,19.234715,6.2110825,-38.479042,
31178860,2.1223936,-1.8963807,5.6058187,2.9457598,-0.3575555,0.21591076,20.004604,5.2001567,-37.829124,
31178870,2.5092635,-2.0071719,2.2269964,2.558004,-0.579663,0.023098072,19.081856,5.616795,-38.63073,
31178880,0.25152484,-0.31237054,2.3102393,1.9041984,-0.461685,-0.07650406,18.62381,3.826985,-39.54998,
31178890,-1.8391291,0.38710922,3.8463402,1.283416,-0.040639605,0.08754651,18.007473,3.541359,-38.323883,202.0
31178900,-3.7297604,1.1392894,6.0831175,0.6168275,0.42781004,0.4025982,18.005371,4.582487,-37.716934,
31178910,-3.7800655,0.72906375,9.126573,0.033329375,0.7194259,0.74641204,19.70198,2.378502,-38.88733,
31178920,-3.998653,0.75062305,11.201057,-0.51394975,0.977486,1.0177878,18.621437,4.4374676,-38.164223,
31178930,-3.7782688,2.2256389,14.681688,-0.8172835,1.3468661,1.1895616,20.008648,3.120216,-38.88829,
31178940,-2.467942,1.959142,18.155731,-0.7698793,1.445403,1.1280427,20.314037,4.16833,-38.119003,238.0
31178950,-1.2246888,0.7733801,19.975096,-0.53099394,1.0507228,0.85240567,21.236622,4.6222486,-38.25608,
31178960,-1.0426323,-0.1434893,21.119537,-0.19383806,0.22221416,0.51018983,21.546108,3.3002367,-38.23307,
31178970,0.2191859,-0.9088447,20.526058,0.32601053,-0.87207776,0.22576445,21.083683,4.4632397,-38.877098,
31178980,2.0984387,-1.8706293,15.834512,0.57954323,-1.8313475,-0.07171038,21.392166,3.8782725,-38.862656,
31178990,2.0954444,-1.2729574,11.196866,0.27754104,-2.209516,-0.34521678,20.313496,5.188612,-38.904655,278.0
31179000,0.88512903,-0.548924,8.878042,-0.31794128,-1.7501212,-0.4043389,20.313496,5.188612,-38.904655,
31179010,-0.079650015,-1.619703,8.342653,-0.95949614,-0.85529995,-0.21046095,20.466995,6.0638194,-39.6848,
31179020,-0.48927686,-2.8204367,10.151838,-1.5515164,-0.07952172,0.10805284,18.773697,6.3422227,-39.111084,
31179030,-0.3581244,-3.503148,13.379147,-1.850589,0.30690262,0.38981503,18.773697,6.3422227,-39.111084,
31179040,0.098214254,-3.943916,16.210602,-1.7816133,0.39159107,0.5791656,21.539314,8.021959,-37.978394,304.0
31179050,0.65156984,-3.700775,17.437086,-1.4058416,0.24591628,0.67503935,19.23499,7.5099688,-40.35125,
31179060,1.9618965,-3.233058,16.036333,-0.9256742,-0.022530124,0.68808883,19.849957,7.669032,-40.18303,
31179070,3.7345507,-2.7389905,12.966525,-0.64204764,-0.21241334,0.5991393,21.231796,9.028307,-39.39058,
31179080,5.1538715,-1.7400758,10.120697,-0.48598662,-0.37593126,0.42203927,21.387074,7.853685,-39.218346,
31179090,5.044877,-0.44771507,7.579693,-0.38931394,-0.4504997,0.10698757,18.926098,7.521513,-39.27571,
31179100,3.448291,0.09605855,6.200496,-0.43032655,-0.3381144,-0.24028835,20.771069,8.576759,-39.551575,
31179110,1.352846,0.1936743,6.1927114,-0.55203295,-0.14263858,-0.44774836,20.465244,7.9685564,-40.48072,
31179120,-0.4192091,0.26613754,6.619705,-0.57680035,0.13326466,-0.43230206,20.926964,8.696391,-41.561012,
31179130,-1.1444402,0.14097378,6.84488,-0.47879606,0.41555953,-0.27118096,20.155762,9.290568,-40.503723,
31179140,-0.9671748,-0.3878281,7.1065865,-0.32646337,0.621688,-0.10313565,20.92529,9.297609,-40.794197,263.0
31179150,-0.9438189,-0.67109346,6.8933887,-0.10994856,0.58839846,-0.02297457,20.925812,9.29066,-41.2584,
31179160,-0.99592054,-0.37465295,5.830994,0.07194518,0.22913839,0.018570706,22.156353,9.16656,-40.916832,
31179170,-0.7282258,-0.065037385,4.5649834,0.17900416,-0.13358384,0.04493598,21.390259,7.5218062,-41.69065,
31179180,-0.43058765,-0.05904869,3.5942159,0.25250733,-0.24730073,0.06917072,22.310337,9.311671,-41.224205,
31179190,-0.25152564,-0.2914101,3.0959563,0.26901895,-0.18445018,0.104058094,21.694843,9.159556,-40.92823,219.0
31179200,0.48688066,-0.9687317,3.1929731,0.2415884,-0.042237498,0.1543918,20.311726,8.106682,-40.95043,
31179210,1.9511168,-2.3515215,3.8930519,0.16994943,0.07147938,0.16744128,21.083244,6.784724,-41.380226,
31179220,1.7582808,-2.5862784,6.1022816,0.10123993,0.13326466,0.07076862,23.85036,7.8655596,-40.859627,
31179230,0.9701684,-2.4389567,8.705568,0.23546314,0.24485104,0.033484396,22.160099,6.8010664,-41.35363,
31179240,1.1486316,-2.8629565,10.011105,0.5925927,0.2813363,0.08248652,23.851166,7.275923,-40.852776,176.0
31179250,1.8529024,-3.5522554,9.095431,1.0021865,0.12341097,0.11258021,22.31303,6.091835,-39.639206,
31179260,2.6499975,-3.944515,7.1826425,1.2575835,-0.060613297,0.13015705,23.852139,5.81573,-39.907257,
31179270,3.3420913,-4.166895,6.087509,1.2248266,-0.14929649,0.130956,22.77866,4.45186,-41.311043,
31179280,3.61837,-4.211012,6.2496037,0.954516,-0.13065438,0.11098231,22.624737,4.0165634,-40.690773,
31179290,1.8055916,-2.1958156,8.653465,0.62934434,-0.00415433,0.14906548,22.163723,4.1477036,-41.322807,121.0
31179300,0.61683536,1.3429053,12.22273,0.5326717,0.20623522,0.34187818,22.62717,3.9841356,-42.857033,
31179310,3.4962006,-0.17882262,12.978502,0.58726645,0.16948363,0.48089504,24.319534,3.1392589,-41.876564,
31179320,5.3317356,-0.90345484,12.363464,0.57421696,0.16868469,0.2800929,24.934528,3.1532297,-41.551903,
31179330,4.463974,-0.10516164,12.307769,0.4381295,0.23153523,-0.09434722,23.554195,2.0632944,-44.049843,
31179340,3.1668222,0.28350472,13.282129,0.15556838,0.20703416,-0.49089155,24.47284,2.280302,-40.315163,47.0
31179350,2.327806,-0.902856,14.486457,-0.035113797,0.0011719912,-0.8645327,24.628723,1.5316935,-41.23121,
31179360,0.728824,-1.2160648,14.097191,-0.097165406,-0.2904439,-1.0869066,24.626389,2.865324,-40.782417,
31179370,-0.7479885,-0.49502578,13.78518,-0.14137384,-0.43958074,-1.1028855,24.474113,1.9739027,-41.08541,
31179380,-1.1336606,-0.16265313,13.7031355,-0.14803174,-0.4334555,-0.9833096,25.858982,1.9902811,-41.36068,
31179390,-0.11797767,-1.5023245,13.98101,-0.2178065,-0.5634177,-0.8874359,23.396698,3.9911757,-43.147514,
31179400,-0.24134482,-2.0359175,14.40501,-0.35096443,-0.822543,-0.88850117,22.169868,1.0266342,-42.98893,
31179410,-0.7725422,-2.4904594,13.221643,-0.46042025,-0.83798933,-0.78117585,22.47902,1.445735,-44.843254,
31179420,-1.1378527,-2.964764,12.411373,-0.7419161,-0.5849893,-0.5196537,23.398975,2.9477305,-43.909187,
31179430,-1.0683838,-2.5132165,13.348005,-1.0793383,-0.22040282,-0.20540094,23.090958,2.9476943,-43.607323,
31179440,-1.1648018,-1.329251,15.000886,-1.2212847,0.2443184,0.07076862,21.706757,3.067143,-44.10743,28.0
31179450,-0.7192428,-0.120133385,16.223177,-1.1224816,0.5878659,0.27796236,23.858078,2.8420696,-41.57508,
31179460,0.37249655,0.44759503,15.810557,-0.8753404,0.596388,0.37277085,22.630455,2.2036448,-43.61016,
31179470,1.6660551,0.9865777,13.951666,-0.662554,0.35244262,0.3421445,23.860306,2.088811,-42.64965,
31179480,2.652992,1.4393231,11.835859,-0.5661477,0.08878991,0.19860023,23.706707,2.6622143,-43.58869,
31179490,2.9392517,1.669888,9.657172,-0.5517666,-0.047830135,-0.0069956183,21.245117,1.9040289,-42.557808,16.0
31179500,2.2888794,2.0908933,7.4084167,-0.64044976,0.0107593555,-0.20406938,24.478306,0.90497875,-43.549156,
31179510,1.3031399,2.334633,6.7688236,-0.82926774,0.24511734,-0.36758733,22.633976,0.13065338,-44.20513,
31179520,0.123965636,2.051368,6.2675695,-0.9903889,0.4858669,-0.5217842,24.629833,2.095851,-42.940117,
31179530,-1.1767792,1.3488938,5.915434,-1.0979805,0.76816165,-0.59022737,24.320751,3.123045,-42.95971,
31179540,-2.2763038,0.72666824,6.440643,-1.1379278,0.98467654,-0.5777105,24.782478,1.969306,-41.696754,
31179550,-3.539919,0.40986627,8.316303,-1.0993121,0.9473923,-0.49062526,23.862465,0.7574959,-42.943718,
31179560,-4.151963,0.31644258,10.574041,-0.8724109,0.74126375,-0.2679852,22.781574,2.8210945,-41.91114,
31179570,-3.5770485,0.3475838,11.922096,-0.32912654,0.62435114,0.03268545,24.784637,0.6379919,-41.990807,
31179580,-2.3308008,0.5943181,11.202854,0.40830213,0.6432596,0.30805606,23.395447,3.2842422,-41.12742,
31179590,-0.7030733,0.73625016,9.187059,1.0999246,0.7319428,0.48515615,23.398766,2.2268991,-42.817497,
31179600,1.3648236,0.5038887,6.4927444,1.604593,0.656309,0.5011351,25.704205,0.55323315,-38.71689,
31179610,3.0452516,-0.06982835,3.547504,1.8879532,0.39452058,0.35492766,23.86285,-1.2738018,-40.75348,
31179620,3.0889692,-0.03808825,1.411336,1.8842247,0.0019709393,0.09580231,24.63033,-0.5158186,-40.124107,
31179630,1.8205633,0.46256673,0.92984486,1.6208384,-0.39137763,-0.17956832,23.248833,-1.8797264,-41.22602,
31179640,-0.06946924,0.85482633,1.7365222,1.3100476,-0.5429114,-0.3390915,23.712128,-3.0543108,-41.35566,
31179650,-1.990643,1.1392894,3.1139226,1.1438665,-0.32053757,-0.29142097,24.172363,-2.7409067,-40.57402,
31179660,-3.5776474,1.210555,3.6229615,1.137475,0.17001626,-0.05173669,24.481045,-3.4732828,-40.55786,
31179670,-3.8453422,0.7374479,4.183503,1.1286865,0.6608364,0.3322908,24.329105,-4.369339,-41.170326,
31179680,-2.863196,-0.18840456,4.929096,1.0370739,0.8435291,0.7450805,23.254955,-6.737276,-40.70533,
31179690,-1.0067003,-1.1010818,6.1436033,0.90711176,0.8160986,1.0779753,23.716011,-6.1452694,-41.010246,
31179700,0.3012311,-1.5220871,7.750371,0.7683612,0.6877343,1.2654617,24.946804,-6.7069626,-40.354065,
31179710,0.21439496,0.25236353,10.165611,0.6874012,0.5891974,1.293691,24.640656,-8.323866,-39.7239,
31179720,0.16169444,2.4478195,13.065339,0.75584435,0.39425427,1.1762458,24.640656,-8.323866,-39.7239,
31179730,0.8659651,2.978418,14.316977,0.93347704,-0.02439434,0.9160552,22.642452,-9.823673,-39.4467,
31179740,2.0062127,0.85542524,13.256977,0.9811475,-0.6766019,0.46305192,23.873425,-10.387684,-38.945267,
31179750,-0.13833925,0.41944814,11.598108,0.639198,-1.245719,0.028957024,21.719719,-10.420368,-38.99846,
31179760,-2.7110832,1.2866113,13.038988,0.09378308,-1.3075043,-0.05892722,22.336346,-12.599003,-37.410248,
31179770,-3.704608,1.5117863,16.215393,-0.3035602,-0.9916536,0.035082288,22.336346,-12.599003,-37.410248,
31179780,-3.5506985,0.28530133,18.73424,-0.2566886,-0.40895444,0.20152971,20.491821,-12.357681,-39.16133,
31179790,-2.849422,-0.20756835,19.079786,0.10283782,0.12101413,0.42177296,21.108063,-12.505016,-39.76335,
31179800,-0.78511846,0.23499629,17.157415,0.46928847,0.29118997,0.5605235,20.493984,-13.688995,-39.455383,
31179810,1.6690493,0.20505282,14.812241,0.6173601,0.064555176,0.43855086,19.72232,-12.509813,-38.71441,
31179820,2.634427,0.6697756,12.366458,0.5483843,-0.43904817,0.08142125,20.337856,-13.516125,-37.604103,
31179830,2.466943,1.0919787,9.815673,0.27381262,-0.975142,-0.31139466,17.571651,-13.885393,-39.835327,
31179840,1.7864276,0.61467963,6.989806,-0.30542442,-1.2931232,-0.5739821,18.495174,-14.746576,-39.183327,20.0
31179850,0.5509597,0.22541438,5.2243385,-1.1294057,-1.1538401,-0.62058735,18.030746,-13.991055,-37.50122,
31179860,-0.14971778,-0.7531386,6.201095,-1.9110429,-0.5921798,-0.48423368,17.8788,-13.8737755,-39.363533,
31179870,-0.5018531,-1.9688439,9.05411,-2.432756,0.058163587,-0.29967678,15.872009,-10.338512,-37.597214,
31179880,-0.46831644,-2.8887079,12.704221,-2.5288959,0.49705213,-0.12950093,17.41077,-10.609983,-37.555794,
31179890,0.07425946,-3.4558372,15.415304,-2.2354157,0.47601318,-0.0099250935,17.716164,-9.561871,-36.786514,52.0
31179900,0.949208,-3.563634,16.177664,-1.7291491,0.094915174,0.028424393,16.79206,-8.403553,-37.2872,
31179910,1.9642918,-2.874934,14.783495,-1.2191541,-0.3037597,-0.009658778,14.638472,-8.148371,-37.80802,
31179920,2.869783,-2.0311263,12.307769,-0.83406144,-0.44783658,-0.114054605,15.868263,-7.9730186,-37.160408,
31179930,3.3027656,-1.4963357,9.7679615,-0.5879856,-0.3700723,-0.29275256,15.711826,-7.0723686,-35.936607,
31179940,2.8027096,-1.0226299,7.9521894,-0.48465502,-0.28618282,-0.49275577,14.788837,-7.231468,-35.802963,139.0
31179950,2.0157948,-1.2777483,6.5676036,-0.5011666,-0.3058902,-0.61685896,14.017662,-6.782385,-34.589233,
31179960,0.7899087,-1.577782,5.645943,-0.6140845,-0.27233443,-0.63709897,14.478254,-5.6053734,-35.210457,
31179970,-0.57491523,-1.3633866,5.755536,-0.66015714,-0.124262795,-0.5004789,13.398867,-4.1406755,-34.789978,
31179980,-1.3714118,-1.1753417,6.0765305,-0.61861193,0.05869622,-0.26771885,13.242706,-1.9411392,-35.438393,
31179990,-1.6409032,-0.93818927,6.3867445,-0.4926445,0.22833943,-0.028567206,13.703104,-2.498293,-33.71808,208.0
31180000,-1.5504738,-0.8579407,6.663422,-0.26281387,0.35191002,0.17915916,12.316475,-1.4781761,-33.145325,
31180010,-1.1743836,-0.77170354,6.8269143,0.051705178,0.3601658,0.3320245,13.698372,-0.40908718,-32.039978,
31180020,-0.47131073,-0.7735002,5.9357963,0.31162947,0.21955103,0.40579402,13.54719,-1.6045923,-32.95848,
31180030,0.7138522,-1.2502003,4.8728023,0.3992474,-0.037443817,0.37836346,12.928156,0.4613781,-32.223984,
31180040,1.8936255,-1.734087,3.9954586,0.32041788,-0.3761976,0.27316868,12.313736,0.15027332,-32.69996,261.0
31180050,3.0015342,-2.1215558,4.348192,0.161161,-0.6036314,0.15465811,13.543501,0.47071648,-32.208786,
31180060,3.6938276,-2.165872,6.0633554,0.10177256,-0.5317261,0.029755972,13.082312,0.6041727,-32.686096,
31180070,3.5788445,-2.4563236,8.500755,0.2937863,-0.16900386,-0.064786166,9.698204,-0.029876709,-32.298637,
31180080,2.5775342,-2.8797247,10.245262,0.68686855,0.27680892,-0.057595637,12.927809,0.46601105,-31.91452,
31180090,1.8750606,-3.3163004,10.466844,1.0895381,0.5766806,0.06863809,13.080967,2.2140913,-33.4786,288.0
31180100,1.7265408,-3.2833629,9.751793,1.3310866,0.65684164,0.21031813,13.539005,3.1356611,-31.465935,
31180110,2.328405,-3.218685,9.116991,1.3681046,0.51329744,0.30406132,14.154779,2.7050881,-31.290863,
31180120,3.103941,-3.3204927,8.523512,1.1441329,0.052304637,0.28914765,13.694033,3.2668748,-32.70172,
31180130,1.7211509,-0.1416927,9.348753,0.8304128,-0.28192174,0.28781605,12.768755,3.282979,-30.712975,
31180140,2.9937487,1.5728711,11.772978,0.7206906,-0.37726286,0.30805606,14.001173,2.4102516,-31.136513,
31180150,5.818617,-0.3626756,12.606007,0.72921276,-0.24117544,0.08674757,11.695417,1.1936445,-31.334534,
31180160,6.7594414,-1.5316691,12.893463,0.8746213,0.23979104,-0.3390915,14.768915,3.5988808,-31.285942,
31180170,4.3705497,-1.2759516,13.209068,0.8562454,0.43952793,-0.78543687,13.538603,3.4304795,-31.46936,
31180180,1.9157835,-1.5107087,14.092999,0.73107696,0.29411948,-1.0397687,12.921848,4.4530044,-31.496544,
31180190,-0.11797769,-2.0395107,14.425371,0.58566856,-0.05502066,-1.2056835,12.768909,4.293995,-32.11756,318.0
31180200,-2.1463492,-1.4376464,13.477961,0.48127267,-0.47739762,-1.2411034,15.38415,4.188591,-31.89653,
31180210,-2.978778,-0.32734224,10.94534,0.31961894,-0.7610241,-1.0280507,13.535784,5.494206,-31.493324,
31180220,-2.1565297,0.23858953,9.283477,-0.07106645,-0.74451244,-0.7396306,12.000271,3.2620406,-31.350906,
31180230,-0.7282258,-0.5183817,9.215206,-0.5746697,-0.5061598,-0.524181,12.765982,6.938093,-32.76732,
31180240,-0.11737881,-1.4514205,10.742922,-1.0987794,-0.33678287,-0.41871995,12.457924,6.214909,-31.52848,
31180250,-0.1293562,-2.0395107,13.577373,-1.5493858,-0.35968602,-0.34068942,11.844959,6.4633284,-34.022842,
31180260,0.2940446,-2.856369,16.281868,-1.7975923,-0.54317766,-0.22803779,13.07411,6.357759,-32.443398,
31180270,-0.17546917,-1.9664485,18.170704,-1.806647,-0.7176146,-0.110059865,13.378347,8.000142,-31.371498,
31180280,-0.55395484,-0.42136478,19.297176,-1.5547122,-0.6038977,0.077426516,11.992535,9.298863,-31.885307,
31180290,-0.041921243,0.7661937,19.057629,-1.0822679,-0.27073652,0.3048603,11.99398,8.990148,-32.81028,282.0
31180300,1.4289026,1.3321254,16.987936,-0.5480382,0.015553044,0.4731719,12.761595,9.022667,-31.398682,
31180310,3.5273418,1.707018,14.13492,-0.21194756,0.085327804,0.49474347,13.5320835,9.451088,-33.086884,
31180320,5.317363,1.8004416,11.701713,-0.1038233,0.032064628,0.30938762,12.763281,9.28969,-33.258904,
31180330,5.9665375,1.972317,10.057816,-0.15069489,-0.032117497,-0.03735563,13.378963,8.426155,-32.45977,
31180340,5.137103,2.0729272,9.369115,-0.27586335,-0.08964173,-0.44508523,12.761469,10.616371,-33.274315,
31180350,3.2895904,1.9034472,9.260121,-0.34936655,-0.13331753,-0.80807376,13.070082,9.305941,-32.47764,232.0
31180360,0.90908366,1.8076279,8.8762455,-0.3259307,-0.11707227,-1.0272517,11.065397,11.800075,-31.318275,
31180370,-1.2312763,1.4668711,8.228269,-0.2079528,0.06482149,-1.0512203,11.683689,10.901796,-32.840134,
31180380,-3.0644164,1.0051427,7.294032,-0.06547381,0.33113736,-0.90341485,13.993475,9.170222,-32.607864,
31180390,-4.1310034,0.8260806,6.8117423,0.041851487,0.5646964,-0.6141958,12.1448765,10.768339,-32.362823,
31180400,-4.2352066,0.8823744,6.798168,0.13852416,0.73354065,-0.24028835,12.760662,11.206007,-33.28116,192.0
31180410,-3.3632522,0.9278885,6.5622134,0.30870003,0.7631017,0.06517598,12.295307,12.263295,-31.138283,
31180420,-2.2828913,0.9901709,5.3237514,0.45251057,0.6105027,0.23987919,14.299452,10.789442,-33.083298,
31180430,-0.96418047,0.9799901,4.497311,0.50204533,0.4320711,0.31604555,13.221949,12.373754,-34.521324,
31180440,0.18864359,0.7404423,4.337413,0.5385306,0.3167563,0.27956027,13.53137,10.473686,-33.717804,
31180450,0.56772804,0.45358372,4.4859324,0.65357906,0.3636279,0.20712233,11.99173,9.888499,-31.89215,77.0
31180460,0.3754909,0.28350475,4.7111077,0.8192276,0.464029,0.14240758,13.375538,10.932109,-32.488876,
31180470,-0.27068943,0.26973075,4.9560456,0.9593097,0.46615952,0.09926441,13.223085,10.043004,-32.63714,
31180480,-1.210316,0.5673689,5.240508,1.1100445,0.4099669,0.09660125,14.301907,9.743681,-33.99971,
31180490,-1.7642702,0.7134931,4.827288,1.2807529,0.31249523,0.15998442,13.531628,10.036092,-33.403206,
31180500,-1.7546885,0.70690554,3.9164076,1.3497288,0.21129522,0.25186342,13.531628,10.036092,-33.403206,22.0
31180510,-1.3899767,0.617674,3.3726342,1.2991288,0.23952469,0.36185187,16.299587,11.250438,-33.812706,
31180520,-0.8330281,0.2721262,4.0451646,1.2067173,0.39052582,0.47343823,15.685972,7.599882,-30.84517,
31180530,-0.18564995,-0.5644946,5.565096,1.1286867,0.48187214,0.5802309,15.843315,7.4107985,-33.779594,
31180540,-0.48268926,-0.25667566,7.6240096,1.0906034,0.41263002,0.6771699,14.765171,8.71419,-34.285797,
31180550,-0.635401,0.89794505,9.4373865,1.178754,0.28266788,0.7647878,15.22776,6.680629,-32.703102,
31180560,-0.5707231,1.550713,9.61046,1.2573172,0.08639307,0.8103278,17.078938,5.19286,-35.425583,
31180570,0.830033,1.1368939,8.720539,1.1625087,-0.019334335,0.7786362,15.689167,8.136244,-34.41088,
31180580,1.6732413,-0.078811385,7.255705,0.7284138,-0.06966804,0.54907197,15.232878,5.309938,-35.627625,
31180590,-0.44076842,0.9218998,7.2563033,-0.022596955,0.08665939,0.2782287,16.000868,5.192732,-34.36904,
31180600,-2.8919418,2.3567913,10.106324,-0.7879888,0.49651954,0.22549814,16.613503,6.685426,-33.752037,20.0
31180610,-3.3123484,1.9028482,14.806852,-1.2138278,0.86882913,0.25292867,17.99754,7.436534,-34.190605,
31180620,-3.198563,0.40627304,18.45337,-1.229008,0.8208922,0.19433917,17.999435,5.674574,-33.705856,
31180630,-3.7399411,0.31344822,20.590136,-0.967752,0.38333526,0.12243389,17.531548,8.212901,-31.115898,
31180640,-3.7716813,0.32422787,21.211164,-0.4902476,-0.19084175,0.12642863,19.842651,7.766316,-33.684227,
31180650,-2.9392524,-0.23571521,20.40748,0.039720964,-0.848642,0.15412548,17.380108,7.4549913,-32.349,
31180660,-1.8049935,-0.6022234,17.736523,0.36089793,-1.6001854,0.14986444,19.38139,6.4534774,-32.28762,
31180670,-0.43238425,-0.23331976,14.16666,0.34971264,-2.1229634,0.1325539,17.687244,8.479942,-33.127052,
31180680,1.5666425,-0.19559097,10.80341,0.03545991,-2.0681024,0.12296652,19.999336,5.559831,-33.500015,
31180690,2.9494326,-0.45849475,8.728325,-0.48412237,-1.4505159,0.0923402,18.457184,9.060405,-34.5075,
31180700,3.5740535,-0.957952,8.909782,-1.0196836,-0.5892503,0.052925453,17.382084,8.007566,-34.83158,17.0
31180710,3.550099,-1.6065277,10.623748,-1.3866668,0.07547411,1.9491045E-4,18.458336,8.466136,-34.81012,
31180720,3.550099,-2.507228,12.6084,-1.5014491,0.28719527,-0.07677038,17.997292,8.742369,-35.59861,
31180730,3.26324,-3.186346,13.407892,-1.3845363,0.17560889,-0.17131253,17.380737,9.617485,-35.624077,
31180740,2.6541896,-3.3857694,13.330639,-1.1232805,0.009960409,-0.2312336,18.921902,8.590437,-36.811966,
31180750,1.9085972,-3.5235095,12.173622,-0.85190463,-0.17752597,-0.24348411,17.536469,9.739433,-37.47879,15.0
31180760,1.0420328,-3.5540519,10.766878,-0.66495085,-0.31680918,-0.18542728,19.223927,11.85432,-35.758904,
31180770,0.25871134,-3.314504,9.833838,-0.56241924,-0.38045865,-0.03868721,18.607834,12.144432,-35.468056,
31180780,0.04431599,-2.663533,9.203229,-0.46974128,-0.29790074,0.17516443,19.837734,11.739412,-34.194656,
31180790,0.50424784,-2.0221434,8.579805,-0.34723604,-0.09283752,0.3583898,19.991955,12.460261,-35.437286,
31180800,0.97795373,-1.5933526,8.112688,-0.24390545,0.07733833,0.40792453,20.150204,10.23293,-36.645668,
31180810,1.2767897,-1.3651832,7.703659,-0.17066857,0.15723309,0.36584663,20.764858,11.119774,-37.104942,
31180820,1.279784,-1.2172625,7.3605065,-0.076659076,0.18333206,0.27103814,19.226345,10.085411,-35.738358,
31180830,0.64198786,-0.75433636,6.9718404,0.07167887,0.19478363,0.16424549,22.14566,12.492946,-35.384094,
31180840,0.089830086,-0.66270924,6.417886,0.24451786,0.17933732,0.11178126,21.227558,11.255656,-38.333122,
31180850,-0.5072429,-0.84117234,5.684271,0.3808716,0.13033518,0.110183366,23.380047,11.304555,-37.1968,14.0
31180860,-1.2181011,-0.83997464,4.6709833,0.451179,0.08479518,0.20525813,21.225735,11.714098,-37.255127,
31180870,-0.8863274,-1.0699406,4.137989,0.37607792,0.0025035664,0.38795084,21.382072,9.512245,-36.761444,
31180880,0.11618036,-1.4981323,4.448803,0.19152102,-0.10295752,0.52217406,21.689552,10.532564,-37.84897,
31180890,0.64258677,-1.6113188,5.6297736,0.062357813,-0.06780383,0.5818288,21.226341,11.271871,-37.249992,
31180900,1.0917389,-1.4987313,7.4179983,0.092451505,0.11941624,0.6425488,21.537605,10.649843,-39.711273,
31180910,1.9798626,-1.8023582,8.874449,0.31961894,0.36096475,0.6601257,23.228271,11.4195175,-39.213844,
31180920,2.7350373,-2.4341655,9.532607,0.6882001,0.529809,0.6002046,22.767101,10.53964,-38.4413,
31180930,3.2596474,-2.928832,9.218201,1.0554497,0.45657212,0.48515612,22.770596,9.479982,-40.286118,
31180940,3.8698955,-3.3204927,7.9450045,1.2642415,0.12234571,0.33761713,25.384056,10.556166,-39.92404,
31180950,4.0232058,-3.2693892,6.363788,1.2003255,-0.27553022,0.13814652,23.694332,8.471392,-39.6324,
31180960,3.214133,-2.5180075,5.842372,0.9012528,-0.49817032,-0.023507202,25.385399,8.946248,-39.131546,
31180970,0.48987502,0.6805553,6.762835,0.61336535,-0.30802074,0.012179127,24.155094,9.646086,-40.408363,
31180980,0.87195385,1.0800014,8.406133,0.43306953,0.007297255,0.17915916,23.696362,8.733782,-41.8021,
31180990,2.7254553,-0.75553405,8.890019,0.28739473,0.35510582,0.16371286,27.078007,9.545351,-40.179733,
31181000,2.4350035,-1.2364265,9.288268,0.030666217,0.64379215,-0.003267195,26.466038,8.188484,-41.57212,
31181010,1.0522135,-0.94537574,11.899939,-0.37413388,0.50850374,-0.19075358,26.774174,7.6081495,-41.248207,
31181020,1.0450271,-1.7861886,15.701563,-0.62660134,-0.01454065,-0.41552418,25.544922,6.4125166,-41.110176,
31181030,1.5223262,-2.8144479,18.603086,-0.53632027,-0.6022998,-0.60301054,26.468685,8.876887,-44.83007,
31181040,2.099038,-3.3731935,19.48522,-0.25855282,-1.1072347,-0.74841905,25.85128,8.750252,-42.83204,
31181050,2.2289925,-3.3037243,18.585718,0.11695257,-1.1802053,-0.8264495,24.621574,8.139623,-43.010323,
31181060,1.7319306,-2.832414,15.997406,0.4192211,-0.79804194,-0.75774,24.466766,9.597481,-43.959633,
31181070,0.84620243,-2.047296,12.240096,0.4165579,-0.10162594,-0.56679153,24.776466,8.9963,-45.028328,
31181080,-0.0802489,-0.81721765,9.4044485,0.06741781,0.69359326,-0.3574673,25.393528,7.2459946,-44.37365,
31181090,-1.1330616,0.4362165,9.132562,-0.41860864,1.2888093,-0.14627883,26.00793,8.570433,-45.147514,
31181100,-1.2582254,0.8530297,9.913488,-0.8748077,1.3039892,0.020967549,25.544426,9.024187,-43.926186,15.0
31181110,-0.9905307,1.2105548,11.227407,-1.2391279,0.80251646,0.11497705,28.316105,8.018131,-44.928947,
31181120,0.1012086,1.7812778,12.841362,-1.4423269,-0.007616438,0.12829284,26.929703,8.745748,-44.198036,
31181130,1.2282813,2.2100685,13.604322,-1.4295437,-0.6635524,0.032152817,26.006256,9.171651,-44.3807,
31181140,1.8343372,2.5921469,13.2276325,-1.3057067,-0.8771378,-0.09195039,27.693546,11.288854,-42.50608,
31181150,2.322416,2.7568362,12.293396,-1.1688205,-0.6521009,-0.22963569,25.852108,9.897096,-45.012,23.0
31181160,2.1930604,2.6783843,11.073498,-1.0481794,-0.18072174,-0.37397888,26.62244,9.3145,-45.29563,
31181170,0.9989141,2.752644,10.215319,-0.98825836,0.2898584,-0.49808207,26.928768,10.929088,-46.08053,
31181180,-0.2814691,2.7107232,9.955409,-0.9927857,0.5098353,-0.57291687,26.619686,11.956282,-46.100105,
31181190,-1.4630389,2.717311,9.670945,-0.9925194,0.55564165,-0.5734495,26.926434,12.262718,-45.63172,
31181200,-2.0313663,2.486746,9.460144,-0.95177305,0.6049101,-0.4884947,26.61766,12.562132,-45.023827,69.0
31181210,-1.9457278,1.8214021,9.439782,-0.84684455,0.6073069,-0.3942189,27.387966,12.124629,-45.46389,
31181220,-1.5283157,1.0117302,9.409239,-0.68758774,0.4608332,-0.3121936,29.07904,12.599485,-44.963036,
31181230,-0.8977059,0.5703633,9.19185,-0.49717182,0.18706048,-0.26612097,26.619823,11.230818,-45.31788,
31181240,-0.5030508,0.3218324,8.52471,-0.26600966,-0.060346976,-0.25653356,26.619823,11.230818,-45.31788,
